"Time (s)","Linear Acceleration x (m/s^2)","Linear Acceleration y (m/s^2)","Linear Acceleration z (m/s^2)","Absolute acceleration (m/s^2)"
2.472749911E-3,6.758533448E-1,6.234706248E-1,-1.550322572E0,1.802496447E0
1.239974983E-2,1.152820081E0,1.213021259E0,-1.269196630E0,2.100303502E0
2.232674975E-2,-1.014743346E-1,6.432364064E-1,8.302847421E-1,1.055188546E0
3.225374967E-2,-2.264316135E0,1.963797610E-1,1.041304908E0,2.500001696E0
4.218074959E-2,-3.763724077E0,2.233805948E-1,-4.617996436E-1,3.798522966E0
5.210775044E-2,-3.261496784E0,-4.280663256E-1,-1.638287500E0,3.674858907E0
6.203375012E-2,-1.170552347E0,4.669441701E-1,-5.235874053E0,5.385406833E0
7.196075004E-2,-1.335239761E0,8.517979641E-1,-1.233843545E1,1.243967099E1
8.188774996E-2,-1.400192971E0,1.401588994E0,-1.221144913E1,1.237111482E1
9.181474987E-2,6.209380496E-1,4.891300266E0,-5.148949930E0,7.128959793E0
1.017417498E-1,9.652875960E-2,6.202016512E0,-3.661168884E0,7.202672019E0
1.116687497E-1,-4.220865244E-1,5.420209281E0,-3.273135374E0,6.345883773E0
1.215957496E-1,-3.752281076E-1,4.636466621E0,-9.510367620E-1,4.747851070E0
1.315227505E-1,-3.863775784E-1,3.251282283E0,5.773444256E-1,3.324673022E0
1.414497504E-1,-4.958538276E-1,2.212982406E0,1.685158488E0,2.825406391E0
1.513767503E-1,1.458471000E-2,1.725533220E0,-6.073637384E-1,1.829362817E0
1.613037502E-1,-1.076806278E0,1.538911292E0,-4.414995435E0,4.797910421E0
1.712307502E-1,-1.143518915E0,1.023402634E0,-5.375440074E0,5.590200752E0
1.811577501E-1,7.772142434E-1,7.594999574E-1,-7.802401775E0,7.877713858E0
1.910847500E-1,2.486307431E0,9.548063157E-1,-7.795408505E0,8.237825775E0
2.010117499E-1,5.856526174E0,8.856961736E-1,-3.272830442E0,6.767183730E0
2.109387498E-1,5.905410651E0,3.794433653E-2,-2.273870485E0,6.328175228E0
2.208657498E-1,2.715204290E0,-1.642596605E0,-2.338108874E0,3.941726912E0
2.307927497E-1,4.038318095E0,-1.450428740E0,-1.827347862E0,4.663792102E0
2.407197496E-1,2.619470751E0,-1.127805400E0,-1.076759500E0,3.048439446E0
2.506467504E-1,-9.080924714E-1,-2.488830213E0,3.147740373E-1,2.667956232E0
2.605737504E-1,-5.448432037E0,-2.863505466E0,2.033242066E0,6.482217870E0
2.705007503E-1,-5.363167353E0,-3.610408036E0,4.237879179E0,7.730344765E0
2.804277502E-1,-2.960165788E0,-5.157377522E0,5.976759546E0,8.431060376E0
2.903547501E-1,-1.056319388E0,-5.704968683E0,4.238986642E0,7.185505276E0
3.002817500E-1,-9.869977230E-1,-5.343048254E0,2.728671304E0,6.080129623E0
3.102087500E-1,-9.190864062E-1,-5.086891676E0,1.701227221E0,5.441999706E0
3.201357499E-1,-7.854634953E-1,-5.004277536E0,8.918553382E-2,5.066330093E0
3.300627498E-1,7.332887900E-1,-5.243072560E0,1.640583116E0,5.542475556E0
3.399897497E-1,2.015494305E0,-4.873014561E0,3.476978375E0,6.316475823E0
3.499167496E-1,2.041920211E0,-4.774867292E0,-7.315905247E0,8.971692448E0
3.598437505E-1,1.427799430E0,-4.491675528E0,-9.198907492E0,1.033603692E1
3.697707504E-1,1.762209880E0,-3.758887260E0,-5.978538269E0,7.278566955E0
3.796977503E-1,3.411915237E0,-2.715552784E0,-3.126307404E0,5.365555935E0
3.896247502E-1,7.344423287E0,-2.697989502E0,8.381145732E0,1.146574483E1
3.995507499E-1,1.728314506E1,3.034950507E-1,3.569735915E1,3.966233304E1
4.094777498E-1,1.125918796E1,2.623217647E0,1.071950750E1,1.576573580E1
4.194047498E-1,4.311520475E0,-1.005410020E0,9.410379648E0,1.039977419E1
4.293317497E-1,3.282529219E0,-1.081317405E0,8.710114177E0,9.370716856E0
4.392587496E-1,2.583523239E0,-3.071144772E-1,3.012300732E0,3.980309954E0
4.491857504E-1,1.522733070E0,1.953682804E0,5.634318531E-1,2.540285014E0
4.591127504E-1,3.350466263E-1,3.228834237E0,-2.804214992E-1,3.258260731E0
4.690397503E-1,-5.763670635E-1,3.561929648E0,-8.271822826E-1,3.701860659E0
4.789667502E-1,-1.202564099E0,4.272045922E0,-1.132376022E0,4.580263336E0
4.888937501E-1,-1.637654831E0,5.062347404E0,-1.797637575E0,5.616117469E0
4.988207500E-1,-1.810043027E0,5.475445588E0,-2.737309688E0,6.383543254E0
5.087477500E-1,-1.942194779E0,5.566281499E0,-3.299720033E0,6.756016769E0
5.186747499E-1,-2.352416718E0,4.941957911E0,-3.206516585E0,6.343387188E0
5.286017498E-1,-3.052954668E0,3.790183897E0,-3.318373820E0,5.890469505E0
5.385287497E-1,-4.105907230E0,2.697580782E0,-3.754220597E0,6.183008050E0
5.484557496E-1,-5.230405152E0,2.122662658E0,-4.166464796E0,7.015858017E0
5.583827505E-1,-5.958139672E0,2.862402096E0,-4.895384839E0,8.225421985E0
5.683097504E-1,-6.162961789E0,4.026642959E0,-3.630978833E0,8.208529638E0
5.782367503E-1,-6.423225451E0,3.896285718E0,9.326057535E-1,7.570245774E0
5.881637502E-1,-6.587185471E0,3.149845955E0,6.235074331E0,9.601494357E0
5.980907502E-1,-6.555418718E0,2.590993642E0,7.596583292E0,1.036314819E1
6.080177501E-1,-6.584475287E0,2.677246504E0,4.513886177E0,8.420102854E0
6.179447500E-1,-6.461182067E0,9.277139729E-1,3.209974628E0,7.274026672E0
6.278717499E-1,-5.903552991E0,-1.127314526E0,2.735961905E0,6.603655314E0
6.377987498E-1,-4.306584256E0,-2.356301023E0,3.086997743E0,5.798997976E0
6.477257498E-1,-2.422157044E0,-1.656991573E0,-5.273626601E0,6.035197043E0
6.576527497E-1,-7.262417257E-1,6.933335960E-2,-1.694999410E1,1.696568697E1
6.675797496E-1,9.675259101E-1,-2.577443304E0,-4.492200608E0,5.268698765E0
6.775067504E-1,2.933771164E0,-7.740835272E0,1.684222056E0,8.447730339E0
6.874337504E-1,6.221711104E0,-9.935549076E0,-7.974491179E-2,1.172310470E1
6.973597500E-1,1.121646236E1,-9.575003327E0,3.518061497E0,1.516134800E1
7.072867500E-1,1.487623931E1,-7.667859682E0,-1.079250414E0,1.677090783E1
7.172137499E-1,1.597522349E1,-5.048741518E0,-4.523101974E-1,1.676013547E1
7.271407498E-1,1.255017365E1,-4.100810797E0,1.266097605E-1,1.320376984E1
7.370677497E-1,7.993934340E0,-2.868604823E0,1.760149321E0,8.673523246E0
7.469947496E-1,6.612985725E0,-1.425638884E0,3.693499017E0,7.707526284E0
7.569217505E-1,6.072343980E0,-8.257011098E-1,4.547745356E0,7.631325675E0
7.668487504E-1,5.715555067E0,6.306432581E-1,1.244275212E0,5.883324013E0
7.767757503E-1,4.817692592E0,2.189306883E0,-3.483121168E0,6.335247399E0
7.867027503E-1,3.734309074E0,2.430727308E0,-3.110902914E0,5.434263193E0
7.966297502E-1,3.510937250E0,2.157257710E0,-2.013665881E0,4.586424694E0
8.065567501E-1,3.035070082E0,1.109436665E0,-1.090049636E0,3.410382431E0
8.164837500E-1,2.510225175E0,-6.491491109E-1,2.326545128E0,3.483595445E0
8.264107499E-1,1.539069021E0,-4.122607462E0,5.439881068E0,6.996923022E0
8.363377498E-1,-8.657153606E-2,-7.341280409E0,8.480374151E0,1.121689076E1
8.462647498E-1,-7.317211515E-1,-8.254573393E0,9.112285085E0,1.231694513E1
8.561917497E-1,-1.125352786E0,-5.639665809E0,1.076534850E1,1.220512096E1
8.661187496E-1,-2.528481059E0,-3.824926298E0,8.866292138E0,9.981703959E0
8.760457505E-1,-4.303260114E0,-1.819999666E0,5.629931949E0,7.316186175E0
8.859727504E-1,-6.129309309E0,-4.212439406E-1,2.464151162E0,6.619510557E0
8.958997503E-1,-8.592734832E0,-1.368529714E0,1.875830635E0,8.900938492E0
9.058267502E-1,-1.016327474E1,-1.619534894E0,1.512658317E0,1.040207584E1
9.157537501E-1,-8.221005113E0,1.292800670E0,-1.529468624E0,8.461414356E0
9.256807500E-1,-6.333551967E0,2.268651845E0,-5.159038716E0,8.477991637E0
9.356077500E-1,-5.555196347E0,1.362003636E0,-3.939420628E0,6.945091450E0
9.455337496E-1,-5.008123249E0,6.133898789E-1,-3.608032897E0,6.202857971E0
9.554607505E-1,-3.893044314E0,7.181152654E-1,-3.729969563E0,5.439131962E0
9.653877504E-1,-2.984971431E0,5.210091341E-1,-3.176668595E0,4.390071563E0
9.753147503E-1,-2.719731789E0,-3.533758932E-1,-2.539982825E0,3.738091528E0
9.852417503E-1,-2.270770876E0,-7.713687819E-1,-2.222500357E0,3.269696929E0
9.951687502E-1,-1.564765779E0,-5.606930172E-1,-2.119095857E0,2.693220350E0
1.005095750E0,-2.848278147E-1,6.533327937E-2,-1.323480133E0,1.355357880E0
1.015022750E0,9.355258530E-1,1.239804431E0,-2.236207985E0,2.722673282E0
1.024949750E0,1.939406826E0,2.519355310E0,-4.751831601E0,5.717372962E0
1.034876750E0,3.257683230E0,2.934298875E0,-4.487324615E0,6.273650621E0
1.044803750E0,3.253961477E0,2.632942736E0,-3.801367866E0,5.654294863E0
1.054730750E0,2.317809387E0,2.694526196E0,-2.349034104E0,4.260360665E0
1.064657750E0,1.641252038E0,3.702401987E0,-1.910398790E0,4.477846833E0
1.074584750E0,8.293813473E-1,4.661863418E0,-2.631383868E0,5.417104855E0
1.084511750E0,-8.974774361E-1,4.913587806E0,-2.695634243E0,5.675848381E0
1.094438750E0,-2.177413647E0,5.018512582E0,-2.106017389E0,5.861903101E0
1.104365750E0,-2.992687417E0,4.872667236E0,-2.143137853E0,6.106726114E0
1.114292750E0,-3.335854071E0,4.578756942E0,-2.421902982E0,6.161051174E0
1.124219750E0,-3.323338983E0,3.951115644E0,-2.419339855E0,5.701675382E0
1.134146750E0,-3.024569068E0,3.182131941E0,-2.037736529E0,4.840077675E0
1.144073750E0,-2.190976848E0,2.619307029E0,-1.601956117E0,3.771924212E0
1.154000750E0,-1.393228353E0,1.806848693E0,-1.453746742E0,2.705395911E0
1.163927750E0,-7.911978596E-1,1.008364034E0,-1.267085785E0,1.802303655E0
1.173853750E0,-6.539525986E-3,3.043405581E-1,-1.184845281E0,1.223325092E0
1.183780750E0,1.022880916E0,-4.608605808E-1,-1.189790856E0,1.635322636E0
1.193707750E0,2.194080550E0,-1.055375063E0,-1.030205138E0,2.643696013E0
1.203634750E0,3.354752857E0,-1.671116107E0,-1.077346268E0,3.899701368E0
1.213561750E0,4.440797151E0,-2.217928419E0,-1.066867765E0,5.077213078E0
1.223488750E0,5.499629087E0,-2.612752885E0,-3.950981158E-1,6.101516226E0
1.233415750E0,6.323286011E0,-3.338135070E0,6.453308791E-1,7.179383237E0
1.243342750E0,6.776090882E0,-4.101981994E0,1.061419330E0,7.991762942E0
1.253269750E0,6.219293280E0,-4.403419409E0,-1.682963151E-1,7.622206705E0
1.263196750E0,4.865088075E0,-4.172348557E0,-2.139657590E0,6.756900847E0
1.273123750E0,3.631868194E0,-3.553616661E0,-3.919754103E0,6.417408370E0
1.283050750E0,2.994548585E0,-2.534277404E0,-5.334299650E0,6.621528218E0
1.292977750E0,3.494913540E0,-1.133951701E0,-5.997625920E0,7.033618115E0
1.302904750E0,5.155840289E0,-1.010400034E0,-5.489482999E0,7.598553870E0
1.312831750E0,5.951011916E0,-1.805378703E0,-3.613085184E0,7.192240238E0
1.322758750E0,5.862232472E0,-1.326578280E0,-9.261627066E-1,6.081394318E0
1.332685750E0,5.009134233E0,-6.344240677E-1,1.421816267E0,5.245520104E0
1.342612750E0,3.035693103E0,-1.077447717E0,3.547912995E0,4.792078132E0
1.352539750E0,1.393145322E0,-1.486091493E0,5.243042740E0,5.624839463E0
1.362466750E0,2.611044914E-1,-1.848225930E0,7.149872974E0,7.389505950E0
1.372393750E0,-8.740517360E-1,-2.154019521E0,8.336881725E0,8.654904010E0
1.382319750E0,-2.489064394E0,-2.378325731E0,7.625447488E0,8.366559880E0
1.392246750E0,-4.371028758E0,-2.272957150E0,5.188075989E0,7.154604048E0
1.402173750E0,-5.875920804E0,-1.648373362E0,2.542755282E0,6.611292192E0
1.412100750E0,-6.170948501E0,-4.156528330E-1,2.001901867E0,6.500844850E0
1.422027750E0,-5.136227558E0,1.186523432E0,2.478087416E0,5.824911040E0
1.431954750E0,-4.049080480E0,1.508949428E0,3.806740288E0,5.758754443E0
1.441881750E0,-3.432610872E0,1.405266016E0,5.523268211E0,6.653125709E0
1.451808750E0,-2.656422231E0,1.501319981E0,6.665994828E0,7.331168243E0
1.461735750E0,-2.201266778E0,1.173282997E0,7.234902599E0,7.652841566E0
1.471662750E0,-1.942236294E0,9.221643806E-1,7.484628993E0,7.787319188E0
1.481589750E0,-1.760520034E0,8.964582664E-1,7.430607153E0,7.688757433E0
1.491517125E0,-1.831011143E0,1.151651807E0,6.742967575E0,7.081420437E0
1.501444125E0,-1.987500175E0,1.532658718E0,5.167369244E0,5.744641381E0
1.511371125E0,-2.130413727E0,1.907907876E0,3.007109282E0,4.149877268E0
1.521298125E0,-2.108546310E0,2.451752726E0,1.157224789E0,3.434563754E0
1.531225125E0,-1.784774870E0,3.165116544E0,-5.143836540E-1,3.669873924E0
1.541152125E0,-2.106189297E0,3.438138830E0,-2.701110746E0,4.853125924E0
1.551079125E0,-2.424679533E0,3.387742263E0,-4.039036717E0,5.802558581E0
1.561006125E0,-2.513275375E0,2.968584024E0,-5.087934819E0,6.404383260E0
1.570933125E0,-2.693909900E0,2.287279320E0,-5.342403306E0,6.405471904E0
1.580859125E0,-2.681913167E0,1.912373394E0,-5.326601790E0,6.262788266E0
1.590786125E0,-2.700910186E0,1.434234291E0,-5.080742159E0,5.930083029E0
1.600713125E0,-2.555280603E0,9.633077288E-1,-4.784741485E0,5.509189761E0
1.610640125E0,-1.957318017E0,6.906760365E-1,-4.713703077E0,5.150448904E0
1.620567125E0,-1.665405716E0,3.438133568E-1,-4.355354712E0,4.675563976E0
1.630494125E0,-1.506978332E0,1.268185061E-1,-3.948306642E0,4.228024593E0
1.640421125E0,-1.415119743E0,3.728453672E-1,-3.257677968E0,3.571280344E0
1.650348125E0,-1.861722474E0,-5.509351838E-1,-2.472224413E0,3.143474780E0
1.660275125E0,-1.598486087E0,-2.149073946E-1,-1.652966934E0,2.309468044E0
1.670202125E0,-1.044085259E0,4.716481090E-1,-1.725443757E0,2.071164437E0
1.680129125E0,-4.928857809E-1,8.027402633E-1,-1.457792138E0,1.735651533E0
1.690056125E0,1.130547452E-1,9.201529384E-1,-8.846965921E-1,1.281464344E0
1.699983125E0,7.940229419E-1,9.889752513E-1,-8.032513100E-1,1.501251860E0
1.709910125E0,1.463785242E0,6.883675557E-1,-9.949300557E-1,1.899053170E0
1.719837125E0,2.153251197E0,-9.751986265E-3,-1.224949579E0,2.477314532E0
1.729764125E0,2.863662756E0,-4.616534632E-1,-1.664627452E0,3.344349392E0
1.739691125E0,3.287563964E0,-1.010375476E0,-2.066679077E0,4.012492719E0
1.749618125E0,3.949491580E0,-1.699496738E0,-2.414909420E0,4.931385242E0
1.759545125E0,4.586672610E0,-1.877308227E0,-2.582553771E0,5.588509263E0
1.769471125E0,4.961575320E0,-1.925479928E0,-2.460277089E0,5.863247049E0
1.779398125E0,5.111140079E0,-2.055522589E0,-1.762315130E0,5.784002130E0
1.789325125E0,4.909194208E0,-2.033726508E0,-3.246856526E-1,5.323687824E0
1.799252125E0,4.229260676E0,-2.343194489E0,8.849304807E-1,4.915313646E0
1.809179125E0,3.871153800E0,-2.219541666E0,1.655994038E0,4.759675746E0
1.819106125E0,3.583583642E0,-1.683639089E0,1.990939507E0,4.431766287E0
1.829033125E0,3.238842332E0,-9.827900666E-1,1.657745864E0,3.768832354E0
1.838960125E0,3.498294400E0,-4.404590607E-2,1.347753679E0,3.749192411E0
1.848887125E0,3.577898979E0,-1.941679054E-1,2.277528504E-1,3.590394635E0
1.858814125E0,3.459256634E0,-4.107990593E-1,5.240912014E-1,3.522766514E0
1.868741125E0,2.350828614E0,-3.669092739E-1,2.387032235E-1,2.391233326E0
1.878668125E0,1.290499790E0,5.564268887E-2,9.526342213E-2,1.295206909E0
1.888595125E0,5.447119921E-1,-1.280008131E-1,-5.008739546E-1,7.509794145E-1
1.898522125E0,-4.551800108E-1,-1.384738780E0,-7.967044750E-1,1.661152718E0
1.908449125E0,-8.873214072E-1,-1.993400016E0,-5.677696100E-1,2.254627515E0
1.918376125E0,-1.071086531E0,-1.792284449E0,2.050571752E-1,2.097989120E0
1.928303125E0,-1.794019318E0,-2.108493685E0,1.680302375E0,3.238466768E0
1.938230125E0,-2.276849642E0,-2.717242044E0,4.001475958E0,5.345957207E0
1.948156125E0,-2.613596054E0,-3.281835739E0,5.770403704E0,7.134345734E0
1.958083125E0,-3.674443526E0,-3.670144653E0,7.159231442E0,8.844551534E0
1.968010125E0,-4.379334728E0,-4.284550778E0,8.391131022E0,1.038975591E1
1.977937125E0,-4.545303851E0,-4.731306705E0,8.442497642E0,1.069209131E1
1.987864125E0,-4.232393029E0,-4.627115169E0,7.436015242E0,9.727161365E0
1.997791125E0,-3.465811363E0,-3.874370939E0,5.569069451E0,7.618210625E0
2.007718125E0,-3.187559912E0,-3.090765688E0,3.528856627E0,5.671525352E0
2.017645125E0,-3.085357599E0,-2.214044698E0,1.485880408E0,4.077899708E0
2.027572125E0,-2.500231406E0,-1.281649445E0,-7.300465089E-1,2.902886544E0
2.037499125E0,-1.585102980E0,-2.569208086E-1,-2.206660835E0,2.729086257E0
2.047426125E0,-1.067361855E0,5.320527703E-1,-2.603880028E0,2.864006403E0
2.057353125E0,-4.984669483E-1,9.876339000E-1,-2.676888362E0,2.896484304E0
2.067280125E0,-6.998473942E-2,1.335971832E0,-3.082235770E0,3.360044039E0
2.077207125E0,3.050375462E-1,1.633238429E0,-3.526226257E0,3.898049164E0
2.087134125E0,8.691903609E-1,1.911240204E0,-3.505436189E0,4.086124555E0
2.097061125E0,1.371611781E0,2.214925874E0,-3.639836487E0,4.476117197E0
2.106988125E0,9.303838116E-1,2.655506557E0,-3.018199111E0,4.126360985E0
2.116915125E0,8.776407570E-1,2.768319812E0,-2.385858114E0,3.758479323E0
2.126841125E0,9.830841815E-1,2.446964441E0,-2.772352636E0,3.826229034E0
2.136768125E0,9.565343142E-2,2.380924818E0,-2.624709272E0,3.545003714E0
2.146695125E0,-1.179531332E0,2.375081695E0,-2.237013146E0,3.469370986E0
2.156622125E0,-2.160052679E0,2.811217909E0,-2.872882061E0,4.563137632E0
2.166549125E0,-2.863608962E0,3.236471871E0,-3.330886277E0,5.456171721E0
2.176476125E0,-3.378095527E0,3.514116381E0,-3.465343001E0,5.980731179E0
2.186403125E0,-3.801089539E0,3.615887754E0,-3.850962780E0,6.507905982E0
2.196330125E0,-3.835499234E0,3.675051051E0,-3.859127247E0,6.565814322E0
2.206257125E0,-3.301746093E0,3.478083499E0,-3.737757177E0,6.080248416E0
2.216184125E0,-2.383269551E0,2.864982473E0,-3.307355912E0,4.982640008E0
2.226111125E0,-1.170831844E0,1.947422190E0,-2.605087186E0,3.456845330E0
2.236038125E0,3.505908644E-1,9.981998187E-1,-1.746116003E0,2.041626295E0
2.245965125E0,2.224994779E0,5.639697969E-2,-8.386819285E-1,2.378480558E0
2.255892125E0,4.585375405E0,-4.341499150E-1,1.010188365E-1,4.606990184E0
2.265819125E0,6.243280313E0,-1.045848779E0,8.764841777E-1,6.390662974E0
2.275746125E0,7.375213555E0,-1.640689536E0,1.682050985E0,7.740473671E0
2.285672125E0,6.903176606E0,-2.369652556E0,3.244560909E0,7.987257100E0
2.295599125E0,4.124165161E0,-2.891041759E0,2.638688795E0,5.685907076E0
2.305526125E0,1.916641277E0,-2.701483798E0,6.659089851E-1,3.378603746E0
2.315453125E0,1.174593943E0,-2.820178183E0,-8.392532015E-1,3.168189049E0
2.325380125E0,7.119587320E-1,-2.659991956E0,-2.086514586E0,3.454849571E0
2.335307125E0,7.136766440E-1,-1.920839578E0,-3.042549548E0,3.668251189E0
2.345234125E0,1.031103271E0,-1.715018172E0,-3.682398078E0,4.191004282E0
2.355161125E0,1.755531190E0,-1.939355956E0,-3.741327487E0,4.565142128E0
2.365088125E0,2.599954500E0,-2.173619388E0,-3.174972610E0,4.643795401E0
2.375015125E0,3.643097187E0,-3.033655348E0,-4.202849972E-1,4.759397164E0
2.384942125E0,3.133888904E0,-4.443773383E0,1.657469290E0,5.684679938E0
2.394869125E0,3.958221765E0,-5.411347826E0,3.364389653E0,7.501288061E0
2.404796125E0,5.795507555E0,-5.987859900E0,4.874203885E0,9.654027010E0
2.414723125E0,2.389168223E0,-5.925395849E0,6.605002522E0,9.189368808E0
2.424650125E0,-9.834034395E-1,-4.462654043E0,7.077455208E0,8.424531776E0
2.434577125E0,-3.230477305E0,-3.389749612E0,6.435989338E0,7.959167344E0
2.444504125E0,-5.855122257E0,-1.458787919E0,2.866429659E0,6.680339649E0
2.454430125E0,-6.257768544E0,8.013158816E-1,-1.738846160E0,6.544108821E0
2.464357125E0,-6.376517892E0,1.733511161E0,-3.415079166E0,7.438266403E0
2.474284125E0,-6.956522509E0,1.678511665E0,-2.605052102E0,7.615569794E0
2.484211125E0,-6.757085677E0,1.600367721E0,-5.508404589E-1,6.965831530E0
2.494138000E0,-5.923991933E0,1.644608924E0,1.747564943E0,6.391588392E0
2.504065000E0,-4.920147797E0,1.350103968E0,3.850137738E0,6.391728692E0
2.513992000E0,-4.091493551E0,7.615179777E-1,5.605571864E0,6.981594734E0
2.523919000E0,-3.300947363E0,8.807836354E-2,7.585164265E0,8.272770287E0
2.533846000E0,-2.470422885E0,-8.306583792E-1,9.100838576E0,9.466691363E0
2.543773000E0,-2.324754710E0,-1.528510119E0,9.229022992E0,9.639278657E0
2.553700000E0,-2.461436884E0,-1.616573864E0,7.545848756E0,8.100112101E0
2.563627000E0,-2.314054890E0,-1.125044637E0,5.876961023E0,6.415547236E0
2.573554000E0,-1.852926507E0,-1.952361917E-1,4.578776822E0,4.943344111E0
2.583481000E0,-1.336806230E0,9.087590539E-1,3.246230873E0,3.626418178E0
2.593408000E0,-9.446861011E-1,1.932279655E0,1.880474494E0,2.856977567E0
2.603334000E0,-9.029323035E-1,2.606388776E0,3.821570581E-1,2.784707024E0
2.613261000E0,-9.999738640E-1,3.034204402E0,-1.255463859E0,3.432569531E0
2.623188000E0,-9.592392361E-1,3.400206188E0,-2.687309563E0,4.438825826E0
2.633115000E0,-7.993827921E-1,3.671089563E0,-3.783498191E0,5.332051199E0
2.643042000E0,-5.134071690E-1,3.927320400E0,-4.301472035E0,5.847229610E0
2.652969000E0,-2.488411260E-1,4.130809937E0,-3.975907838E0,5.738759080E0
2.662896000E0,-1.626631075E-1,4.154139158E0,-3.825146738E0,5.649343236E0
2.672823000E0,-1.338328260E-1,4.255963740E0,-3.850035996E0,5.740550127E0
2.682750000E0,-1.791332522E-1,4.129754514E0,-3.541719332E0,5.443412247E0
2.692677000E0,-2.466677159E-1,3.933815487E0,-3.213618028E0,5.085576671E0
2.702604000E0,-1.563712111E-1,3.586449362E0,-3.088117484E0,4.735350101E0
2.712531000E0,-2.538548210E-1,3.174827600E0,-3.306432052E0,4.590911181E0
2.722458000E0,-4.422474316E-1,3.106314604E0,-3.300546244E0,4.553941010E0
2.732385000E0,-6.801156726E-1,2.951088570E0,-3.195680525E0,4.402709972E0
2.742312000E0,-1.008425722E0,2.624466612E0,-3.129527466E0,4.206981055E0
2.752239000E0,-1.259259871E0,2.165811601E0,-2.774164689E0,3.737976061E0
2.762165000E0,-1.342539717E0,1.562621605E0,-2.165310495E0,2.988773781E0
2.772092000E0,-1.232397763E0,8.821565616E-1,-1.464670218E0,2.107667738E0
2.782019001E0,-9.900359362E-1,2.437511247E-1,-8.200731647E-1,1.308474593E0
2.791946000E0,-7.718388981E-1,-3.314763165E-1,-3.377954024E-1,9.053825527E-1
2.801873000E0,-5.637291840E-1,-8.458868676E-1,-2.313041568E-2,1.016784245E0
2.811800000E0,-2.598987955E-1,-1.272659351E0,2.238735151E-1,1.318077599E0
2.821727000E0,6.736664861E-2,-1.683961270E0,2.685497510E-1,1.706570477E0
2.831654000E0,5.509214428E-1,-2.086718654E0,1.607282639E-2,2.158278831E0
2.841581000E0,1.373264204E0,-2.372531140E0,-7.937910998E-1,2.853920618E0
2.851508000E0,1.970128098E0,-2.487646444E0,-1.158750912E0,3.378238184E0
2.861435000E0,2.839890024E0,-2.517238033E0,-1.444627717E0,4.060592556E0
2.871362000E0,3.718378627E0,-2.619904030E0,-1.801689695E0,4.892476111E0
2.881289000E0,4.404334791E0,-2.689454906E0,-1.761600600E0,5.452941345E0
2.891216000E0,4.934454764E0,-2.857139018E0,-1.230619040E0,5.833224700E0
2.901143000E0,5.425618540E0,-2.981615129E0,-1.161065240E0,6.298844165E0
2.911069000E0,4.956046193E0,-3.021690776E0,-4.305328274E-1,5.820512651E0
2.920996000E0,4.260404993E0,-2.893612195E0,3.430005938E-1,5.161559032E0
2.930923000E0,3.900428470E0,-2.382462051E0,6.430101192E-1,4.615509689E0
2.940850000E0,3.861283993E0,-1.506760815E0,8.904695481E-1,4.239431359E0
2.950777000E0,3.734786791E0,-8.866513163E-1,9.937038946E-1,3.965126778E0
2.960704000E0,3.254298569E0,-8.301473325E-1,9.442861515E-1,3.488736176E0
2.970631000E0,2.518709192E0,-7.637492752E-1,1.355158301E0,2.960348454E0
2.980558001E0,1.960172921E0,-7.900050277E-1,1.505746908E0,2.594929589E0
2.990485000E0,1.974576367E0,-1.123263575E0,1.473556817E0,2.707774470E0
3.000412000E0,2.044482461E0,-1.781962359E0,1.688209857E0,3.194581491E0
3.010339000E0,1.674841368E0,-2.473095063E0,1.856784500E0,3.516950594E0
3.020266000E0,1.215573277E0,-2.712612219E0,2.132881252E0,3.658560629E0
3.030193000E0,5.886500171E-1,-2.668230098E0,2.385981490E0,3.627515454E0
3.040120000E0,-3.686844885E-2,-2.030574274E0,3.379501490E0,3.942793614E0
3.050047000E0,-4.663502392E-1,-8.653195041E-1,4.540624032E0,4.645807464E0
3.059973000E0,-1.446837672E0,-5.043638653E-1,5.557604231E0,5.764953334E0
3.069900000E0,-2.015022435E0,-4.101529419E-2,5.568699322E0,5.922196367E0
3.079827000E0,-2.063449075E0,4.911573440E-1,4.099420329E0,4.615658637E0
3.089754000E0,-2.007653189E0,9.960936517E-1,3.315928515E0,4.002281325E0
3.099681000E0,-2.174381573E0,7.516730207E-1,2.228420663E0,3.202937122E0
3.109608000E0,-2.502245187E0,-2.372887820E-1,6.014413860E-1,2.584428115E0
3.119535000E0,-2.575592076E0,-1.174512666E0,-4.844956112E-1,2.871914090E0
3.129462000E0,-2.480653466E0,-1.628422662E0,-1.080979435E0,3.158151125E0
3.139389000E0,-2.088234837E0,-1.673820444E0,-1.609332088E0,3.122875179E0
3.149316000E0,-1.429857650E0,-1.049430783E0,-1.212683583E0,2.148580774E0
3.159243000E0,-1.267929830E0,-1.429515588E-1,-1.606948470E0,2.051917296E0
3.169170000E0,-1.207129897E0,6.704633814E-1,-1.645949106E0,2.148448788E0
3.179097000E0,-1.033597108E0,1.378965824E0,-1.495171049E0,2.281535928E0
3.189024000E0,-7.825077277E-1,1.823078810E0,-1.603778987E0,2.551086382E0
3.198951000E0,-5.310359395E-1,1.978970842E0,-2.114050002E0,2.944067284E0
3.208877000E0,-9.955352426E-2,2.078011565E0,-2.373136911E0,3.155918530E0
3.218804000E0,1.782494456E-1,2.437595447E0,-2.364229848E0,3.400474556E0
3.228731000E0,4.043583512E-2,2.798832337E0,-2.242616533E0,3.586701329E0
3.238658000E0,-4.440942746E-1,2.937993731E0,-2.079418405E0,3.626707569E0
3.248585000E0,-8.383767039E-1,2.970839880E0,-1.964325905E0,3.658871596E0
3.258512000E0,-1.054517861E0,3.044468020E0,-1.910236822E0,3.745637216E0
3.268439000E0,-1.597774481E0,3.212379003E0,-2.469962125E0,4.355797866E0
3.278366000E0,-2.048258593E0,3.223068883E0,-3.061910849E0,4.894776229E0
3.288293000E0,-2.474819992E0,3.291801733E0,-3.315377122E0,5.287004644E0
3.298220000E0,-2.655520005E0,3.300826326E0,-3.111098796E0,5.256060944E0
3.308147000E0,-2.704883954E0,3.122976830E0,-2.397328597E0,4.776668911E0
3.318074000E0,-2.876658193E0,2.796546661E0,-2.012833237E0,4.488578085E0
3.328001000E0,-3.000545782E0,2.440578697E0,-2.253707532E0,4.476482660E0
3.337928000E0,-3.190765940E0,1.918327614E0,-2.318585898E0,4.385978646E0
3.347855000E0,-3.126328746E0,1.397623705E0,-2.191869718E0,4.065904120E0
3.357782000E0,-2.658379586E0,9.107950544E-1,-2.197214073E0,3.567110783E0
3.367708000E0,-1.880237682E0,4.281571037E-1,-2.038525318E0,2.806100090E0
3.377635000E0,-5.764480475E-1,-6.894451976E-3,-1.825305430E0,1.914178622E0
3.387562000E0,9.694385344E-1,-6.124882382E-1,-1.610322606E0,1.976889428E0
3.397489000E0,2.698359631E0,-1.424453654E0,-1.213428226E0,3.283690145E0
3.407416000E0,4.621990669E0,-2.275833980E0,-8.730191177E-1,5.225359359E0
3.417343000E0,6.208005815E0,-3.032467779E0,-7.618419135E-1,6.950942392E0
3.427270000E0,7.106602993E0,-3.559501299E0,-5.292314887E-1,7.965798238E0
3.437197000E0,7.248714892E0,-3.620247438E0,2.373384833E-3,8.102472754E0
3.447124000E0,6.607757145E0,-3.255057245E0,8.115642965E-1,7.410566022E0
3.457051000E0,5.531323335E0,-2.603098547E0,1.094690571E0,6.210475612E0
3.466978000E0,5.668280329E0,-2.310215608E0,9.370174778E-1,6.192293581E0
3.476905000E0,6.970524251E0,-2.480795261E0,1.745082216E0,7.601833029E0
3.486832000E0,7.603648483E0,-3.261280437E0,2.485853103E0,8.638916946E0
3.496759000E0,6.985084988E0,-4.109410881E0,1.136765966E0,8.183575437E0
3.506686000E0,5.660869567E0,-4.289138503E0,4.337885571E-1,7.115498990E0
3.516612000E0,2.996285793E0,-3.814363888E0,9.337751967E-1,4.939538090E0
3.526539000E0,-1.663493092E0,-3.085423672E0,1.322015698E0,3.746301377E0
3.536466000E0,-4.704864134E0,-2.369128645E0,9.184847277E-1,5.347161046E0
3.546393000E0,-4.887822635E0,-1.815606068E0,1.669282420E0,5.474827787E0
3.556320000E0,-4.593971689E0,-1.639363972E0,3.128704762E0,5.794901518E0
3.566247000E0,-5.295269485E0,-2.476704549E0,4.419488727E0,7.328425817E0
3.576174000E0,-5.885120813E0,-3.243402575E0,5.431856934E0,8.640565780E0
3.586101000E0,-5.821479133E0,-2.957778955E0,5.148710779E0,8.315485453E0
3.596028000E0,-5.417556399E0,-1.931241190E0,4.168661302E0,7.103333508E0
3.605955000E0,-5.222342427E0,-1.456109895E0,4.137220824E0,6.819802973E0
3.615882000E0,-4.872672499E0,-9.750787586E-1,4.003417819E0,6.381306300E0
3.625809000E0,-4.482212394E0,-4.702921396E-1,3.407077836E0,5.649741766E0
3.635736000E0,-4.192722595E0,-4.071416259E-2,3.214024994E0,5.283042406E0
3.645663000E0,-3.620546231E0,4.231062788E-1,3.047954130E0,4.751567984E0
3.655590000E0,-2.864962007E0,8.977089858E-1,2.719730034E0,4.051027053E0
3.665516000E0,-2.365230891E0,1.351833574E0,2.596570131E0,3.763502043E0
3.675443000E0,-2.002946180E0,1.867972562E0,2.744671333E0,3.877413522E0
3.685370000E0,-1.627213458E0,2.468441264E0,2.827412358E0,4.090878457E0
3.695297000E0,-1.325505316E0,3.037827922E0,2.456209474E0,4.125327599E0
3.705224000E0,-1.102839251E0,3.476715251E0,1.797140561E0,4.066142834E0
3.715151000E0,-9.700858212E-1,3.811491151E0,1.068214671E0,4.075489403E0
3.725078000E0,-9.137449747E-1,4.081831319E0,3.523423979E-1,4.197668634E0
3.735005000E0,-8.781652522E-1,4.264726378E0,-6.520966923E-1,4.402759973E0
3.744932000E0,-8.871945226E-1,4.323779747E0,-1.757889372E0,4.751037831E0
3.754859000E0,-8.832137382E-1,4.383030168E0,-2.528866391E0,5.136748503E0
3.764786000E0,-9.280151045E-1,4.370593725E0,-3.426537954E0,5.630671709E0
3.774713000E0,-9.656173790E-1,4.308165343E0,-4.622580653E0,6.392257617E0
3.784640000E0,-1.031950532E0,4.102827501E0,-5.322155567E0,6.798783368E0
3.794567000E0,-1.079818763E0,3.705204558E0,-5.449356481E0,6.677577063E0
3.804493000E0,-1.072125582E0,3.273055560E0,-5.066455073E0,6.126280516E0
3.814420000E0,-9.827286708E-1,2.522111102E0,-4.380797117E0,5.149580899E0
3.824347000E0,-9.536925673E-1,1.740693880E0,-3.998512005E0,4.464038861E0
3.834274000E0,-8.147627234E-1,1.268758673E0,-3.720279849E0,4.014233304E0
3.844201000E0,-4.629708409E-1,1.067806243E0,-3.142159790E0,3.350779062E0
3.854128000E0,-3.096141618E-1,8.517849541E-1,-2.436155278E0,2.599278953E0
3.864055000E0,-4.067609721E-1,5.494798118E-1,-1.617747400E0,1.756271392E0
3.873982000E0,-5.407908493E-1,2.304896396E-1,-7.018775475E-1,9.155393538E-1
3.883909000E0,-4.637491053E-1,-6.442345262E-2,1.707667637E-1,4.983722520E-1
3.893836000E0,-3.189545041E-1,-4.964262700E-1,7.266638947E-1,9.360616609E-1
3.903763000E0,6.387790740E-2,-1.059865724E0,1.123813214E0,1.546076285E0
3.913690000E0,6.551822680E-1,-1.592213779E0,1.181619372E0,2.088212840E0
3.923617000E0,1.134292594E0,-2.236408544E0,7.736626446E-1,2.624251656E0
3.933544000E0,1.536671662E0,-2.935854235E0,9.711055756E-3,3.313713052E0
3.943470000E0,2.016985345E0,-3.308244689E0,-9.366572893E-1,3.986231262E0
3.953397000E0,2.367237656E0,-3.461065763E0,-1.621058679E0,4.495622490E0
3.963324000E0,2.718090475E0,-3.413215658E0,-1.753007532E0,4.702243333E0
3.973251000E0,2.898679976E0,-3.337307104E0,-1.433518592E0,4.647035600E0
3.983178000E0,2.812917695E0,-3.361621581E0,-1.242261723E0,4.555899451E0
3.993105000E0,2.202811612E0,-3.523169625E0,-1.467505533E0,4.406662648E0
4.003032000E0,1.478778380E0,-3.644763644E0,-1.344889421E0,4.156899695E0
4.012959000E0,9.939336902E-1,-3.651500221E0,-1.227573225E0,3.978478863E0
4.022886000E0,5.810793346E-1,-3.744204901E0,-1.821652089E0,4.204181237E0
4.032813000E0,7.082527667E-1,-3.539365827E0,-2.047812743E0,4.149972225E0
4.042740000E0,1.295743573E0,-3.079222115E0,-1.941235836E0,3.863800825E0
4.052667000E0,2.023458213E0,-2.521334592E0,-1.465874160E0,3.549689890E0
4.062594000E0,2.688949122E0,-2.040130379E0,-7.947941896E-1,3.467603949E0
4.072521000E0,2.970016592E0,-1.352269192E0,-3.255823231E-1,3.279578384E0
4.082447000E0,2.924867901E0,-2.244208145E-1,-5.924726343E-1,2.992697907E0
4.092374000E0,2.825277539E0,8.131155628E-1,-7.326034963E-1,3.029861049E0
4.102301000E0,1.916385169E0,1.383416140E0,-1.413459134E-1,2.367773427E0
4.112228000E0,8.789727527E-1,1.726209742E0,1.652298305E0,2.546072046E0
4.122155000E0,5.700047082E-1,1.676738790E0,3.584230344E0,3.997882626E0
4.132082000E0,4.357315868E-1,1.599194185E0,4.958800231E0,5.228478152E0
4.142009000E0,2.532353085E-1,1.777680443E0,6.519509797E0,6.762269136E0
4.151936000E0,-3.530063492E-1,1.895957336E0,7.993942527E0,8.223283093E0
4.161863000E0,-9.084117293E-1,2.269811348E0,8.405151476E0,8.753503685E0
4.171790000E0,-8.105340171E-1,2.500151884E0,8.529110693E0,8.924878378E0
4.181717000E0,-1.037500709E-1,2.516217109E0,7.463160356E0,7.876603019E0
4.191644000E0,3.949402410E-1,2.592933748E0,5.560383412E0,6.147938427E0
4.201571000E0,7.852594274E-1,2.687079182E0,3.467583069E0,4.456586052E0
4.211497000E0,1.183536090E0,2.628776595E0,1.272076383E0,3.151095426E0
4.221424000E0,1.390310592E0,2.393595150E0,-1.011199349E0,2.946995997E0
4.231351000E0,1.146727867E0,1.558015169E0,-2.223247631E0,2.947070766E0
4.241278000E0,2.703448462E-1,3.074044991E-1,-1.704280930E0,1.752757071E0
4.251205000E0,-1.416873908E-1,-4.196996909E-1,-9.461350411E-1,1.044698360E0
4.261132000E0,-3.846608359E-1,-8.407799095E-1,-4.009014773E-1,1.007768232E0
4.271059000E0,-1.134341710E0,-9.739116544E-1,4.305421829E-2,1.495690039E0
4.280986000E0,-1.740068813E0,-1.090193478E0,-5.109028065E-1,2.115982743E0
4.290913000E0,-1.806589662E0,-1.176683153E0,-1.428848129E0,2.586495007E0
4.300840000E0,-2.003503420E0,-1.075191861E0,-1.642738985E0,2.805112273E0
4.310767000E0,-2.032133726E0,-8.204292601E-1,-1.827607771E0,2.853563004E0
4.320694000E0,-1.856675742E0,-5.463451195E-1,-2.146155016E0,2.889934109E0
4.330621000E0,-1.571401200E0,-3.549382693E-1,-2.396622838E0,2.887747207E0
4.340547000E0,-1.188744205E0,-6.733127296E-2,-2.543099098E0,2.808024093E0
4.350474000E0,-6.333780009E-1,3.558416641E-1,-2.227204150E0,2.342697015E0
4.360401000E0,-2.172538823E-1,5.375058836E-1,-1.867656228E0,1.955569383E0
4.370328000E0,1.737669700E-1,7.836865264E-1,-1.047445654E0,1.319659778E0
4.380255000E0,3.178119582E-1,1.111152822E0,-6.237903214E-1,1.313308570E0
4.390182000E0,-1.220781684E-1,1.590697011E0,-1.238068977E0,2.019414483E0
4.400109001E0,-1.044626711E0,1.892860651E0,-2.005216069E0,2.948738356E0
4.410036000E0,-2.035659013E0,2.216091224E0,-2.639720244E0,4.002885321E0
4.419963000E0,-2.715801875E0,2.631089169E0,-2.891317163E0,4.760034136E0
4.429890000E0,-2.770173964E0,2.818886533E0,-2.717425647E0,4.796288901E0
4.439817000E0,-2.174541202E0,2.565917857E0,-2.234774832E0,4.038165727E0
4.449744000E0,-1.427532213E0,2.203434341E0,-1.548190677E0,3.047928064E0
4.459671000E0,-7.458895397E-1,1.892815043E0,-1.061200644E0,2.294612559E0
4.469597000E0,-2.745443165E-2,1.569506702E0,-7.851372206E-1,1.755148281E0
4.479524000E0,8.729194227E-1,1.119332492E0,-7.888472790E-1,1.623937676E0
4.489451000E0,1.953366469E0,6.975570399E-1,-1.098759649E0,2.347232232E0
4.499379000E0,2.888102948E0,2.024352837E-1,-1.534968953E0,3.276926665E0
4.509306000E0,3.756539603E0,-2.118615800E-1,-1.815630627E0,4.177677547E0
4.519233000E0,4.661067319E0,-4.911760551E-1,-2.114115198E0,5.141622851E0
4.529160000E0,5.564592823E0,-5.448833156E-1,-2.257976584E0,6.029929466E0
4.539087000E0,6.243610096E0,-4.767094588E-1,-2.372047575E0,6.696008411E0
4.549014000E0,6.377656345E0,-5.121125954E-1,-2.521784828E0,6.877220259E0
4.558941000E0,6.245073069E0,-5.639639497E-1,-2.387805237E0,6.709739699E0
4.568868000E0,5.963427309E0,-7.667494816E-1,-1.989592894E0,6.333154816E0
4.578795000E0,5.813406467E0,-9.524202132E-1,-1.556555704E0,6.093083347E0
4.588721000E0,5.471851889E0,-1.203573328E0,-9.894167161E-1,5.689349462E0
4.598648000E0,4.867359719E0,-1.140042745E0,-8.781412786E-1,5.075630030E0
4.608575000E0,5.479657338E0,-3.083856618E-1,4.302162006E-1,5.505164142E0
4.618502000E0,5.531201128E0,-8.993719339E-2,4.076872296E0,6.871911112E0
4.628429000E0,4.704590192E0,-4.376892346E-1,8.227125394E0,9.487377561E0
4.638356000E0,3.093420324E0,-3.169676203E-1,9.766032447E0,1.024915155E1
4.648283000E0,-1.285595146E0,-4.508290976E-1,7.676954441E0,7.796898822E0
4.658210000E0,-4.872248576E0,-1.417948626E0,4.884202623E0,7.043068916E0
4.668137000E0,-7.078542205E0,-2.208295131E0,1.860134954E0,7.644764822E0
4.678064000E0,-8.488612878E0,-2.400479661E0,-2.417040145E-1,8.824810028E0
4.687991000E0,-9.083788095E0,-2.718963464E0,-1.609621525E-2,9.481994915E0
4.697918000E0,-8.445721212E0,-2.625700960E0,1.517631959E0,8.973723814E0
4.707844000E0,-6.441898534E0,-1.303639069E0,3.062192684E0,7.250831372E0
4.717771000E0,-4.944851698E0,-6.426177710E-1,4.605298038E0,6.787730544E0
4.727698000E0,-3.941463060E0,-3.210501462E-1,6.169386710E0,7.327996768E0
4.737625000E0,-2.909013176E0,-2.167896134E-1,6.899891056E0,7.491184951E0
4.747552000E0,-2.014045365E0,-2.649496204E-1,7.398455653E0,7.672269747E0
4.757479000E0,-1.411099198E0,-1.048358989E-1,6.819967219E0,6.965209572E0
4.767406000E0,-1.218321176E0,4.031795526E-1,5.506745149E0,5.654299459E0
4.777333000E0,-1.306025902E0,9.969660562E-1,3.818787891E0,4.157257020E0
4.787260000E0,-1.511349126E0,1.529421700E0,1.854541508E0,2.839477262E0
4.797187000E0,-1.677133477E0,2.126675602E0,2.688315868E-2,2.708551000E0
4.807114000E0,-1.635103691E0,2.626676275E0,-1.553592627E0,3.462173073E0
4.817041000E0,-1.405881143E0,3.042325600E0,-2.834946495E0,4.389666100E0
4.826967000E0,-1.010964875E0,3.508802431E0,-3.897265127E0,5.340638534E0
4.836894000E0,-4.669218045E-1,3.951826081E0,-4.857527918E0,6.279372804E0
4.846821000E0,-4.900843799E-3,4.203706589E0,-5.279288460E0,6.748485738E0
4.856748000E0,2.039517590E-1,4.324866745E0,-5.407107425E0,6.926967546E0
4.866675000E0,3.456008506E-1,4.415768144E0,-5.340142772E0,6.937980475E0
4.876602000E0,2.609296596E-1,4.314087988E0,-4.857874073E0,6.502182707E0
4.886529000E0,-2.653735435E-1,4.041641067E0,-4.216521932E0,5.846737794E0
4.896456000E0,-7.897518432E-1,3.678616099E0,-3.150632406E0,4.907383104E0
4.906383000E0,-1.013107003E0,2.822213598E0,-2.423762105E0,3.855632002E0
4.916310000E0,-1.324976143E0,2.059539626E0,-2.266335471E0,3.336696228E0
4.926237000E0,-1.435663058E0,1.430632991E0,-2.359730415E0,3.110653759E0
4.936164000E0,-1.349014339E0,8.748323393E-1,-2.325949881E0,2.827580973E0
4.946090000E0,-1.080132759E0,3.490068537E-1,-1.988117056E0,2.289345319E0
4.956017000E0,-6.432375759E-1,4.563167095E-3,-1.416939397E0,1.556114602E0
4.965944000E0,-1.052253234E-1,-2.684398234E-1,-7.671476769E-1,8.195412532E-1
4.975871000E0,5.630465215E-1,-6.902509439E-1,-1.394935155E-1,9.016241966E-1
4.985798000E0,1.219870103E0,-1.195587786E0,1.259086794E-1,1.712707277E0
4.995725000E0,1.772560036E0,-1.822286512E0,-7.951336205E-2,2.543426741E0
5.005652000E0,2.230298496E0,-2.555967650E0,-6.273746645E-1,3.449753757E0
5.015579000E0,2.855369942E0,-2.915245138E0,-1.618014033E0,4.389733607E0
5.025506000E0,3.443291396E0,-2.935946036E0,-2.400856222E0,5.122513579E0
5.035433000E0,4.067252457E0,-2.638077761E0,-2.668451707E0,5.533771890E0
5.045360000E0,4.384445487E0,-2.183961359E0,-2.365906245E0,5.439720747E0
5.055287000E0,4.184421303E0,-1.721911454E0,-1.779259776E0,4.862111274E0
5.065213000E0,3.542486779E0,-1.356423054E0,-1.416850519E0,4.049266782E0
5.075140000E0,2.984628199E0,-1.173592899E0,-1.353911675E0,3.481149610E0
5.085067000E0,2.737727180E0,-1.116856197E0,-1.257633761E0,3.213123177E0
5.094994000E0,2.904223722E0,-9.635205674E-1,-1.020986418E0,3.225724814E0
5.104921000E0,3.276221243E0,-8.041868645E-1,-7.839326942E-1,3.463364349E0
5.114848000E0,3.528760148E0,-7.522214895E-1,-5.949267107E-1,3.656764026E0
5.124775000E0,3.676836499E0,-8.212040162E-1,-3.363183957E-1,3.782408325E0
5.134702000E0,3.510149922E0,-7.265001726E-1,2.445685655E-1,3.592877504E0
5.144629000E0,2.856368062E0,-2.425384122E-1,6.397926888E-1,2.937175186E0
5.154556000E0,2.236330484E0,2.133678228E-1,6.131434187E-1,2.328657277E0
5.164483000E0,1.620878877E0,3.084236687E-1,6.870472544E-1,1.787290525E0
5.174409000E0,9.464782727E-1,-4.079426944E-2,4.750693148E-1,1.059800050E0
5.184336000E0,5.085507640E-1,-3.433759850E-1,5.029979557E-1,7.934342380E-1
5.194263000E0,1.931452274E-2,-5.666548383E-1,1.525247957E0,1.627222200E0
5.204190000E0,-5.955301434E-1,-1.144667308E0,2.889541071E0,3.164548467E0
5.214117000E0,-1.157827637E0,-1.678862498E0,4.578314892E0,5.011996745E0
5.224044000E0,-1.538550957E0,-2.227045398E0,6.360717546E0,6.912712778E0
5.233971000E0,-2.006374987E0,-2.923879137E0,7.266992118E0,8.086024007E0
5.243898000E0,-2.754135636E0,-3.377980921E0,7.291608896E0,8.494914861E0
5.253825000E0,-3.119407105E0,-3.593824455E0,6.666329874E0,8.190618346E0
5.263752000E0,-3.097722706E0,-3.050305880E0,5.201335720E0,6.778948679E0
5.273679000E0,-3.037481182E0,-2.016066163E0,3.811611019E0,5.274390321E0
5.283606000E0,-3.051855977E0,-1.066134524E0,1.796282775E0,3.698256283E0
5.293532000E0,-3.204464212E0,-1.912869823E-1,-1.331264824E-1,3.212927677E0
5.303459000E0,-3.042198715E0,3.019420302E-1,-7.713676125E-1,3.152958929E0
5.313386000E0,-2.400641629E0,5.022641301E-1,-1.356085669E0,2.802555589E0
5.323313000E0,-1.675226115E0,7.760611725E-1,-2.192765804E0,2.866509262E0
5.333240000E0,-9.918433106E-1,1.187018107E0,-2.809299438E0,3.207012390E0
5.343167000E0,-3.827353477E-1,1.650484207E0,-3.255067770E0,3.669611785E0
5.353094000E0,2.856557804E-1,2.074747065E0,-3.463498497E0,4.047467905E0
5.363021000E0,8.374048966E-1,2.509677583E0,-3.613214115E0,4.478285919E0
5.372948000E0,1.198851702E0,2.896310100E0,-3.528108183E0,4.719470834E0
5.382875000E0,1.280603963E0,3.243422456E0,-3.130320641E0,4.686005020E0
5.392802000E0,4.323846406E-1,3.273618647E0,-2.759696046E0,4.303423961E0
5.402728000E0,-7.584575450E-1,3.196450603E0,-2.431614038E0,4.087211902E0
5.412655000E0,-1.608436879E0,3.300956719E0,-2.323671221E0,4.345438113E0
5.422582000E0,-1.861207334E0,3.344257690E0,-2.630753831E0,4.644245682E0
5.432509000E0,-2.228316582E0,3.323079659E0,-2.899598866E0,4.941247494E0
5.442436000E0,-2.497514790E0,3.233017336E0,-2.983451155E0,5.058751033E0
5.452363000E0,-2.565041360E0,3.160479702E0,-3.155878235E0,5.150498671E0
5.462290000E0,-2.308632767E0,3.026862053E0,-2.857262394E0,4.759792803E0
5.472217000E0,-1.771289436E0,2.751221384E0,-2.204800835E0,3.945609217E0
5.482144000E0,-1.111027107E0,2.364561385E0,-1.768193920E0,3.154685645E0
5.492071000E0,-5.331251496E-1,1.961204077E0,-1.569059097E0,2.567584528E0
5.501996667E0,-8.289012909E-3,1.509523040E0,-1.544651942E0,2.159786596E0
5.511922667E0,6.400531822E-1,9.719282788E-1,-1.700931937E0,2.060942044E0
5.521849667E0,1.670853567E0,5.851893425E-1,-1.841257803E0,2.554296089E0
5.531776667E0,2.827870195E0,2.326039928E-1,-2.202478029E0,3.591916470E0
5.541703667E0,3.854012688E0,-3.800690174E-4,-2.359917526E0,4.519139816E0
5.551630666E0,4.824818301E0,-2.582300001E-1,-2.844571597E0,5.606883443E0
5.561557666E0,4.723493655E0,-1.545264146E0,-1.472313406E0,5.183332939E0
5.571484666E0,3.999951004E0,-3.207205971E0,1.962091100E0,5.489588296E0
5.581411667E0,3.517780831E0,-3.898583089E0,2.322654683E0,5.741816512E0
5.591338667E0,2.499298775E0,-4.194508334E0,3.376620859E-1,4.894324286E0
5.601265667E0,2.085657384E0,-3.677005191E0,-1.906716213E0,4.637445484E0
5.611192667E0,2.759457187E0,-3.106646141E0,-3.621182408E0,5.511698127E0
5.621119667E0,4.244296791E0,-2.957709957E0,-4.139081700E0,6.625262316E0
5.631045667E0,6.809076780E0,-2.232785609E0,-3.144329692E0,7.825322191E0
5.640972666E0,9.532903374E0,-1.543556759E0,-8.235335469E-2,9.657411469E0
5.650899666E0,9.400734665E0,-1.729293564E0,4.002623182E0,1.036268598E1
5.660826666E0,7.307333813E0,-2.114156129E0,7.051073740E0,1.037229119E1
5.670753667E0,2.180781058E0,-1.976968170E0,5.931387491E0,6.621598503E0
5.680680667E0,-3.365585994E0,-1.824489743E0,3.480261879E0,5.173794995E0
5.690607667E0,-5.676658804E0,-2.322682457E0,1.753533196E0,6.379199608E0
5.700534667E0,-5.914097275E0,-2.129852979E0,1.293391823E0,6.417607241E0
5.710461667E0,-5.817129974E0,-1.442411038E0,9.634001148E-1,6.070229857E0
5.720388667E0,-5.551782158E0,4.680169880E-2,1.230807905E0,5.686770931E0
5.730315667E0,-5.131060374E0,1.510176174E0,3.092035704E0,6.178114391E0
5.740241666E0,-4.748830810E0,1.712901480E0,5.067647905E0,7.153074921E0
5.750168666E0,-4.440151618E0,1.543548573E0,6.208744318E0,7.787553826E0
5.760095667E0,-4.053960566E0,1.687168468E0,6.613883273E0,7.938802533E0
5.770022667E0,-3.240166726E0,2.053395957E0,7.099989792E0,8.070004363E0
5.779949667E0,-2.104588915E0,2.066110727E0,7.631875917E0,8.181909193E0
5.789876667E0,-1.014964371E0,1.860313295E0,7.574253945E0,7.865128165E0
5.799803667E0,4.741858006E-2,1.828213835E0,6.908522716E0,7.146488680E0
5.809730667E0,7.473355561E-1,1.882353204E0,5.888870047E0,6.227403508E0
5.819657667E0,9.783619702E-1,2.250848243E0,4.449991020E0,5.081921884E0
5.829584667E0,7.550100267E-1,2.576363908E0,2.375300089E0,3.584653629E0
5.839511666E0,1.880049402E-1,2.656907550E0,3.522023571E-1,2.686735954E0
5.849437667E0,-1.828909653E-1,2.582357304E0,-1.079595984E0,2.804914587E0
5.859364667E0,-4.343089592E-1,2.634164804E0,-1.838704909E0,3.241648382E0
5.869291667E0,-6.258204746E-1,2.804926305E0,-2.501795536E0,3.810281322E0
5.879218667E0,-7.810535252E-1,3.028585228E0,-3.625292416E0,4.788018190E0
5.889145667E0,-8.583645335E-1,3.140506783E0,-4.531305617E0,5.579632884E0
5.899072667E0,-1.013997241E0,3.044557482E0,-4.695219736E0,5.687056272E0
5.908999667E0,-1.194008745E0,2.900000278E0,-4.460800183E0,5.452925524E0
5.918926666E0,-9.071414217E-1,2.745399896E0,-4.347235853E0,5.220975552E0
5.928853666E0,-6.153957662E-1,2.547126076E0,-4.116649150E0,4.879893791E0
5.938780666E0,-4.537126520E-1,2.440242482E0,-3.521347632E0,4.308193089E0
5.948707666E0,-4.844368467E-1,2.142830874E0,-2.645824737E0,3.439010287E0
5.958633667E0,-5.670726219E-1,1.782064101E0,-1.902481660E0,2.667725676E0
5.968560667E0,-5.567075551E-1,1.416710186E0,-1.453456428E0,2.104644065E0
5.978487667E0,-5.401435626E-1,1.255469121E0,-1.346019395E0,1.918261191E0
5.988414667E0,-5.380119601E-1,1.195862605E0,-1.218301587E0,1.789917036E0
5.998341667E0,-4.907164639E-1,1.261330370E0,-1.017404706E0,1.693183182E0
6.008268666E0,-3.472439182E-1,1.551972072E0,-7.882496935E-1,1.774974149E0
6.018195666E0,1.421370417E-2,1.845838512E0,-8.660235089E-1,2.038950358E0
6.028122666E0,4.526598608E-1,1.984165508E0,-1.116600673E0,2.321338144E0
6.038049667E0,7.600096884E-1,2.104576635E0,-1.530011099E0,2.710681004E0
6.047976667E0,1.047413494E0,2.245440738E0,-2.000941170E0,3.184783305E0
6.057903667E0,1.321275440E0,2.331939769E0,-2.365152538E0,3.574585068E0
6.067829667E0,1.600453968E0,2.330381486E0,-2.707126653E0,3.914162170E0
6.077756667E0,1.880415730E0,2.371376315E0,-2.892105952E0,4.186127779E0
6.087683666E0,2.061978500E0,2.349276763E0,-3.083280668E0,4.390612294E0
6.097610666E0,2.245713511E0,2.308834496E0,-3.198948534E0,4.539517334E0
6.107537666E0,2.506324790E0,2.228870898E0,-3.274903280E0,4.687698895E0
6.117464666E0,2.935714779E0,2.071020634E0,-3.163089314E0,4.786719308E0
6.127391667E0,3.507803727E0,1.990386361E0,-2.888753743E0,4.960969970E0
6.137318667E0,4.053392217E0,2.087882250E0,-2.541745468E0,5.220125552E0
6.147245667E0,4.406657305E0,2.347929565E0,-2.013341360E0,5.383766830E0
6.157172667E0,4.306146299E0,2.694502807E0,-1.451588827E0,5.283024839E0
6.167099667E0,3.802983744E0,3.307549455E0,-1.273265707E0,5.198439604E0
6.177025666E0,3.171325410E0,4.025824349E0,-1.615885939E0,5.373607160E0
6.186952666E0,2.761118089E0,3.992250806E0,-1.319052914E0,5.030083517E0
6.196879666E0,3.209446917E0,2.961158060E0,-4.829525310E-1,4.393432567E0
6.206806667E0,3.077446316E0,1.789560816E0,2.970376781E-1,3.572315093E0
6.216733667E0,2.635542116E0,1.278844535E0,1.441603537E0,3.264926699E0
6.226660667E0,2.010844014E0,1.278288465E0,3.068195436E0,3.884757172E0
6.236587667E0,1.583257599E0,1.190198407E0,4.838646381E0,5.228362619E0
6.246514667E0,1.219455243E0,-2.746758789E-1,6.656328796E0,6.772682701E0
6.256441667E0,9.336272621E-1,-2.945108623E0,8.414159111E0,8.963447898E0
6.266368667E0,3.173582143E0,-5.711099489E0,9.236077657E0,1.131341732E1
6.276294666E0,4.041396361E0,-9.208240233E0,8.642671807E0,1.325972657E1
6.286221666E0,3.453266454E0,-1.159672433E1,9.019994388E0,1.509202979E1
6.296148667E0,1.695444325E0,-1.213514998E1,9.873353412E0,1.573593036E1
6.306075667E0,-4.768875065E-1,-1.079806718E1,1.056311787E1,1.511307830E1
6.316002667E0,-2.850120605E0,-1.101424108E1,8.587196349E0,1.425400418E1
6.325929667E0,-4.040199729E0,-9.115923223E0,5.330749805E0,1.130664245E1
6.335856667E0,-3.349290388E0,-5.359314623E0,3.322703683E0,7.140053158E0
6.345783667E0,-1.903107312E0,-3.167294632E0,9.247734082E-1,3.809039063E0
6.355710667E0,-2.817293751E-1,-1.743953118E0,-7.661065802E-1,1.925529333E0
6.365637667E0,1.303187079E0,-8.808152103E-1,-1.484822355E0,2.163060198E0
6.375564666E0,3.282336845E0,-4.800926578E-1,-2.702712298E0,4.278887460E0
6.385490667E0,5.544985355E0,-1.182798171E-1,-2.948119647E0,6.281103577E0
6.395417667E0,6.292614441E0,1.525485939E-1,-2.598259099E0,6.809641541E0
6.405344667E0,4.837129029E0,7.327900225E-1,-1.960660871E0,5.270577721E0
6.415271667E0,3.196331905E0,1.388517836E0,-1.889983236E0,3.964411187E0
6.425198667E0,1.659383377E0,2.167159969E0,-2.150780164E0,3.475052638E0
6.435125667E0,-4.433399838E-1,2.159959708E0,-2.392828287E0,3.253859784E0
6.445052667E0,-1.941796584E0,2.346847830E0,-2.790441583E0,4.130960292E0
6.454979667E0,-3.277391563E0,2.698680643E0,-3.623927675E0,5.581847764E0
6.464906666E0,-4.149532136E0,3.455509154E0,-4.178174722E0,6.827613380E0
6.474833666E0,-4.775574220E0,4.090365331E0,-4.731742907E0,7.869344865E0
6.484760666E0,-5.442087808E0,4.528907674E0,-5.400558543E0,8.904681746E0
6.494686667E0,-5.880262946E0,4.683760656E0,-5.922167017E0,9.570118514E0
6.504613750E0,-6.081617664E0,4.386352556E0,-5.968040178E0,9.583510094E0
6.514540750E0,-5.936861655E0,3.788979371E0,-5.807339981E0,9.128411068E0
6.524467750E0,-4.828506725E0,2.973941828E0,-4.972600830E0,7.542252064E0
6.534394750E0,-3.098973717E0,1.620071084E0,-3.881758896E0,5.224588074E0
6.544321750E0,-1.063445098E0,4.349515682E-1,-2.710549321E0,2.944006787E0
6.554248750E0,9.547222620E-1,-5.433525145E-1,-1.633237844E0,1.968296829E0
6.564175750E0,3.111266319E0,-1.618798145E0,-9.750951308E-1,3.640232967E0
6.574102750E0,5.698305781E0,-2.704859396E0,-6.036098260E-1,6.336505184E0
6.584029750E0,7.926182653E0,-3.753469815E0,-1.046772054E0,8.832249930E0
6.593955750E0,9.086053891E0,-4.233763032E0,-1.880166931E0,1.019883093E1
6.603882750E0,9.060096931E0,-3.729993244E0,-9.103834105E-1,9.840071339E0
6.613809750E0,7.483246711E0,-3.134161969E0,4.514880788E-1,8.125625765E0
6.623736750E0,6.541826280E0,-2.983662239E0,-7.152138770E-2,7.190469161E0
6.633663750E0,8.821739863E0,-3.657881872E0,1.221065859E0,9.627782498E0
6.643590750E0,1.102344226E1,-5.205156291E0,3.343049655E0,1.264064525E1
6.653517750E0,1.267857500E1,-5.692410618E0,5.694053686E0,1.501905623E1
6.663444750E0,8.701943278E0,-4.709127631E0,7.673568318E0,1.252131585E1
6.673371750E0,8.926137221E-1,-2.656059703E0,5.647436759E0,6.304359948E0
6.683298750E0,-8.109676466E0,-1.472699030E0,2.215176719E-1,8.245287436E0
6.693225750E0,-1.072462030E1,-8.499822575E-1,-1.647002774E0,1.088359172E1
6.703151750E0,-1.026030694E1,-2.392967159E-1,4.051763767E-1,1.027109193E1
6.713078750E0,-1.030500657E1,-5.002795851E-1,3.224937068E0,1.080942455E1
6.723005750E0,-1.030303021E1,-1.278111295E0,4.456730229E0,1.129816110E1
6.732932750E0,-9.711445180E0,-1.380914701E0,5.466302882E0,1.122940604E1
6.742859750E0,-7.571506923E0,-7.742157912E-1,6.240496454E0,9.842302737E0
6.752786750E0,-5.318080058E0,8.255859196E-2,7.150236670E0,8.911491226E0
6.762713750E0,-4.011882833E0,3.997144926E-1,8.158489022E0,9.100325196E0
6.772640750E0,-3.136720710E0,2.663646466E-1,9.090238159E0,9.619895879E0
6.782567750E0,-2.711398922E0,-1.169448978E-1,9.322598323E0,9.709593179E0
6.792494750E0,-2.588520854E0,-3.965499794E-1,8.310277478E0,8.713116771E0
6.802421751E0,-2.333255977E0,-3.305442703E-1,6.978642526E0,7.365785394E0
6.812347750E0,-1.962646585E0,2.718411487E-1,6.331298450E0,6.634095213E0
6.822274750E0,-1.676593194E0,1.289940796E0,5.725163212E0,6.103474895E0
6.832201750E0,-1.558044990E0,2.315020266E0,4.570422320E0,5.354958749E0
6.842128750E0,-1.562339770E0,3.243641142E0,2.893858947E0,4.619148517E0
6.852055750E0,-1.580903510E0,3.971811279E0,6.589759415E-1,4.325365885E0
6.861982750E0,-1.586277686E0,4.580677167E0,-1.307148567E0,5.020708873E0
6.871909750E0,-1.619034665E0,4.974839728E0,-2.829799776E0,5.947946733E0
6.881836750E0,-1.561019761E0,5.216508075E0,-4.012642971E0,6.763877793E0
6.891763750E0,-1.407478310E0,5.277498043E0,-4.923712844E0,7.353633724E0
6.901690750E0,-1.270488864E0,5.289315850E0,-5.685814374E0,7.868893773E0
6.911616750E0,-1.110125174E0,5.176714849E0,-6.153791016E0,8.117875239E0
6.921543750E0,-7.257564068E-1,5.049700461E0,-6.117705510E0,7.965708871E0
6.931470750E0,-2.136233461E-1,4.854795806E0,-5.434894563E0,7.290593677E0
6.941397750E0,3.832130653E-1,4.427202959E0,-4.077126065E0,6.030749144E0
6.951324750E0,1.072714981E0,3.853272430E0,-3.210872760E0,5.129145127E0
6.961251750E0,1.269736912E0,2.864679002E0,-2.780067160E0,4.188960614E0
6.971178750E0,8.288714701E-1,1.823582840E0,-2.583544289E0,3.269125782E0
6.981105750E0,3.544663990E-1,1.024840318E0,-2.498163538E0,2.723373858E0
6.991032750E0,-1.694903165E-2,4.847236526E-1,-2.157398043E0,2.211246391E0
7.000959750E0,-2.301142484E-1,4.649764359E-2,-1.563927873E0,1.581450281E0
7.010885750E0,-1.556607744E-1,-3.294683826E-1,-9.334793276E-1,1.002079511E0
7.020812750E0,2.714566943E-1,-5.034639788E-1,-3.151660931E-1,6.530653727E-1
7.030739750E0,8.073733047E-1,-6.694260854E-1,-4.907217264E-2,1.049948101E0
7.040666750E0,1.320298078E0,-9.934355074E-1,-6.570703340E-1,1.778157065E0
7.050593750E0,1.867738674E0,-1.436775491E0,-1.589841564E0,2.842598769E0
7.060520750E0,2.222284010E0,-1.947543227E0,-2.241328684E0,3.708776768E0
7.070447750E0,2.621537450E0,-2.313388308E0,-2.753800298E0,4.450577507E0
7.080374750E0,3.207303912E0,-2.479667918E0,-2.452358790E0,4.738102469E0
7.090301750E0,3.587738673E0,-2.497332357E0,-1.435766847E0,4.601082929E0
7.100228750E0,3.781743734E0,-2.323894585E0,-5.696018350E-1,4.475099771E0
7.110155750E0,3.840802366E0,-1.803153838E0,-3.577294376E-1,4.258062579E0
7.120081750E0,3.810293056E0,-1.059932383E0,-1.096771595E0,4.104229253E0
7.130008750E0,3.807432306E0,-6.434252715E-1,-1.797119804E0,4.259128600E0
7.139935750E0,4.048141125E0,-4.881863737E-1,-1.786203344E0,4.451549718E0
7.149862750E0,4.386231811E0,-3.897327107E-1,-1.056551523E0,4.528490058E0
7.159789750E0,4.178365341E0,-2.579516727E-1,4.377365971E-1,4.209143538E0
7.169716750E0,3.403663354E0,2.430517977E-1,1.684276435E0,3.805362731E0
7.179643750E0,2.599969118E0,6.387322962E-1,2.261891879E0,3.504849959E0
7.189570750E0,2.040186804E0,9.226906300E-2,2.411104637E0,3.159794510E0
7.199497750E0,1.825544288E0,-9.113335830E-1,2.706690451E0,3.389589068E0
7.209424750E0,1.724397690E0,-1.823095182E0,3.266425110E0,4.119072279E0
7.219351750E0,1.482980189E0,-2.401098881E0,4.051866678E0,4.937826410E0
7.229277750E0,8.375884992E-1,-2.769039604E0,5.244021564E0,5.989064784E0
7.239204750E0,2.896008968E-2,-3.156904714E0,6.618329496E0,7.332746510E0
7.249131750E0,-9.409316039E-1,-3.657356792E0,7.623563515E0,8.507663114E0
7.259058750E0,-1.775779513E0,-3.983520913E0,8.260541646E0,9.341219409E0
7.268985750E0,-2.402722068E0,-4.134474387E0,8.504444214E0,9.756665577E0
7.278912750E0,-2.987912580E0,-5.074666318E0,6.854549407E0,9.036852737E0
7.288839750E0,-4.128367555E0,-5.882052194E0,4.561729850E0,8.511835049E0
7.298766750E0,-5.244263054E0,-5.554757221E0,2.087838396E0,7.919387093E0
7.308693750E0,-5.909584978E0,-4.283638027E0,-5.490199283E-1,7.319437973E0
7.318620750E0,-5.989749135E0,-2.657263060E0,-2.617572160E0,7.056190593E0
7.328546750E0,-5.525712347E0,-1.110761059E0,-3.417929099E0,6.591625474E0
7.338473750E0,-4.407467437E0,3.833533984E-1,-3.625564896E0,5.719916944E0
7.348400750E0,-3.259194151E0,1.620133064E0,-3.674997842E0,5.172309619E0
7.358327750E0,-2.330139996E0,2.485462509E0,-3.904543448E0,5.181943248E0
7.368254750E0,-1.674195836E0,3.274303356E0,-3.919423150E0,5.374557842E0
7.378181750E0,-9.758880132E-1,3.781409565E0,-3.959283912E0,5.561235907E0
7.388108750E0,-4.950270313E-1,3.951585760E0,-4.149910451E0,5.751681366E0
7.398035750E0,-1.086757654E-1,4.139345117E0,-3.964808654E0,5.732861073E0
7.407962750E0,3.201607847E-1,4.156573353E0,-3.591237647E0,5.502416997E0
7.417889750E0,4.298481184E-1,4.176356823E0,-2.701621208E0,4.992542726E0
7.427816750E0,-3.933012664E-2,4.298396400E0,-1.566015037E0,4.574949351E0
7.437742750E0,-8.304882252E-1,4.309572768E0,-1.161570439E0,4.539975112E0
7.447669750E0,-1.407344701E0,4.419406282E0,-1.317891657E0,4.821681181E0
7.457596750E0,-1.435663351E0,4.601827716E0,-1.664283928E0,5.099783189E0
7.467523750E0,-2.005007908E0,4.306129927E0,-2.171833941E0,5.222994766E0
7.477450750E0,-2.323831435E0,4.051840950E0,-3.060104059E0,5.584070601E0
7.487377750E0,-2.532203981E0,3.600479756E0,-3.712148419E0,5.758086258E0
7.497304375E0,-2.483904226E0,2.928021305E0,-3.685574870E0,5.322269355E0
7.507231375E0,-2.273250096E0,2.123180721E0,-3.165902410E0,4.438299273E0
7.517158375E0,-2.169014706E0,1.200894719E0,-2.360849572E0,3.423504582E0
7.527085375E0,-2.021371926E0,2.096946019E-1,-1.712977493E0,2.657857818E0
7.537012375E0,-2.000276634E0,-7.520513356E-1,-1.092635860E0,2.400112694E0
7.546938375E0,-1.857036223E0,-1.315080315E0,-5.459580338E-1,2.340104686E0
7.556865375E0,-1.187701061E0,-1.345130911E0,-7.443920678E-1,1.942712158E0
7.566792375E0,2.576926410E-2,-9.524365854E-1,-1.754856714E0,1.996827882E0
7.576719375E0,1.460619267E0,-5.687189054E-1,-2.740476833E0,3.157065585E0
7.586646375E0,3.122655233E0,-3.097626811E-1,-3.463095916E0,4.673324507E0
7.596573375E0,5.461640312E0,-3.748825371E-2,-4.133258458E0,6.849433973E0
7.606500375E0,7.518514777E0,-5.886508942E-2,-4.281079870E0,8.652119649E0
7.616427375E0,8.841867149E0,-4.818667030E-1,-3.170843307E0,9.405586503E0
7.626354375E0,8.248177709E0,-1.590994050E0,-1.099511601E0,8.471872482E0
7.636281375E0,5.939018108E0,-2.695634828E0,1.000871119E0,6.598494238E0
7.646208375E0,4.341374019E0,-3.019574668E0,1.681238807E0,5.549047079E0
7.656134375E0,3.756377635E0,-3.823235868E0,2.123149439E0,5.765003814E0
7.666061375E0,3.425957910E0,-4.950873746E0,2.101428494E0,6.376859742E0
7.675988375E0,2.806588669E0,-5.853084503E0,1.926127507E0,6.770930906E0
7.685915375E0,3.359713050E0,-6.006423640E0,3.063336985E0,7.533181944E0
7.695842375E0,4.547171452E0,-5.740153719E0,4.806395479E0,8.759427517E0
7.705769375E0,5.764796809E0,-5.883515752E0,5.709597924E0,1.002238237E1
7.715696375E0,4.658493083E0,-5.877413598E0,3.994777973E0,8.497281886E0
7.725623375E0,5.254541874E-2,-4.514670873E0,-6.384872979E-1,4.559899138E0
7.735550375E0,-4.915136148E0,-2.346201128E0,-4.415758789E0,7.011572489E0
7.745477375E0,-7.639452739E0,-8.003031439E-1,-4.858562583E0,9.088858764E0
7.755403375E0,-7.031227705E0,4.132063580E-1,-2.888085991E0,7.612486009E0
7.765330375E0,-6.413935980E0,4.975694007E-1,-7.599672961E-1,6.477939514E0
7.775257375E0,-6.587624012E0,6.681905687E-2,1.838023708E0,6.839560371E0
7.785184375E0,-6.324776466E0,-2.611319733E-1,4.896743731E0,8.003067313E0
7.795111375E0,-5.507851442E0,-5.206746733E-1,7.536838197E0,9.349409587E0
7.805038375E0,-4.919790532E0,-7.751735651E-1,9.202036337E0,1.046339838E1
7.814965375E0,-4.872826573E0,-6.659031379E-1,9.284946932E0,1.050705027E1
7.824892375E0,-4.944542965E0,-3.579022229E-1,7.124649255E0,8.679701961E0
7.834819375E0,-4.999172332E0,2.560139054E-1,5.322929154E0,7.306903715E0
7.844746375E0,-4.572202213E0,7.701116306E-1,3.914830163E0,6.068278191E0
7.854673375E0,-3.902480258E0,1.275691132E0,2.730405296E0,4.930705133E0
7.864600375E0,-3.141260489E0,1.786633115E0,1.864533815E0,4.066455667E0
7.874526375E0,-1.995187510E0,2.408413163E0,1.307350881E0,3.389748293E0
7.884453375E0,-9.549146354E-1,3.112931898E0,9.125012720E-1,3.381547802E0
7.894380375E0,-2.910317105E-1,3.552311563E0,2.697209483E-1,3.574404326E0
7.904307375E0,1.646523303E-1,3.734421925E0,-7.876830983E-1,3.820139025E0
7.914234375E0,7.721990865E-1,3.894244455E0,-1.826312320E0,4.369994050E0
7.924161376E0,1.233357875E0,3.961038369E0,-2.150160944E0,4.672706784E0
7.934088375E0,1.215782315E0,3.785843509E0,-2.561686812E0,4.730008143E0
7.944015375E0,6.913648385E-1,3.468631475E0,-3.472760779E0,4.956758727E0
7.953942375E0,2.892202431E-1,3.253779044E0,-4.105485646E0,5.246497765E0
7.963869375E0,3.887743521E-1,3.155114297E0,-4.422262354E0,5.446310315E0
7.973795375E0,1.318874574E-1,2.895630654E0,-4.902474588E0,5.695290007E0
7.983722375E0,-3.757409084E-1,2.739754409E0,-5.093299055E0,5.795613058E0
7.993649375E0,-8.803105956E-1,2.672076981E0,-4.419949488E0,5.239360229E0
8.003576375E0,-1.257770585E0,2.535694184E0,-3.415822054E0,4.436166380E0
8.013503375E0,-1.288001860E0,2.235235593E0,-2.855345092E0,3.848145338E0
8.023430375E0,-1.007582553E0,1.733381352E0,-2.212928465E0,2.986115521E0
8.033357375E0,-5.505785036E-1,1.216420246E0,-1.606738847E0,2.089120539E0
8.043284375E0,-7.293962985E-2,6.239359170E-1,-1.273420658E0,1.419935347E0
8.053211375E0,4.289806840E-1,-9.576102018E-2,-1.205964255E0,1.283567055E0
8.063138375E0,9.764648411E-1,-7.861745167E-1,-1.565470954E0,2.005555600E0
8.073065375E0,1.314259074E0,-1.767253688E0,-1.781575273E0,2.832750071E0
8.082991375E0,2.156937574E0,-2.632866722E0,-2.102369896E0,4.000540721E0
8.092918375E0,2.925017298E0,-3.327208378E0,-2.876823669E0,5.282249162E0
8.102845375E0,3.879022983E0,-3.373316013E0,-3.066160020E0,5.985600847E0
8.112772375E0,4.695870239E0,-3.074657194E0,-1.657998464E0,5.852663758E0
8.122699375E0,5.097762820E0,-2.662301606E0,2.312588409E-1,5.755737681E0
8.132626375E0,5.490188173E0,-2.052974373E0,1.147606119E0,5.972760648E0
8.142553375E0,5.619616292E0,-1.827163090E0,1.034813621E0,5.999120890E0
8.152480375E0,5.330115382E0,-1.744635488E0,2.740879413E-1,5.615069650E0
8.162407375E0,5.108784821E0,-1.386733850E0,-1.776404580E-1,5.296628102E0
8.172334375E0,5.030466045E0,-9.190846521E-1,-1.869036171E-1,5.117151375E0
8.182261375E0,4.988868953E0,-2.324350083E-1,2.664886075E-1,5.001385372E0
8.192187375E0,4.560741962E0,6.826741219E-2,6.793102187E-1,4.611560480E0
8.202114375E0,3.803553263E0,-2.650133550E-1,6.092041495E-1,3.861137035E0
8.212041375E0,3.054258305E0,-9.071715349E-1,4.805212587E-1,3.222166145E0
8.221968375E0,2.479185815E0,-1.574535307E0,4.472242892E-2,2.937264686E0
8.231895375E0,1.916268517E0,-1.793528152E0,3.628118375E-1,2.649615196E0
8.241822375E0,1.067140830E0,-1.526172987E0,1.164987260E0,2.196631251E0
8.251749375E0,-1.047669017E-1,-9.536282480E-1,2.247011300E0,2.443244303E0
8.261676375E0,-1.266186483E0,-6.504787678E-1,3.638840999E0,3.907366716E0
8.271603375E0,-1.706463110E0,-4.073246437E-1,5.411705675E0,5.688979524E0
8.281530375E0,-2.286695768E0,-7.362960130E-1,7.237275399E0,7.625566507E0
8.291457375E0,-2.644490402E0,-1.875127800E0,7.800713099E0,8.447517896E0
8.301383375E0,-3.342656722E0,-3.025002639E0,7.897804946E0,9.093916532E0
8.311310375E0,-3.970582194E0,-3.692944116E0,7.289469400E0,9.085137497E0
8.321237375E0,-4.358749313E0,-3.954705834E0,5.866093388E0,8.309599596E0
8.331164375E0,-4.920957052E0,-4.053099856E0,4.498603309E0,7.802619334E0
8.341091375E0,-5.932810704E0,-4.371769016E0,2.773345201E0,7.874138097E0
8.351018375E0,-7.065473678E0,-4.914846711E0,4.432972991E-1,8.618187106E0
8.360945375E0,-7.597610064E0,-5.110285217E0,-1.745182203E0,9.321177747E0
8.370872375E0,-7.089001704E0,-4.136121547E0,-2.910421770E0,8.708157182E0
8.380799375E0,-5.301776267E0,-2.312429364E0,-2.975054553E0,6.504391650E0
8.390726375E0,-3.342836232E0,-1.181331105E0,-2.747861574E0,4.485625985E0
8.400653375E0,-1.781707420E0,-5.806723684E-1,-2.798130087E0,3.367668884E0
8.410579375E0,-8.180780947E-2,3.868032557E-1,-2.715538166E0,2.744167780E0
8.420506375E0,1.269761471E0,1.433599284E0,-2.953812203E0,3.520299367E0
8.430433375E0,2.225173119E0,2.118700000E0,-3.640805371E0,4.764005547E0
8.440360375E0,3.147526950E0,2.513367761E0,-3.904150808E0,5.609486334E0
8.450287375E0,4.028212352E0,2.723060609E0,-3.989082492E0,6.289223558E0
8.460214375E0,4.178494565E0,2.917945967E0,-3.612208686E0,6.246781338E0
8.470141375E0,3.690672473E0,2.898694595E0,-3.569208847E0,5.895994017E0
8.480068375E0,2.536453153E0,3.006631857E0,-4.082380373E0,5.669149780E0
8.489995375E0,2.005290914E-1,2.846099474E0,-4.735367011E0,5.528489384E0
8.499922916E0,-1.542860355E0,2.944236218E0,-4.931354570E0,5.947033116E0
8.509849917E0,-2.596443247E0,3.369169752E0,-5.394781494E0,6.869970140E0
8.519775917E0,-3.501444880E0,3.787909330E0,-5.882944479E0,7.824155487E0
8.529702917E0,-4.231356318E0,4.034798656E0,-6.539427168E0,8.772005709E0
8.539629917E0,-4.363511870E0,4.565602461E0,-6.707755058E0,9.212976695E0
8.549556917E0,-4.147440880E0,4.873538471E0,-6.491449594E0,9.115457252E0
8.559483916E0,-3.873601445E0,4.448979744E0,-5.877932830E0,8.327562866E0
8.569410916E0,-3.204871763E0,3.514432715E0,-4.764824114E0,6.732457885E0
8.579337916E0,-2.234932707E0,2.605108235E0,-3.933447697E0,5.220490773E0
8.589264916E0,-9.165004751E-1,1.638927770E0,-3.208963645E0,3.717997448E0
8.599191917E0,6.893121734E-1,3.052919000E-1,-1.490811950E0,1.670591119E0
8.609118917E0,2.813909090E0,-8.704019040E-1,-3.561281776E-1,2.966902614E0
8.619045917E0,5.133239046E0,-1.662466906E0,8.250234175E-1,5.458443272E0
8.628971917E0,7.542172612E0,-1.686674379E0,9.489832199E-1,7.786514453E0
8.638898917E0,8.963109750E0,-1.851376995E0,3.274078238E-1,9.158172801E0
8.648825916E0,7.254703025E0,-3.156940382E0,1.668089588E0,8.085759793E0
8.658752916E0,3.358489813E0,-4.512967579E0,5.124135516E0,7.609408320E0
8.668679916E0,3.081328282E0,-4.887198737E0,4.370377378E0,7.244273180E0
8.678606917E0,2.543309598E0,-5.132775362E0,1.814172331E0,6.008745949E0
8.688533917E0,2.102133669E0,-5.638598692E0,-3.137691933E-1,6.025878549E0
8.698460917E0,2.268789840E0,-6.176148430E0,-1.742756778E0,6.806571674E0
8.708387917E0,3.111429749E0,-6.653288829E0,-2.447407075E0,7.741902138E0
8.718314917E0,6.508293668E0,-6.169036462E0,-9.476851380E-1,9.017372370E0
8.728241917E0,1.056495389E1,-4.673660760E0,2.981802240E0,1.193115670E1
8.738167916E0,1.068697827E1,-3.350230036E0,4.962293943E0,1.224989416E1
8.748094916E0,6.432884467E0,-2.085380226E0,4.297753206E0,8.012583595E0
8.758021916E0,8.677618861E-1,-1.051111858E0,1.738369027E0,2.209020983E0
8.767948917E0,-7.142273347E0,-3.324019307E-1,-1.610229635E0,7.329079007E0
8.777875917E0,-9.555691727E0,1.005847977E0,-4.043298753E0,1.042454984E1
8.787802917E0,-9.165874232E0,1.019743885E0,-3.200700944E0,9.762049711E0
8.797729917E0,-9.043180937E0,2.661599940E-1,-4.647904944E-1,9.059028248E0
8.807656917E0,-9.543853455E0,-1.022794377E0,2.165436210E0,9.839733791E0
8.817583917E0,-8.364544902E0,-1.650594719E0,4.392652346E0,9.590905535E0
8.827510917E0,-6.757778572E0,-1.089437433E0,5.766155702E0,8.950027750E0
8.837437917E0,-5.751154085E0,-3.329644328E-1,6.037196367E0,8.344721601E0
8.847363917E0,-4.972721282E0,2.178853816E-1,6.395275760E0,8.104010306E0
8.857290917E0,-4.287364458E0,5.976082438E-1,6.075168770E0,7.459645112E0
8.867217917E0,-3.757051234E0,1.014893619E0,5.038643961E0,6.366582757E0
8.877144917E0,-3.450556270E0,1.240005575E0,4.210587008E0,5.583278190E0
8.887071917E0,-3.228510302E0,1.417642817E0,3.732662498E0,5.134759902E0
8.896998917E0,-2.871403300E0,1.786599786E0,3.145992640E0,4.618892226E0
8.906925917E0,-2.599352821E0,2.316144100E0,2.870054348E0,4.512025104E0
8.916852917E0,-2.309901028E0,2.842864795E0,2.682776216E0,4.540353646E0
8.926779917E0,-1.898479825E0,3.310271918E0,2.067980667E0,4.340353656E0
8.936706916E0,-1.518254980E0,3.729742983E0,1.430328936E0,4.273396982E0
8.946633916E0,-1.336036152E0,4.049340096E0,3.452476788E-1,4.278006986E0
8.956559917E0,-1.081133217E0,4.295606693E0,-1.375901299E0,4.638339172E0
8.966486917E0,-7.631028655E-1,4.465059587E0,-3.101310557E0,5.489736813E0
8.976413917E0,-6.781600714E-1,4.589305903E0,-4.402964496E0,6.395914799E0
8.986340917E0,-7.338778970E-1,4.601319008E0,-5.342922539E0,7.089254871E0
8.996267917E0,-5.046395615E-1,4.409093547E0,-5.871983873E0,7.360364230E0
9.006194917E0,2.831923485E-2,4.050157537E0,-5.525552133E0,6.851007549E0
9.016121916E0,6.302576342E-1,3.450916166E0,-4.559191573E0,5.752588536E0
9.026048916E0,1.252763615E0,2.754018692E0,-3.452194952E0,4.590390573E0
9.035975916E0,1.796994089E0,2.123574824E0,-2.817966181E0,3.959758981E0
9.045902917E0,1.818710648E0,1.446845566E0,-2.546477619E0,3.447552578E0
9.055829917E0,1.569041848E0,8.779103136E-1,-2.355758986E0,2.963480933E0
9.065755917E0,1.077617579E0,4.113030893E-1,-2.264392149E0,2.541240186E0
9.075682917E0,5.985625094E-1,8.676390946E-2,-2.199322579E0,2.280970158E0
9.085609917E0,5.618001875E-1,-1.524006593E-1,-1.991927102E0,2.075239502E0
9.095536917E0,6.900369358E-1,-3.704234505E-1,-1.383323169E0,1.589637536E0
9.105463916E0,1.077777500E0,-5.070512456E-1,-8.377884740E-1,1.456226230E0
9.115390916E0,1.733725753E0,-7.485114312E-1,-4.883454180E-1,1.950527005E0
9.125317916E0,2.380834186E0,-1.161337135E0,-3.694434571E-1,2.674614707E0
9.135244917E0,2.805500210E0,-1.493889924E0,-1.895421731E-1,3.184095596E0
9.145171917E0,3.763495743E0,-1.913215393E0,-8.524983144E-1,4.307092607E0
9.155098917E0,4.502630872E0,-1.844441028E0,-1.716225622E0,5.159561789E0
9.165025917E0,4.658976940E0,-1.539952535E0,-1.355429027E0,5.090649053E0
9.174951917E0,4.574141150E0,-1.429941850E0,-9.626923093E-1,4.888177312E0
9.184878916E0,4.381533281E0,-1.233738529E0,-1.171838735E0,4.700335166E0
9.194805916E0,4.059604006E0,-1.080942013E0,-2.130279534E0,4.710298421E0
9.204732916E0,3.555081389E0,-8.890001428E-1,-3.142645986E0,4.827540650E0
9.214659917E0,3.132644324E0,-8.714491403E-1,-3.644636467E0,4.884286953E0
9.224586917E0,3.189595912E0,-1.039958294E0,-3.407907556E0,4.782140655E0
9.234513917E0,3.844271811E0,-1.027228321E0,-2.089507776E0,4.494403912E0
9.244440917E0,4.275338489E0,-8.475170714E-1,-2.760143065E-1,4.367263249E0
9.254367917E0,3.897369207E0,-3.106076038E-1,1.068088664E0,4.052996079E0
9.264294917E0,3.087674558E0,3.057725412E-1,1.536069691E0,3.462187332E0
9.274221917E0,2.036432015E0,3.038499767E-1,1.470717993E0,2.530294760E0
9.284148917E0,1.203248808E0,-4.917859197E-2,1.301359824E0,1.773066163E0
9.294074916E0,8.120326585E-1,-4.430879688E-1,1.338800715E0,1.627301859E0
9.304001917E0,7.383945787E-1,-1.104037930E0,1.765191960E0,2.209078758E0
9.313928917E0,7.177825588E-1,-1.727808956E0,2.807239464E0,3.373592892E0
9.323855917E0,1.444747585E-1,-2.494598199E0,4.731783838E0,5.351043956E0
9.333782917E0,-9.832391328E-1,-3.609687366E0,6.710602652E0,7.683019590E0
9.343709917E0,-2.071071505E0,-4.536862226E0,8.514451139E0,9.867539422E0
9.353636917E0,-2.793631239E0,-5.060287430E0,9.833395879E0,1.140642621E1
9.363563917E0,-2.961520588E0,-5.633303454E0,1.012989883E1,1.196325885E1
9.373490917E0,-3.714060751E0,-6.324803948E0,9.098740595E0,1.168693598E1
9.383417916E0,-4.945028869E0,-5.741258258E0,7.086151187E0,1.037443471E1
9.393344916E0,-5.853291494E0,-4.155357133E0,3.436382619E0,7.958438271E0
9.403270917E0,-6.544513661E0,-2.553708871E0,-5.477197999E-1,7.046423563E0
9.413197917E0,-6.946572887E0,-1.163401787E0,-2.674267348E0,7.533928885E0
9.423124917E0,-6.240288877E0,1.034021616E-1,-3.377646168E0,7.096505543E0
9.433051917E0,-4.643471586E0,1.033576058E0,-4.118981604E0,6.292544580E0
9.442978917E0,-2.808928725E0,1.797924088E0,-4.014911106E0,5.219398700E0
9.452905917E0,-1.114673431E0,2.351526772E0,-3.587026482E0,4.431583690E0
9.462832917E0,8.078437132E-1,2.587744344E0,-3.227701047E0,4.215102170E0
9.472759916E0,2.449988621E0,2.635863420E0,-2.822150449E0,4.573265066E0
9.482686916E0,3.007690203E0,2.764646006E0,-2.404905126E0,4.740573442E0
9.492613916E0,2.411984058E0,3.193336961E0,-2.593988001E0,4.769050407E0
9.502540625E0,1.307492968E0,3.620864319E0,-3.371839006E0,5.117567250E0
9.512466625E0,-1.060704800E0,3.676794691E0,-3.752215002E0,5.359387213E0
9.522393625E0,-2.674418206E0,3.886326156E0,-3.910041293E0,6.127353967E0
9.532320625E0,-3.451391544E0,4.229530233E0,-3.976376200E0,6.753709889E0
9.542247625E0,-3.621436762E0,4.640891209E0,-4.032675532E0,7.135485084E0
9.552174625E0,-3.957533548E0,4.898493803E0,-4.332231313E0,7.643660214E0
9.562101625E0,-4.304972763E0,4.990120257E0,-4.789122804E0,8.146765487E0
9.572028625E0,-4.501036336E0,4.997857878E0,-4.762787529E0,8.241483878E0
9.581955625E0,-4.261361890E0,4.636108772E0,-4.295151195E0,7.622403393E0
9.591882625E0,-3.461814791E0,3.642338803E0,-3.440469530E0,6.089960935E0
9.601809625E0,-2.217744232E0,2.717541422E0,-2.458892761E0,4.283640329E0
9.611736625E0,-1.162831099E0,1.539567204E0,-1.635907098E0,2.529552406E0
9.621663625E0,-5.518836021E-2,1.645383096E-1,-8.294234473E-1,8.473853110E-1
9.631589625E0,1.182915700E0,-1.117358472E0,-4.156095636E-1,1.679437650E0
9.641516625E0,2.921570656E0,-1.710687724E0,-5.212839532E-1,3.425458297E0
9.651443625E0,4.406400320E0,-1.989545531E0,-3.600145295E-1,4.848119807E0
9.661370625E0,6.788352494E0,-1.713795519E0,-7.737480140E-1,7.043969807E0
9.671297625E0,9.724664565E0,-1.455673108E0,-2.052872631E0,1.004501723E1
9.681224625E0,9.449185279E0,-3.156041080E0,-5.851834953E-1,9.979485832E0
9.691151625E0,7.012531818E0,-4.428696923E0,4.393554572E0,9.385748809E0
9.701078625E0,6.852849621E0,-3.614813620E0,4.638430116E0,9.030141714E0
9.711005625E0,6.298944052E0,-3.768273211E0,1.682035198E0,7.530326790E0
9.720932625E0,4.343596546E0,-4.444057558E0,-1.312780313E0,6.351367623E0
9.730859625E0,4.459500055E0,-5.108073215E0,-3.869552248E0,7.807239417E0
9.740785625E0,4.549540159E0,-5.179077709E0,-4.798324567E0,8.399111871E0
9.750712625E0,4.598080235E0,-4.175118383E0,-4.581500748E0,7.717778466E0
9.760639625E0,6.719323774E0,-2.407623789E0,-1.072396308E0,7.217755754E0
9.770566625E0,5.635428332E0,-1.817194172E0,2.913923083E0,6.599332912E0
9.780493625E0,1.680257059E0,-2.101960006E0,4.285709696E0,5.060514524E0
9.790420625E0,-4.819503182E-1,-2.668641157E0,5.286324415E0,5.941308572E0
9.800347625E0,-4.002179963E0,-3.033433739E0,3.257479162E0,5.985844568E0
9.810274625E0,-8.636021769E0,-2.075642858E0,-1.140063211E0,8.954826039E0
9.820201625E0,-1.014277440E1,-1.683224521E0,-1.941079130E0,1.046312121E1
9.830128625E0,-1.061320863E1,-2.676724933E0,1.134358667E0,1.100417299E1
9.840055625E0,-1.040945187E1,-3.620253870E0,3.535512512E0,1.157422892E1
9.849982625E0,-9.310731398E0,-3.597229289E0,4.037917560E0,1.076729102E1
9.859908625E0,-7.463787763E0,-2.281974142E0,4.745359318E0,9.134219661E0
9.869835625E0,-6.392087858E0,-1.433267162E0,6.373535228E0,9.139747986E0
9.879762625E0,-5.036188130E0,-6.035940385E-1,6.548165832E0,8.282873439E0
9.889689625E0,-3.769870085E0,-4.672860861E-2,5.618777216E0,6.766443780E0
9.899616625E0,-3.275517823E0,-1.439730674E-1,4.750655726E0,5.772215786E0
9.909543625E0,-2.983124880E0,-2.512934482E-1,3.905052449E0,4.920530162E0
9.919470625E0,-2.666302856E0,-2.047051728E-2,3.108852004E0,4.095674638E0
9.929397625E0,-2.230056714E0,5.044679457E-1,2.614740939E0,3.473400500E0
9.939324625E0,-1.643618406E0,1.314548804E0,2.293327388E0,3.112695059E0
9.949251625E0,-1.198949935E0,2.148727791E0,1.922894289E0,3.122824765E0
9.959178625E0,-7.667617607E-1,2.875737841E0,1.555287443E0,3.358081410E0
9.969105625E0,-4.626644468E-1,3.481461436E0,8.295620263E-1,3.608712412E0
9.979031625E0,-3.948004925E-1,3.914698600E0,-1.157959199E-1,3.936259805E0
9.988958625E0,-2.782362485E-1,4.291116031E0,-1.554937195E0,4.572627460E0
9.998885625E0,-2.073036754E-1,4.614483429E0,-3.136507872E0,5.583378347E0
1.000881262E1,-1.023625267E-1,4.788731040E0,-4.470499544E0,6.551930192E0
1.001873962E1,1.714543962E-1,4.900991734E0,-4.994325575E0,6.999457445E0
1.002866662E1,4.502572399E-1,4.873707456E0,-4.990897937E0,6.990337486E0
1.003859362E1,5.959727776E-1,4.769634034E0,-4.727777618E0,6.742141616E0
1.004852062E1,5.367106622E-1,4.536304986E0,-4.039917600E0,6.098119012E0
1.005844763E1,2.440417314E-1,4.329288409E0,-3.763776117E0,5.741803302E0
1.006837463E1,-4.060897118E-1,3.989844677E0,-3.930525259E0,5.615407217E0
1.007830063E1,-1.087654032E0,3.326882104E0,-4.019042456E0,5.329525128E0
1.008822763E1,-1.342595851E0,2.552655203E0,-3.793356012E0,4.765308178E0
1.009815462E1,-1.316445933E0,1.622010605E0,-3.287142672E0,3.894772810E0
1.010808162E1,-1.109824043E0,6.040267324E-1,-2.572479603E0,2.866044139E0
1.011800862E1,-5.988656875E-1,-3.456540602E-1,-1.614605107E0,1.756435735E0
1.012793562E1,6.387439907E-2,-1.287370360E0,-6.803533620E-1,1.457492052E0
1.013786262E1,3.409707329E-1,-2.232841158E0,1.980744302E-2,2.258812301E0
1.014778963E1,1.654117374E0,-2.951235335E0,-3.861536300E-1,3.405144478E0
1.015771663E1,3.173177515E0,-3.369035266E0,-1.857087386E0,4.986805363E0
1.016764363E1,4.029124225E0,-3.619326501E0,-2.766570325E0,6.081716674E0
1.017757063E1,4.586553911E0,-3.534582805E0,-2.872565727E0,6.463852276E0
1.018749763E1,5.636059247E0,-2.629748987E0,-2.653634571E0,6.761842944E0
1.019742362E1,6.209633095E0,-1.842412044E0,-2.211159682E0,6.844213063E0
1.020735062E1,6.058995956E0,-1.552218239E0,-1.900840931E0,6.537125492E0
1.021727762E1,5.495836583E0,-1.407742896E0,-1.735152182E0,5.932681763E0
1.022720463E1,4.731353775E0,-1.328517802E0,-1.806704852E0,5.235919262E0
1.023713163E1,4.387605907E0,-1.274145713E0,-1.865621397E0,4.935086229E0
1.024705863E1,4.524117343E0,-1.397516701E0,-1.318340723E0,4.915151363E0
1.025698563E1,4.601375726E0,-1.594480160E0,-1.482766181E-1,4.872064399E0
1.026691263E1,3.951347486E0,-1.474241526E0,9.406450903E-1,4.321035549E0
1.027683963E1,2.945955884E0,-1.032586125E0,1.262728440E0,3.367398594E0
1.028676663E1,2.073748945E0,-5.458200395E-1,8.181470919E-1,2.295151164E0
1.029669362E1,1.208033584E0,-4.984195858E-1,3.664245397E-1,1.357215594E0
1.030661962E1,6.699698764E-1,-8.255730557E-1,2.964655280E-1,1.103776388E0
1.031654663E1,6.729718369E-1,-1.302956699E0,6.287817970E-1,1.595604525E0
1.032647363E1,7.848904681E-1,-1.854225174E0,1.713359317E0,2.643823782E0
1.033640063E1,6.143458986E-1,-2.419042232E0,3.385739007E0,4.206235232E0
1.034632763E1,4.369390368E-2,-3.064851998E0,4.999104504E0,5.863980966E0
1.035625463E1,-9.516694307E-1,-3.830888704E0,6.503471469E0,7.607662198E0
1.036618163E1,-1.844905881E0,-4.394131107E0,7.491762596E0,8.879108778E0
1.037610862E1,-2.454655284E0,-4.290092769E0,8.916634911E0,1.019493044E1
1.038603562E1,-2.826314251E0,-4.931144655E0,8.559951832E0,1.027506765E1
1.039596262E1,-3.928216193E0,-5.237769136E0,6.956273417E0,9.552740331E0
1.040588962E1,-5.186387313E0,-4.184691444E0,5.254624320E0,8.486538316E0
1.041581662E1,-6.114538073E0,-2.652308714E0,2.376590862E0,7.076051264E0
1.042574263E1,-6.823590739E0,-1.476188064E0,-7.821270740E-1,7.025115268E0
1.043566963E1,-7.105303157E0,-2.819346124E-1,-2.793755492E0,7.640018968E0
1.044559663E1,-6.354621239E0,1.091440689E0,-3.273919194E0,7.231251673E0
1.045552363E1,-5.036802673E0,1.704988443E0,-3.708956716E0,6.483265125E0
1.046545062E1,-3.716482667E0,2.146360254E0,-4.011436690E0,5.874583396E0
1.047537762E1,-2.266311790E0,2.553237001E0,-4.081985101E0,5.321446295E0
1.048530462E1,-8.412207896E-1,2.922979251E0,-3.478177055E0,4.620516826E0
1.049523162E1,5.053830349E-1,3.029352382E0,-3.138834186E0,4.391431193E0
1.050515829E1,1.584217127E0,3.236113436E0,-2.485091211E0,4.376968403E0
1.051508529E1,1.892889887E0,3.392680821E0,-2.160915143E0,4.445544909E0
1.052501229E1,1.480131426E0,3.493804908E0,-2.522056139E0,4.556119943E0
1.053493929E1,4.894803625E-1,3.616405817E0,-2.978009736E0,4.710257323E0
1.054486529E1,-8.285820329E-1,3.728121550E0,-3.440903978E0,5.140550424E0
1.055479229E1,-2.256928178E0,3.810571969E0,-4.009978687E0,5.974455004E0
1.056471929E1,-2.997597324E0,4.163648484E0,-4.487345665E0,6.815998059E0
1.057464629E1,-3.389475378E0,4.336199234E0,-4.883529316E0,7.357990603E0
1.058457329E1,-3.686571236E0,4.211688039E0,-5.047448698E0,7.536966364E0
1.059450029E1,-3.877921368E0,4.017310803E0,-4.991431203E0,7.489422252E0
1.060442729E1,-3.756740162E0,3.692579834E0,-4.117629728E0,6.686038966E0
1.061435429E1,-2.794835765E0,2.632206572E0,-2.966482535E0,4.851766382E0
1.062428129E1,-1.601618441E0,1.715027527E0,-2.230539694E0,3.237562104E0
1.063420829E1,-5.410738546E-1,7.067283976E-1,-1.188562356E0,1.484892730E0
1.064413529E1,7.267632973E-1,-3.913979977E-1,-3.443191409E-1,8.943897102E-1
1.065406129E1,2.078274105E0,-1.447660668E0,5.452528596E-2,2.533360944E0
1.066398829E1,3.829928007E0,-2.149725911E0,-2.391973132E-1,4.398509450E0
1.067391529E1,5.345478356E0,-2.027730773E0,-4.029213980E-1,5.731332882E0
1.068384229E1,7.976907833E0,-1.981329609E0,-1.644994256E0,8.382286782E0
1.069376929E1,8.489858919E0,-3.828439305E0,-1.781637254E0,9.482029492E0
1.070369629E1,6.866532691E0,-5.883900499E0,1.659741518E0,9.193709707E0
1.071362329E1,6.474584470E0,-5.273796170E0,2.560946555E0,8.734507276E0
1.072355029E1,5.802098536E0,-4.400560121E0,-2.986038548E-1,7.288239916E0
1.073347729E1,4.596232515E0,-4.130614055E0,-3.020506422E0,6.878283568E0
1.074340429E1,5.195765662E0,-4.499702586E0,-4.946564348E0,8.468282177E0
1.075333129E1,5.229597067E0,-4.475324959E0,-4.958056465E0,8.482897081E0
1.076325829E1,6.045184248E0,-2.694718570E0,-2.707787681E0,7.151075086E0
1.077318429E1,7.416275042E0,-1.129032438E0,1.941446920E0,7.748875137E0
1.078311129E1,5.139328921E0,-1.211014495E0,5.666397525E0,7.745148080E0
1.079303829E1,2.383778844E0,-1.711008151E0,7.788090130E0,8.322517548E0
1.080296529E1,-1.727536476E-1,-2.587476541E0,7.539122120E0,7.972655832E0
1.081289229E1,-5.798211308E0,-2.791827958E0,3.550115349E0,7.349617453E0
1.082281929E1,-8.961755535E0,-2.862476356E0,1.383592726E0,9.509004259E0
1.083274629E1,-1.007736744E1,-3.538693398E0,9.417519683E-1,1.072206055E1
1.084267329E1,-1.046631487E1,-3.420901823E0,8.931621909E-3,1.101119413E1
1.085260029E1,-1.005101521E1,-2.944538519E0,8.767899871E-2,1.047381981E1
1.086252729E1,-8.659349821E0,-1.418883596E0,2.054627380E0,9.012161985E0
1.087245429E1,-7.433738337E0,-2.870550191E-1,3.890768870E0,8.395293243E0
1.088238129E1,-6.694170806E0,1.642482877E-2,5.717568263E0,8.803566289E0
1.089230729E1,-5.545994584E0,2.477371716E-1,6.893471982E0,8.850953938E0
1.090223429E1,-4.187795146E0,3.841907197E-1,6.647763210E0,7.866256186E0
1.091216129E1,-3.191078766E0,4.785384679E-1,5.742686148E0,6.587141030E0
1.092208829E1,-2.414350426E0,6.111047870E-1,4.546519780E0,5.183954007E0
1.093201529E1,-1.719180220E0,7.790590400E-1,3.520125564E0,3.994220525E0
1.094194229E1,-1.005003639E0,1.225460626E0,3.277766369E0,3.640815627E0
1.095186929E1,-4.011727881E-1,1.941666775E0,2.538165218E0,3.220759560E0
1.096179629E1,-2.089286166E-1,2.596442077E0,1.366997743E0,2.941741909E0
1.097172329E1,-2.768457806E-1,3.072021269E0,4.677895314E-1,3.119741225E0
1.098165029E1,-5.191725236E-1,3.474354145E0,-8.624309796E-1,3.617245365E0
1.099157729E1,-5.021612191E-1,3.927370686E0,-2.099022950E0,4.481328345E0
1.100150329E1,-4.478844398E-1,4.339357899E0,-2.784064609E0,5.175098376E0
1.101143029E1,-4.770392418E-1,4.517119102E0,-3.756376466E0,5.894259544E0
1.102135729E1,-4.253311443E-1,4.608063771E0,-4.568684528E0,6.502925235E0
1.103128429E1,-3.276803041E-1,4.701660737E0,-4.889985520E0,6.791534911E0
1.104121129E1,-2.840782017E-1,4.567732016E0,-4.584483705E0,6.477836602E0
1.105113829E1,-2.883601177E-1,4.353219309E0,-4.203552223E0,6.058343107E0
1.106106529E1,-5.157250053E-1,4.093332208E0,-3.670878186E0,5.522380601E0
1.107099229E1,-8.952443844E-1,3.843364908E0,-3.368158184E0,5.188198712E0
1.108091929E1,-1.231588508E0,3.391439458E0,-3.058540514E0,4.730046714E0
1.109084629E1,-1.495152338E0,2.698634450E0,-2.657252828E0,4.071744221E0
1.110077329E1,-1.594052144E0,1.950155763E0,-2.422084538E0,3.494367360E0
1.111070029E1,-1.497006490E0,1.191609340E0,-2.038338207E0,2.795672352E0
1.112062629E1,-1.152622445E0,4.060698313E-1,-1.409397073E0,1.865430599E0
1.113055329E1,-5.045480525E-1,-3.345636463E-1,-9.175760704E-1,1.099294053E0
1.114048029E1,3.654638422E-1,-1.097129445E0,-5.712957734E-1,1.289820026E0
1.115040729E1,1.137656497E0,-1.818227960E0,-6.379169020E-1,2.237666908E0
1.116033429E1,2.239273095E0,-2.039673711E0,-1.639224516E0,3.444077504E0
1.117026129E1,2.948704661E0,-2.277487573E0,-2.894345728E0,4.717949344E0
1.118018829E1,3.620940333E0,-2.453610386E0,-3.446735407E0,5.568787820E0
1.119011529E1,4.677424028E0,-2.156007575E0,-3.129606111E0,6.026698815E0
1.120004229E1,5.666694564E0,-1.856202702E0,-2.203787513E0,6.357168800E0
1.120996929E1,6.136470979E0,-1.840824525E0,-1.304811435E0,6.538152942E0
1.121989629E1,6.187274512E0,-1.840105902E0,-1.146852413E0,6.556189905E0
1.122982329E1,5.859400080E0,-1.704737012E0,-1.311167359E0,6.241622980E0
1.123974929E1,5.482597902E0,-1.659402380E0,-1.109479349E0,5.834675693E0
1.124967629E1,5.503442057E0,-1.673516389E0,-6.029125455E-1,5.783773432E0
1.125960329E1,5.415827962E0,-1.665692815E0,2.913933608E-1,5.673679155E0
1.126953029E1,4.477663261E0,-1.975108756E0,5.815041348E-1,4.928353674E0
1.127945729E1,3.204582911E0,-1.773451152E0,5.269692010E-1,3.700294199E0
1.128938429E1,2.291824361E0,-1.532081598E0,5.332458946E-1,2.807861127E0
1.129931129E1,1.456706311E0,-2.182451023E0,1.811783159E-1,2.630192260E0
1.130923829E1,1.062535563E0,-2.655797748E0,-2.964517871E-1,2.875782878E0
1.131916529E1,1.044082920E0,-2.493461500E0,2.569754800E-1,2.715418162E0
1.132909229E1,7.388641101E-1,-2.301544188E0,2.520527092E0,3.492289026E0
1.133901929E1,-3.565515161E-2,-2.451948608E0,4.820345766E0,5.408239692E0
1.134894529E1,-9.307229501E-1,-2.876038973E0,6.856615813E0,7.493398814E0
1.135887229E1,-1.765787791E0,-3.514327465E0,8.446489536E0,9.317279085E0
1.136879929E1,-2.254310964E0,-4.205961276E0,9.386833495E0,1.053017907E1
1.137872629E1,-2.408298558E0,-3.695448478E0,1.048368344E1,1.137382345E1
1.138865329E1,-2.613636400E0,-4.841534321E0,8.777350141E0,1.035921934E1
1.139858029E1,-3.743775716E0,-5.668590231E0,6.154689149E0,9.166731715E0
1.140850729E1,-5.103849186E0,-4.645118161E0,3.696499808E0,7.828825588E0
1.141843429E1,-6.013853112E0,-2.685561245E0,5.898390484E-1,6.612607546E0
1.142836129E1,-6.494824022E0,-1.164744893E0,-2.249614481E0,6.971379710E0
1.143828829E1,-6.667491716E0,7.176697075E-2,-3.187852857E0,7.390737589E0
1.144821529E1,-5.525575522E0,1.248081164E0,-2.981341479E0,6.401413005E0
1.145814229E1,-3.842051039E0,1.755870329E0,-2.863684976E0,5.103442802E0
1.146806829E1,-1.970879465E0,2.140573849E0,-2.484719035E0,3.826258088E0
1.147799529E1,2.282834852E-1,2.250209143E0,-1.569649374E0,2.753062602E0
1.148792229E1,2.697318826E0,2.288885550E0,-1.293875680E0,3.766781144E0
1.149784929E1,4.406502646E0,2.275068580E0,-1.683121026E0,5.236993317E0
1.150777625E1,4.315553300E0,2.263477644E0,-2.224410058E0,5.356802352E0
1.151770325E1,2.943483097E0,2.376776218E0,-3.181353677E0,4.943093075E0
1.152763025E1,-1.342099714E-1,2.484357970E0,-3.471850952E0,4.271275673E0
1.153755725E1,-2.562132955E0,2.639994478E0,-3.601275562E0,5.148133817E0
1.154748425E1,-3.744822952E0,2.924968473E0,-3.860228863E0,6.122132503E0
1.155741125E1,-4.274810486E0,3.456120772E0,-4.351334459E0,7.010911999E0
1.156733825E1,-4.488451374E0,4.035840045E0,-4.973805356E0,7.821313209E0
1.157726425E1,-4.726456439E0,4.311364939E0,-5.331719273E0,8.327934229E0
1.158719125E1,-4.757663614E0,4.360658137E0,-5.209578540E0,8.293998494E0
1.159711825E1,-4.464360260E0,4.075723903E0,-4.577674622E0,7.582687044E0
1.160704525E1,-3.920689073E0,3.367444823E0,-3.698928741E0,6.355592913E0
1.161697225E1,-3.227609830E0,2.584975687E0,-2.953899912E0,5.081839156E0
1.162689925E1,-2.562740480E0,1.643647642E0,-2.329467566E0,3.833488683E0
1.163682625E1,-1.711595796E0,6.926097107E-1,-1.837362973E0,2.604836094E0
1.164675325E1,-5.081826818E-1,-2.807394415E-1,-1.423037458E0,1.536912450E0
1.165668025E1,1.100503289E0,-1.037795994E0,-1.316929205E0,2.005599796E0
1.166660725E1,3.225927587E0,-1.512665334E0,-1.671640310E0,3.935625304E0
1.167653425E1,4.427507599E0,-1.635786061E0,-1.389741366E0,4.920365905E0
1.168646025E1,7.111460275E0,-1.332845326E0,-2.264855248E0,7.581484894E0
1.169638725E1,9.020166880E0,-2.182979611E0,-2.669019472E0,9.656732132E0
1.170631425E1,7.922986565E0,-4.671014310E0,1.236803347E0,9.280181750E0
1.171624125E1,6.583941436E0,-5.031380550E0,5.377163833E0,9.878105383E0
1.172616825E1,6.183835765E0,-4.414002870E0,3.542411934E0,8.382835344E0
1.173609525E1,4.246316419E0,-4.539858924E0,1.569971555E-1,6.218212789E0
1.174602225E1,3.195278236E0,-4.742921029E0,-2.758677168E0,6.349441126E0
1.175594925E1,4.026065839E0,-4.595228548E0,-4.566656713E0,7.627560887E0
1.176587625E1,4.249750489E0,-3.872528481E0,-4.871657422E0,7.535907516E0
1.177580325E1,5.454706099E0,-2.455018981E0,-3.420529063E0,6.890642633E0
1.178573025E1,7.203047553E0,-1.436401269E0,4.169041371E-1,7.356694347E0
1.179565725E1,5.618558530E0,-1.425413182E0,3.097512206E0,6.572258711E0
1.180558325E1,1.659558501E0,-1.576566045E0,4.518720655E0,5.065425083E0
1.181551025E1,-9.742209721E-1,-1.418266130E0,5.010473245E0,5.297681329E0
1.182543725E1,-5.354360277E0,-8.563913906E-1,2.341160828E0,5.906235198E0
1.183536425E1,-8.475929098E0,-4.094524455E-1,-5.324766934E-2,8.485980243E0
1.184529125E1,-8.840680749E0,-3.478765869E-1,7.832532477E-1,8.882124739E0
1.185521825E1,-8.800417991E0,-1.236313643E0,3.153759497E0,9.429847677E0
1.186514525E1,-8.677882571E0,-2.443153811E0,4.514484347E0,1.008242111E1
1.187507225E1,-7.896867052E0,-2.411022191E0,5.537934197E0,9.941944097E0
1.188499925E1,-6.929138829E0,-1.589996515E0,6.532121072E0,9.654514981E0
1.189492625E1,-6.359654523E0,-8.404431099E-1,7.197490944E0,9.641339438E0
1.190485325E1,-5.958968807E0,-2.955445915E-1,6.943673837E0,9.154849109E0
1.191478025E1,-5.434862403E0,9.578090072E-2,6.092319823E0,8.164757446E0
1.192470625E1,-4.552957272E0,6.055686432E-1,5.385296726E0,7.077962569E0
1.193463325E1,-3.709584707E0,8.972979265E-1,4.498078814E0,5.899057152E0
1.194456025E1,-3.020861056E0,1.070906437E0,3.555594774E0,4.786929738E0
1.195448725E1,-2.462038563E0,1.250061616E0,2.644401525E0,3.823237810E0
1.196441425E1,-1.788703614E0,1.620442382E0,2.080051366E0,3.186205866E0
1.197434125E1,-1.185585539E0,2.205815912E0,1.598987194E0,2.971194533E0
1.198426825E1,-8.049411553E-1,2.925699960E0,3.644440877E-1,3.056218253E0
1.199419525E1,-4.073556340E-1,3.674811900E0,-5.330655080E-1,3.735550823E0
1.200412225E1,-1.236341125E-1,3.984834198E0,-1.319276277E0,4.199366485E0
1.201404925E1,2.277239066E-1,4.162570258E0,-2.442682525E0,4.831723010E0
1.202397625E1,4.106376761E-1,4.159938426E0,-3.328824549E0,5.343667644E0
1.203390325E1,3.764759034E-1,4.090229090E0,-4.078625291E0,5.788513832E0
1.204382925E1,1.986468726E-1,3.853720327E0,-4.592763362E0,5.998674540E0
1.205375625E1,1.726513213E-1,3.540676773E0,-4.630397796E0,5.831533610E0
1.206368325E1,2.487358761E-1,3.389400533E0,-4.446685882E0,5.596688382E0
1.207361025E1,-3.639891744E-3,3.215865113E0,-3.917843817E0,5.068658782E0
1.208353725E1,-5.190204960E-1,2.912125064E0,-3.679090893E0,4.720758886E0
1.209346425E1,-1.006260206E0,2.414836915E0,-3.656463045E0,4.495966962E0
1.210339125E1,-1.388524852E0,1.707054264E0,-3.187829468E0,3.873537433E0
1.211331825E1,-1.590390033E0,9.149056470E-1,-2.673657483E0,3.242658961E0
1.212324525E1,-1.630666823E0,1.986445338E-1,-2.267265471E0,2.799826183E0
1.213317225E1,-1.353249770E0,-3.124752045E-1,-1.799847530E0,2.273406436E0
1.214309925E1,-6.962925795E-1,-6.510652435E-1,-1.309032833E0,1.619344393E0
1.215302625E1,2.145855054E-1,-1.008895546E0,-1.035592763E0,1.461632489E0
1.216295325E1,1.032992214E0,-1.386156730E0,-1.324890774E0,2.178035573E0
1.217287925E1,1.813458094E0,-1.759894382E0,-2.342862952E0,3.445992645E0
1.218280625E1,2.508339448E0,-1.904728745E0,-3.534164729E0,4.733928465E0
1.219273325E1,3.309730174E0,-1.765977241E0,-3.933964006E0,5.435904915E0
1.220266025E1,3.855484724E0,-1.511637978E0,-3.649075965E0,5.519562232E0
1.221258725E1,4.530896897E0,-8.906560743E-1,-2.590547499E0,5.294641751E0
1.222251425E1,4.833917153E0,-5.460656226E-1,-1.472951630E0,5.082767869E0
1.223244125E1,4.709312403E0,-3.628542298E-1,-1.043667768E0,4.837202592E0
1.224236825E1,4.423137390E0,-1.409471333E-2,-1.365737084E0,4.629209524E0
1.225229525E1,3.911884043E0,5.887444496E-2,-1.646241467E0,4.244574647E0
1.226222225E1,3.704707252E0,-2.511227095E-1,-1.350843056E0,3.951290346E0
1.227214925E1,3.820092113E0,-1.015784735E0,-4.131110483E-1,3.974365750E0
1.228207625E1,4.360303503E0,-1.910008780E0,3.546359682E-1,4.773483723E0
1.229200225E1,4.369081928E0,-2.850185509E0,7.699028850E-1,5.273062182E0
1.230192925E1,4.135160850E0,-3.594196338E0,1.004850442E0,5.570235810E0
1.231185625E1,4.073227141E0,-4.223224595E0,8.027683300E-1,5.922097797E0
1.232178325E1,3.087521946E0,-4.797096652E0,1.394354526E0,5.872746597E0
1.233171025E1,2.501283028E0,-4.882257255E0,1.940706955E0,5.818865540E0
1.234163725E1,2.106077031E0,-4.494693276E0,2.384128507E0,5.506532198E0
1.235156425E1,1.067885765E0,-3.822059408E0,3.700332365E0,5.425954086E0
1.236149125E1,-2.320327199E-1,-3.041490617E0,5.236448250E0,6.060106817E0
1.237141825E1,-1.320402451E0,-2.455449920E0,6.437833550E0,7.015582496E0
1.238134525E1,-2.274061105E0,-2.085722873E0,7.319539876E0,7.943378236E0
1.239127225E1,-2.808012758E0,-1.891592390E0,7.165045913E0,7.924704434E0
1.240119925E1,-2.818042195E0,-1.330491237E0,6.939493663E0,7.607111215E0
1.241112525E1,-2.321215391E0,-1.172601212E0,6.437772739E0,6.943194677E0
1.242105225E1,-2.674392186E0,-2.732783943E0,4.267815169E0,5.730159506E0
1.243097925E1,-3.541586892E0,-2.695444209E0,2.325161676E0,5.021417531E0
1.244090625E1,-4.422051854E0,-1.820652800E0,1.046451335E0,4.895342646E0
1.245083325E1,-4.917751608E0,-1.325018243E0,-9.341251525E-1,5.178083045E0
1.246076025E1,-5.104599969E0,-9.323578316E-1,-2.584638011E0,5.797118734E0
1.247068725E1,-4.704587268E0,-3.017473179E-1,-2.436612530E0,5.306719649E0
1.248061425E1,-3.394510415E0,1.781295776E-1,-1.887685280E0,3.888159825E0
1.249054125E1,-1.859421594E0,5.852519077E-1,-1.861249141E0,2.695221109E0
1.250046825E1,-1.219571310E-1,9.189595217E-1,-2.122612080E0,2.316212897E0
1.251039517E1,2.247298983E0,9.621213287E-1,-1.726215590E0,2.992632693E0
1.252032217E1,4.549667044E0,7.763003236E-1,-1.179503850E0,4.763752904E0
1.253024917E1,5.782084102E0,1.077994432E0,-1.844178780E0,6.164054180E0
1.254017517E1,3.911346391E0,1.068680402E0,-2.538792624E0,4.783949872E0
1.255010217E1,1.330056789E0,1.031255883E0,-2.781111766E0,3.250711062E0
1.256002917E1,-5.288403100E-1,1.256989982E0,-3.620400635E0,3.868720285E0
1.256995617E1,-2.482617254E0,1.415834858E0,-4.212379180E0,5.090394398E0
1.257988317E1,-3.708157986E0,1.941262148E0,-4.441216396E0,6.102731967E0
1.258981017E1,-3.745799437E0,2.637317038E0,-4.864991012E0,6.682409156E0
1.259973717E1,-3.682569986E0,3.219865193E0,-5.123626809E0,7.083812903E0
1.260966417E1,-3.460267033E0,3.870438101E0,-4.902443597E0,7.140566662E0
1.261959117E1,-3.359511614E0,4.114297400E0,-4.991925293E0,7.289244097E0
1.262951817E1,-3.266133041E0,3.832075104E0,-4.371705281E0,6.668150547E0
1.263944517E1,-3.112891552E0,3.180059103E0,-3.078835030E0,5.411293270E0
1.264937217E1,-2.868201073E0,2.604305997E0,-2.456225846E0,4.587159527E0
1.265929817E1,-2.462570952E0,1.582348942E0,-1.871893705E0,3.474488438E0
1.266922517E1,-1.367759635E0,4.232004189E-1,-1.082244188E0,1.794747196E0
1.267915217E1,9.525026590E-2,-5.581214118E-1,-5.813085455E-1,8.114750449E-1
1.268907917E1,2.006095783E0,-1.074206021E0,-6.070134902E-1,2.355165438E0
1.269900617E1,3.836039516E0,-1.518551726E0,-8.838002139E-1,4.219277347E0
1.270893317E1,5.279411252E0,-2.227413188E0,-1.680417858E0,5.971378136E0
1.271886017E1,5.439631977E0,-2.811845316E0,-3.431812727E0,7.019502028E0
1.272878717E1,5.180550622E0,-2.365713871E0,-4.013301952E0,6.967158634E0
1.273871417E1,5.415371879E0,-5.956190211E-1,-1.305011410E0,5.602148641E0
1.274864117E1,5.274974384E0,4.796067542E-1,2.669004854E0,5.931185742E0
1.275856817E1,5.786581780E0,7.010928512E-1,3.283791048E0,6.690242412E0
1.276849517E1,6.934934004E0,7.842490286E-1,1.806593170E0,7.209170206E0
1.277842117E1,7.312521463E0,2.346645516E-1,5.706461477E-1,7.338506294E0
1.278834817E1,3.396011980E0,-1.049997379E0,7.189502478E-2,3.555356629E0
1.279827517E1,2.381189112E0,-6.531258023E-1,1.074577904E-1,2.471473665E0
1.280820217E1,3.068700635E0,-2.054062539E-1,2.274973855E0,3.825522364E0
1.281812917E1,5.734703529E-1,-2.594832923E0,6.748434722E0,7.252819958E0
1.282805617E1,-1.121379018E0,-4.497595249E0,9.796913931E0,1.083814451E1
1.283798317E1,-2.697662058E0,-4.865583335E0,1.026064257E1,1.167184937E1
1.284791017E1,-7.380260872E0,-5.117263284E0,6.949037488E0,1.135534042E1
1.285783717E1,-1.021366604E1,-5.318481762E0,4.881345674E0,1.250730818E1
1.286776417E1,-1.086728418E1,-5.083320782E0,2.298639291E0,1.221563581E1
1.287769117E1,-1.062670985E1,-4.281789722E0,5.191444570E-1,1.146866149E1
1.288761817E1,-9.073972374E0,-2.790025261E0,4.470950657E-1,9.503741874E0
1.289754517E1,-7.690510041E0,-2.139997314E0,1.492452094E0,8.121018806E0
1.290747117E1,-6.878047028E0,-1.918562672E0,2.811400343E0,7.674137445E0
1.291739817E1,-5.967300505E0,-1.642199287E0,4.170884998E0,7.463362211E0
1.292732517E1,-4.898282719E0,-1.539960136E0,5.218137109E0,7.320765377E0
1.293725217E1,-3.661731094E0,-1.267187526E0,6.021601258E0,7.160567054E0
1.294717917E1,-2.531472495E0,-9.000151277E-1,5.901487754E0,6.484283918E0
1.295710617E1,-1.789467260E0,-3.540003759E-1,5.213613119E0,5.523519810E0
1.296703317E1,-1.472903098E0,3.089674598E-1,3.963255633E0,4.239374912E0
1.297696017E1,-1.311145139E0,1.012834815E0,2.887255687E0,3.328840840E0
1.298688717E1,-9.720808911E-1,1.867293701E0,1.918293993E0,2.848083367E0
1.299681417E1,-6.680531591E-1,2.717768294E0,6.054338649E-1,2.863408753E0
1.300674117E1,-2.637012398E-1,3.521616020E0,-7.542057422E-1,3.611113960E0
1.301666817E1,-1.935486853E-2,4.063110289E0,-2.284391381E0,4.661296366E0
1.302659417E1,6.803644717E-2,4.442336138E0,-3.519221585E0,5.667794975E0
1.303652117E1,1.299923748E-1,4.666097971E0,-4.112285957E0,6.220953632E0
1.304644817E1,2.586638635E-1,4.914278362E0,-4.238658906E0,6.494864751E0
1.305637517E1,3.551704037E-1,5.152729570E0,-4.197796224E0,6.655693891E0
1.306630217E1,4.335482365E-1,5.301758140E0,-4.233709822E0,6.798595613E0
1.307622917E1,2.426477551E-1,5.169909859E0,-4.357503564E0,6.765699017E0
1.308615617E1,-2.152137887E-1,5.007218685E0,-4.239967512E0,6.564745269E0
1.309608317E1,-8.198357677E-1,4.655104036E0,-3.782818744E0,6.054076472E0
1.310601017E1,-1.428093545E0,4.278407693E0,-3.129405259E0,5.489754169E0
1.311593717E1,-1.866557244E0,3.721569745E0,-2.504639914E0,4.858738356E0
1.312586417E1,-2.130309062E0,3.151339334E0,-2.034830462E0,4.313895144E0
1.313579117E1,-2.268189038E0,2.651031098E0,-1.569587978E0,3.825735722E0
1.314571817E1,-2.348030722E0,2.127458544E0,-1.425822487E0,3.474521246E0
1.315564417E1,-2.395388783E0,1.547108358E0,-1.173478002E0,3.083582707E0
1.316557117E1,-2.244822395E0,7.589048570E-1,-6.731878915E-1,2.463401328E0
1.317549817E1,-1.622659939E0,-2.911761367E-1,-3.518550324E-1,1.685707799E0
1.318542517E1,-8.493060270E-1,-1.399821673E0,-3.221681339E-1,1.668716198E0
1.319535217E1,2.236443043E-1,-2.005879728E0,9.280408323E-2,2.020441253E0
1.320527917E1,1.745093910E0,-2.521564972E0,3.709385902E-1,3.088889461E0
1.321520617E1,3.326800535E0,-2.705643507E0,4.337581515E-2,4.288355168E0
1.322513317E1,4.732719977E0,-2.706572045E0,-9.700890371E-1,5.537620731E0
1.323506017E1,6.010256490E0,-2.349871425E0,-2.647034526E0,6.975089288E0
1.324498717E1,6.637208401E0,-2.478485026E0,-3.263671364E0,7.800447048E0
1.325491417E1,7.377312706E0,-2.404351687E0,-2.208319397E0,8.067361672E0
1.326484017E1,7.454248030E0,-2.216292368E0,-6.352473557E-1,7.802647292E0
1.327476717E1,6.909413247E0,-1.475909151E0,4.069378504E-1,7.076997785E0
1.328469417E1,6.082893527E0,-4.427137470E-1,7.992345652E-1,6.151127133E0
1.329462117E1,4.799072718E0,2.358410114E-1,6.158392775E-1,4.844169480E0
1.330454817E1,3.632316968E0,7.905932575E-1,-4.025749505E-2,3.717577830E0
1.331447517E1,2.901380805E0,1.223708215E0,-9.127971411E-2,3.150207035E0
1.332440217E1,2.516021520E0,8.698768240E-1,-9.636620700E-2,2.663894972E0
1.333432917E1,2.258894304E0,-7.791683829E-1,-9.850277960E-1,2.584567006E0
1.334425617E1,2.062383712E0,-2.772000634E0,-1.670272354E0,3.837606523E0
1.335418317E1,2.079080729E0,-4.307465431E0,-1.665456587E0,5.064640240E0
1.336411017E1,2.390932328E0,-5.397894552E0,-8.306659806E-1,5.961864554E0
1.337403717E1,2.582632416E0,-5.648543637E0,1.671242407E-1,6.213208988E0
1.338396317E1,2.682673013E0,-5.065248207E0,1.696205925E0,5.977506875E0
1.339389017E1,2.482620762E0,-3.889803495E0,3.780018513E0,5.965108300E0
1.340381717E1,2.003581480E0,-2.618072682E0,5.374161873E0,6.304780658E0
1.341374417E1,1.073105575E0,-1.418756127E0,6.298299689E0,6.544692773E0
1.342367117E1,-2.706719980E-1,-5.305956441E-1,6.067950382E0,6.097115458E0
1.343359817E1,-1.457702968E0,-3.999553978E-2,4.834983101E0,5.050104868E0
1.344352517E1,-1.962234649E0,1.097335267E-1,3.303380390E0,3.843790871E0
1.345345217E1,-2.176459381E0,2.011056268E-1,1.926488573E0,2.913550606E0
1.346337917E1,-2.537096054E0,1.750013173E-1,7.650695765E-1,2.655713333E0
1.347330617E1,-2.413492932E0,5.003345490E-1,9.274654663E-1,2.633528998E0
1.348323317E1,-2.441884380E0,-5.524303168E-1,8.427732253E-1,2.641636858E0
1.349315917E1,-3.016410740E0,-1.574198508E0,3.531554532E-1,3.420753348E0
1.350308650E1,-3.466759489E0,-1.971383495E0,1.501933354E-1,3.990906197E0
1.351301350E1,-3.359220715E0,-1.757829731E0,-1.257280004E-1,3.793433366E0
1.352294050E1,-2.600251538E0,-1.316126967E0,-1.879920763E-1,2.920417654E0
1.353286750E1,-1.341706197E0,-1.041405480E0,-4.914882964E-1,1.768123762E0
1.354279450E1,3.719168293E-1,-6.744412422E-1,-1.022625977E0,1.280217562E0
1.355272150E1,2.080265959E0,-2.933682579E-1,-1.092288243E0,2.367839733E0
1.356264850E1,2.932288018E0,-6.064416325E-1,-1.345455139E0,3.282732704E0
1.357257550E1,2.417739472E0,-9.963491750E-1,-1.889300866E0,3.226086421E0
1.358250250E1,8.266834420E-1,-9.487107396E-1,-2.401522220E0,2.711229712E0
1.359242950E1,-8.633039689E-1,-5.775710052E-1,-3.104432970E0,3.273589173E0
1.360235550E1,-2.151994923E0,9.480032265E-2,-4.148936305E0,4.674798575E0
1.361228250E1,-2.876012660E0,9.415174949E-1,-5.172353411E0,5.992590744E0
1.362220950E1,-3.293630158E0,1.706006443E0,-5.369501642E0,6.526101860E0
1.363213650E1,-3.580481401E0,2.500313267E0,-5.117238141E0,6.727372421E0
1.364206350E1,-4.047027522E0,3.365200077E0,-6.034358713E0,8.007277215E0
1.365199050E1,-4.368195198E0,3.807022124E0,-6.851234035E0,8.972956845E0
1.366191750E1,-4.177316936E0,4.141623777E0,-5.429910981E0,8.005433002E0
1.367184450E1,-3.973889964E0,4.138541125E0,-4.253052412E0,7.141973040E0
1.368177150E1,-3.736437753E0,3.628708359E0,-3.456619540E0,6.251136703E0
1.369169850E1,-3.211081798E0,3.040942149E0,-2.840622972E0,5.256188195E0
1.370162550E1,-3.128596589E0,2.109773056E0,-2.229265001E0,4.382793790E0
1.371155250E1,-2.686661983E0,1.242506429E0,-1.558913301E0,3.345472391E0
1.372147850E1,-1.529903218E0,7.355949318E-1,-1.330302372E0,2.156712350E0
1.373140550E1,2.535747394E-1,5.743877810E-1,-1.766184232E0,1.874467448E0
1.374133250E1,2.251753392E0,1.949245352E-1,-1.682060341E0,2.817395234E0
1.375125950E1,4.468364726E0,-4.623943055E-1,-1.387599823E0,4.701651315E0
1.376118650E1,6.716878468E0,-1.317668293E0,-1.162448106E0,6.942909454E0
1.377111350E1,8.135276746E0,-1.650603490E0,-1.903487381E0,8.516483066E0
1.378104050E1,8.703327314E0,-9.727656001E-1,-3.155342338E0,9.308617756E0
1.379096750E1,8.252266667E0,-9.127655661E-1,-2.186076297E0,8.585567873E0
1.380089450E1,6.971592538E0,-1.065832808E0,3.217909300E0,7.752034723E0
1.381082150E1,5.023006167E0,-6.521510714E-1,6.388208231E0,8.152612856E0
1.382074750E1,4.272099132E0,-1.127477079E0,4.719865458E0,6.465227413E0
1.383067450E1,5.773871688E0,-1.820468028E0,3.165727578E0,6.831802778E0
1.384060150E1,6.250527352E0,-3.036234555E0,2.454707909E0,7.369762776E0
1.385052850E1,5.017864126E0,-3.072536409E0,1.178495790E0,6.000691018E0
1.386045550E1,3.784174421E0,-2.489186016E0,1.609665379E0,4.806978854E0
1.387038250E1,1.439959593E0,-2.225424550E0,4.486816492E0,5.211287776E0
1.388030950E1,-1.143977629E0,-2.796965906E0,7.137980322E0,7.751288033E0
1.389023650E1,-5.534831080E0,-3.470187419E0,5.856710361E0,8.773688623E0
1.390016350E1,-8.761850342E0,-2.769935398E0,3.284069960E0,9.758467042E0
1.391009050E1,-1.128688739E1,-2.029884887E0,1.757256703E0,1.160181929E1
1.392001750E1,-1.267518479E1,-2.588421451E0,2.554494737E0,1.318657189E1
1.392994350E1,-1.259103049E1,-3.975620155E0,2.242844574E0,1.339290694E1
1.393987050E1,-1.105912899E1,-5.036168835E0,3.582179725E-2,1.215189753E1
1.394979750E1,-7.665626045E0,-3.773002439E0,-6.868595588E-1,8.571414476E0
1.395972450E1,-4.898669804E0,-2.466387722E0,7.178977489E-2,5.484996629E0
1.396965150E1,-3.721329717E0,-2.277590484E0,1.013934676E0,4.479260743E0
1.397957850E1,-3.315931731E0,-2.166774638E0,2.389575773E0,4.626055334E0
1.398950550E1,-2.817881104E0,-1.844489560E0,4.061235087E0,5.276004746E0
1.399943250E1,-2.198040577E0,-1.265464352E0,5.374179999E0,5.942608271E0
1.400935950E1,-1.572494044E0,-3.895561248E-1,5.626059338E0,5.854659270E0
1.401928650E1,-1.279216418E0,5.868113601E-1,4.798118745E0,5.000268564E0
1.402921350E1,-1.518088042E0,1.269555649E0,3.542835565E0,4.058084116E0
1.403914050E1,-1.879600920E0,1.768696781E0,1.907157093E0,3.209117651E0
1.404906650E1,-1.991973295E0,2.351874681E0,1.952285904E-1,3.088265909E0
1.405899350E1,-1.686355121E0,3.259656665E0,-1.367278410E0,3.916453168E0
1.406892050E1,-1.328958097E0,4.193147103E0,-2.165507838E0,4.902860027E0
1.407884750E1,-5.801493350E-1,5.035166037E0,-2.939233341E0,5.859058192E0
1.408877450E1,-7.072411984E-2,5.382277808E0,-3.648416984E0,6.502681201E0
1.409870150E1,2.412198651E-1,5.524188563E0,-4.268320954E0,6.985227989E0
1.410862850E1,6.783138531E-1,5.642837339E0,-4.825406239E0,7.455619913E0
1.411855550E1,1.066358473E0,5.667730690E0,-4.971935416E0,7.614488384E0
1.412848250E1,1.468914127E0,5.556523665E0,-4.466073495E0,7.278631493E0
1.413840950E1,1.674743135E0,5.160393516E0,-3.562824564E0,6.490619746E0
1.414833550E1,1.378600666E0,4.533557965E0,-2.536886432E0,5.374893523E0
1.415826250E1,7.158696422E-1,3.746740839E0,-1.844804724E0,4.237197273E0
1.416818950E1,-1.338339955E-1,2.969754637E0,-1.702686394E0,3.425856841E0
1.417811650E1,-9.451895463E-1,2.280793589E0,-1.794730339E0,3.052287611E0
1.418804350E1,-1.588557808E0,1.594498871E0,-1.779619672E0,2.869318514E0
1.419797050E1,-1.873756628E0,8.853421247E-1,-1.626930453E0,2.634710093E0
1.420789750E1,-1.848226223E0,1.885838145E-1,-1.581110501E0,2.439552099E0
1.421782450E1,-1.522435739E0,-4.940499616E-1,-1.683344389E0,2.322831091E0
1.422775150E1,-8.558706960E-1,-1.242093031E0,-1.290603286E0,1.985186789E0
1.423767850E1,-5.448581725E-2,-1.906546644E0,-8.163069731E-1,2.074667656E0
1.424760450E1,8.575313053E-1,-2.437510078E0,-7.329514056E-1,2.685895211E0
1.425753150E1,1.692777702E0,-2.816023736E0,-1.097508345E0,3.464103145E0
1.426745850E1,2.611157765E0,-2.845741625E0,-1.593758029E0,4.178092259E0
1.427738550E1,3.449998153E0,-2.712357280E0,-2.158700802E0,4.890742114E0
1.428731250E1,3.887902565E0,-2.541575314E0,-2.137314611E0,5.113071990E0
1.429723950E1,4.495094688E0,-1.914050961E0,-1.548885326E0,5.125281757E0
1.430716650E1,4.366963189E0,-1.506163230E0,-1.143246435E0,4.758771646E0
1.431709350E1,3.805095174E0,-1.352281471E0,-1.466814100E0,4.296388956E0
1.432702050E1,3.088672970E0,-1.325169686E0,-2.318058771E0,4.082814211E0
1.433694750E1,2.604469427E0,-1.452010412E0,-2.869309997E0,4.138180167E0
1.434687450E1,2.526578083E0,-1.659162059E0,-2.592000532E0,3.981818970E0
1.435680050E1,2.987034329E0,-1.984061428E0,-1.911220616E0,4.063451497E0
1.436672750E1,3.742096103E0,-2.289911737E0,-7.051613438E-1,4.443448158E0
1.437665450E1,4.436410862E0,-2.388934919E0,1.270477170E-1,5.040326627E0
1.438658150E1,4.344316338E0,-2.297169886E0,4.000489533E-1,4.930528683E0
1.439650850E1,3.539612580E0,-2.361981593E0,7.254476738E-1,4.316721973E0
1.440643550E1,2.574138750E0,-2.341327474E0,9.510209745E-1,3.607276748E0
1.441636250E1,1.558489963E0,-2.533015575E0,5.375260565E-1,3.022249680E0
1.442628950E1,1.121697106E0,-2.766490803E0,3.670276800E-1,3.007720911E0
1.443621650E1,9.148310950E-1,-2.752921754E0,1.099068674E0,3.102167962E0
1.444614350E1,7.264609963E-2,-2.748565578E0,2.372438754E0,3.631577596E0
1.445606950E1,-1.025232666E0,-2.582159083E0,4.030967267E0,4.895645480E0
1.446599650E1,-2.138272093E0,-2.308015886E0,5.768605685E0,6.570841379E0
1.447592350E1,-3.139384117E0,-2.469454002E0,7.010891089E0,8.068861727E0
1.448585050E1,-3.181923780E0,-2.269185696E0,8.065459237E0,8.962448068E0
1.449577750E1,-2.682003507E0,-2.288133014E0,7.978164400E0,8.722373684E0
1.450570467E1,-2.983822161E0,-3.133022346E0,6.074370625E0,7.457680752E0
1.451563167E1,-4.108535846E0,-3.477368385E0,4.902920438E0,7.280850671E0
1.452555867E1,-5.113145674E0,-3.018979422E0,3.217418718E0,6.753538232E0
1.453548567E1,-5.721996945E0,-2.077867724E0,2.065233645E-1,6.091094746E0
1.454541267E1,-6.500934947E0,-1.435542898E0,-2.180489574E0,7.005531627E0
1.455533867E1,-6.791921049E0,-7.393780804E-1,-2.670923910E0,7.335578097E0
1.456526567E1,-5.629593980E0,-2.121428311E-2,-3.057068185E0,6.406125531E0
1.457519267E1,-4.111552424E0,4.406169355E-1,-3.090069577E0,5.162125203E0
1.458511967E1,-2.440259439E0,5.931895030E-1,-2.771911756E0,3.740352216E0
1.459504667E1,-3.519330928E-1,5.562970805E-1,-1.993385983E0,2.099264399E0
1.460497367E1,2.360835831E0,5.154496014E-1,-1.812772508E0,3.020824106E0
1.461490067E1,4.285750042E0,6.542215705E-1,-1.792645514E0,4.691400348E0
1.462482767E1,5.567440417E0,5.170844829E-1,-2.297279813E0,6.044937030E0
1.463475467E1,3.791294283E0,8.668193150E-1,-2.964848823E0,4.890359558E0
1.464468167E1,9.692063999E-1,1.640389574E0,-2.887767026E0,3.459687470E0
1.465460867E1,-8.412722450E-1,2.248302950E0,-3.818938749E0,4.510753631E0
1.466453467E1,-2.282139033E0,2.989332284E0,-4.750138248E0,6.058719291E0
1.467446167E1,-3.219278133E0,3.773667852E0,-5.403510218E0,7.335001256E0
1.468438867E1,-3.737092348E0,4.513548793E0,-5.763187655E0,8.219021467E0
1.469431567E1,-4.331027371E0,5.004129016E0,-6.176565337E0,9.052572268E0
1.470424267E1,-4.766770068E0,5.164431018E0,-6.136481504E0,9.330050904E0
1.471416967E1,-5.007042099E0,5.186365678E0,-5.890490311E0,9.309497067E0
1.472409667E1,-4.959924066E0,4.747832106E0,-5.297851031E0,8.672368880E0
1.473402367E1,-4.372082719E0,3.707114258E0,-4.244379237E0,7.132500160E0
1.474395067E1,-3.484808674E0,2.449358291E0,-1.912573954E0,4.669174088E0
1.475387767E1,-2.150035521E0,1.104506292E0,-6.049079078E-1,2.491686270E0
1.476380367E1,-7.589431563E-1,7.628686845E-2,-4.074398339E-1,8.647668004E-1
1.477373067E1,8.402732483E-1,-9.487505007E-1,-6.660539961E-1,1.431717350E0
1.478365767E1,2.927080488E0,-1.973341143E0,-9.636918908E-1,3.659313803E0
1.479358467E1,5.664003675E0,-2.258792855E0,-1.774742217E0,6.350810399E0
1.480351167E1,8.180803751E0,-1.993312308E0,-1.455677201E0,8.545047694E0
1.481343867E1,1.028850455E1,-1.742113584E0,-2.631783233E0,1.076171774E1
1.482336567E1,1.095012519E1,-1.482072701E0,-3.108221381E0,1.147879878E1
1.483329267E1,7.995071624E0,-4.127637822E0,1.656834868E0,9.148970764E0
1.484321967E1,6.454250777E0,-4.762421494E0,5.643693956E0,9.807614034E0
1.485314567E1,6.615965466E0,-4.321247903E0,3.332665000E0,8.576178549E0
1.486307267E1,4.957179383E0,-4.914850219E0,4.672656208E-2,6.980799631E0
1.487299967E1,3.934193802E0,-5.932808949E0,-1.780654044E0,7.338040047E0
1.488292667E1,3.202825238E0,-6.714455382E0,-3.616460781E0,8.271685993E0
1.489285367E1,4.369162327E0,-5.455987809E0,-3.800466810E0,7.956188182E0
1.490278067E1,6.609708946E0,-3.526710699E0,-4.229068887E-1,7.503651840E0
1.491270767E1,5.378315150E0,-2.835968004E0,3.289866890E0,6.913191197E0
1.492263467E1,1.005667883E0,-2.801455398E0,4.044274068E0,5.021520983E0
1.493256167E1,-2.356202790E0,-3.149063013E0,4.356245828E0,5.869000525E0
1.494248867E1,-5.892665475E0,-2.416470627E0,1.357440469E0,6.511949118E0
1.495241567E1,-9.028979219E0,-1.207601475E0,-1.148996002E0,9.181555363E0
1.496234167E1,-1.042578081E1,-1.060168610E0,3.664064133E-1,1.048594853E1
1.497226867E1,-1.085948048E1,-1.592590340E0,3.184588941E0,1.142830990E1
1.498219567E1,-1.074968498E1,-2.310869327E0,3.970607337E0,1.169023382E1
1.499212267E1,-9.534538840E0,-1.817430400E0,3.258677257E0,1.023862596E1
1.500204967E1,-7.554568709E0,-4.611500180E-1,3.746832640E0,8.445289963E0
1.501197667E1,-6.572330035E0,2.235133266E-1,4.363475910E0,7.892110130E0
1.502190367E1,-5.729477872E0,3.043405581E-1,5.161324977E0,7.717435804E0
1.503183067E1,-4.909383658E0,4.134706521E-1,5.058771247E0,7.061456819E0
1.504175767E1,-4.296559204E0,5.915739173E-1,4.431026453E0,6.200352903E0
1.505168467E1,-3.502011475E0,9.425238007E-1,3.833080825E0,5.276830876E0
1.506161067E1,-2.847779964E0,1.421860998E0,3.671110613E0,4.858867415E0
1.507153767E1,-2.366938278E0,1.941590177E0,3.530527761E0,4.672985716E0
1.508146467E1,-1.878296406E0,2.569565350E0,3.040706506E0,4.401881363E0
1.509139167E1,-1.373238477E0,3.168617857E0,1.992703320E0,3.987077822E0
1.510131867E1,-1.018782603E0,3.499779593E0,1.179348314E0,3.831088309E0
1.511124567E1,-8.941860384E-1,3.655134850E0,5.918022510E-1,3.809174366E0
1.512117267E1,-1.022725380E0,3.619515367E0,-4.517000404E-1,3.788257069E0
1.513109967E1,-1.192682304E0,3.550659140E0,-2.041063594E0,4.265631489E0
1.514102667E1,-1.414011111E0,3.387621810E0,-3.411354782E0,5.011262356E0
1.515095367E1,-1.407651680E0,3.409531327E0,-4.560792541E0,5.865766423E0
1.516087967E1,-1.086026752E0,3.474210303E0,-5.323735485E0,6.449166679E0
1.517080667E1,-7.079949045E-1,3.354161119E0,-5.262104078E0,6.280238286E0
1.518073367E1,-3.287018126E-1,3.206746965E0,-4.725442532E0,5.720234095E0
1.519066067E1,-3.615742743E-2,3.024401545E0,-4.079926881E0,5.078790744E0
1.520058767E1,2.921438509E-1,2.704188135E0,-3.453368196E0,4.395876863E0
1.521051467E1,3.891555905E-1,2.308996464E0,-3.404774033E0,4.132238251E0
1.522044167E1,2.594935834E-2,1.662047076E0,-3.489967380E0,3.865610711E0
1.523036867E1,-4.304082817E-1,9.707173204E-1,-3.062357576E0,3.241230835E0
1.524029567E1,-4.829621789E-1,5.002579504E-1,-2.380849681E0,2.480313627E0
1.525022167E1,-1.857756892E-1,6.580047190E-2,-1.804881983E0,1.815610443E0
1.526014867E1,3.837703049E-1,-4.744699752E-1,-1.323654088E0,1.457553275E0
1.527007567E1,7.625263301E-1,-1.333299070E0,-6.086293682E-1,1.652138772E0
1.528000267E1,1.833953754E0,-1.964200190E0,-3.156508273E-1,2.705753907E0
1.528992967E1,2.612639449E0,-2.573376566E0,-7.087550426E-1,3.735034879E0
1.529985667E1,3.403680019E0,-2.926389347E0,-1.670828424E0,4.789620016E0
1.530978367E1,3.775341910E0,-3.093818520E0,-2.471308446E0,5.471040578E0
1.531971067E1,4.379530317E0,-2.775902481E0,-2.090348898E0,5.590659970E0
1.532963767E1,4.769548957E0,-2.482884471E0,-1.508488668E0,5.584697898E0
1.533956467E1,4.860975436E0,-2.204955786E0,-1.250396369E0,5.482189644E0
1.534949167E1,4.340192589E0,-2.102241257E0,-1.548199448E0,5.064939442E0
1.535941767E1,3.204910647E0,-2.165051463E0,-2.240859445E0,4.469938606E0
1.536934467E1,2.119685256E0,-2.134066483E0,-2.777470412E0,4.094099074E0
1.537927167E1,1.675412056E0,-2.017885231E0,-2.784559576E0,3.825263180E0
1.538919867E1,1.850449334E0,-1.946177318E0,-2.316475053E0,3.546523024E0
1.539912567E1,2.405672281E0,-1.977195042E0,-1.562683001E0,3.484040402E0
1.540905267E1,3.025668929E0,-1.981039587E0,-6.970389766E-1,3.683076655E0
1.541897967E1,3.801196835E0,-1.252571241E0,-2.180572897E-1,4.008189252E0
1.542890667E1,3.526859803E0,-7.419075859E-1,2.910662091E-1,3.615782968E0
1.543883367E1,2.710245851E0,-2.560203373E-1,6.504384220E-2,2.723088263E0
1.544875967E1,2.172724472E0,-1.727296740E-1,-8.499746561E-2,2.181236287E0
1.545868667E1,1.269056589E0,-7.304172224E-1,-4.958433026E-1,1.545921901E0
1.546861367E1,5.216344938E-1,-1.016793380E0,-8.653768069E-1,1.433474220E0
1.547854067E1,4.443074057E-1,-8.073887998E-1,-5.144830567E-1,1.055451828E0
1.548846767E1,3.583743855E-1,-8.576994127E-1,8.924634486E-1,1.288631635E0
1.549839467E1,-1.204204828E-1,-1.335880616E0,2.898946025E0,3.194208222E0
1.550832154E1,-8.495337760E-1,-2.136614115E0,4.833434758E0,5.352468503E0
1.551824854E1,-1.509483279E0,-2.999444459E0,6.702985484E0,7.497014154E0
1.552817554E1,-1.979201222E0,-3.887897887E0,8.013182205E0,9.123819184E0
1.553810254E1,-2.028038921E0,-4.595152534E0,8.333482153E0,9.730122994E0
1.554802854E1,-2.092158319E0,-4.070754939E0,8.385608912E0,9.553355903E0
1.555795554E1,-2.291292849E0,-3.362975212E0,8.359517466E0,9.297373686E0
1.556788254E1,-3.420898315E0,-4.126918030E0,5.564523826E0,7.726443109E0
1.557780954E1,-5.064050698E0,-3.100076795E0,1.887031269E0,6.230246593E0
1.558773654E1,-6.226770700E0,-1.387990417E0,-8.351314992E-1,6.434021710E0
1.559766354E1,-6.290472021E0,-1.627367824E-1,-2.246593224E0,6.681594318E0
1.560759054E1,-5.251324151E0,7.131498098E-1,-3.061045461E0,6.120047982E0
1.561751754E1,-3.711234791E0,1.222806575E0,-3.597193036E0,5.311150284E0
1.562744454E1,-1.764955732E0,1.456853076E0,-3.071112027E0,3.830041606E0
1.563737154E1,6.438263905E-1,1.565891368E0,-2.614042196E0,3.114441331E0
1.564729754E1,2.484198925E0,1.717641233E0,-2.330092049E0,3.814559563E0
1.565722454E1,3.436268306E0,1.729219304E0,-2.573061108E0,4.628043079E0
1.566715154E1,2.402247275E0,2.185197460E0,-2.849545531E0,4.320392302E0
1.567707854E1,1.235586834E-1,2.648703321E0,-2.563263806E0,3.687982832E0
1.568700554E1,-1.688000527E0,3.041879457E0,-2.617675656E0,4.353688350E0
1.569693254E1,-2.675933805E0,3.322555749E0,-3.179711194E0,5.320767022E0
1.570685954E1,-3.550639844E0,3.758003746E0,-3.824694749E0,6.431012780E0
1.571678654E1,-4.044406800E0,4.341324318E0,-4.317080008E0,7.337676948E0
1.572671354E1,-4.436057398E0,4.733516368E0,-4.889815658E0,8.123735570E0
1.573663954E1,-4.687954863E0,5.097465781E0,-5.382036318E0,8.770826251E0
1.574656654E1,-4.880340537E0,5.204786162E0,-5.273391543E0,8.872213992E0
1.575649354E1,-4.857237604E0,5.030834420E0,-4.512079972E0,8.322314448E0
1.576642054E1,-4.537866193E0,4.537017177E0,-3.307579275E0,7.219199063E0
1.577634754E1,-3.346722291E0,3.319819837E0,-2.685378227E0,5.425219817E0
1.578627454E1,-2.133004044E0,2.193524480E0,-1.141556590E0,3.265640418E0
1.579620154E1,-6.354613638E-1,1.124835307E0,-7.670377493E-2,1.294198239E0
1.580612854E1,1.044259506E0,1.296848112E-1,3.468691117E-1,1.107977548E0
1.581605554E1,3.141052912E0,-6.362612629E-1,3.722039276E-1,3.226387695E0
1.582598254E1,5.517954846E0,-1.314493840E0,-2.947943938E-1,5.680019672E0
1.583590854E1,7.504907722E0,-1.295696211E0,-6.558049965E-1,7.644118574E0
1.584583554E1,8.283691943E0,-2.641942770E0,3.205695051E-1,8.700699892E0
1.585576254E1,8.418445705E0,-5.576411215E0,4.744490422E0,1.115691622E1
1.586568954E1,9.065316156E0,-7.022622943E0,5.885996726E0,1.288961394E1
1.587561654E1,7.869357072E0,-7.692232631E0,1.834079762E0,1.115621227E1
1.588554354E1,3.873807267E0,-7.425958031E0,-3.166504088E0,8.954215966E0
1.589547054E1,2.204761659E0,-5.881815966E0,-6.305078951E0,8.900042337E0
1.590539754E1,3.346272056E0,-3.760597571E0,-7.636506912E0,9.146358213E0
1.591532454E1,4.798603479E0,-2.768646086E0,-6.236647816E0,8.341928583E0
1.592525154E1,4.682360247E0,-2.379089377E0,-4.981261141E0,7.238613562E0
1.593517754E1,6.558558673E0,-1.144850326E0,-1.732356336E0,6.879420950E0
1.594510454E1,7.113623160E0,-1.400437385E-1,3.195448975E0,7.799624405E0
1.595503154E1,2.305990995E0,-9.988973916E-2,5.191392530E0,5.681384411E0
1.596495854E1,-1.173894616E0,-1.009355137E0,7.166725819E0,7.332038279E0
1.597488554E1,-4.013571509E0,-1.287686695E0,5.760295622E0,7.137779692E0
1.598481254E1,-7.459055026E0,-7.774393612E-1,1.937284872E0,7.745643067E0
1.599473954E1,-8.812995352E0,-4.060902965E-1,7.828199691E-1,8.857008722E0
1.600466654E1,-9.569879996E0,-8.038676065E-1,1.726971635E0,9.757624572E0
1.601459354E1,-9.999510598E0,-1.823408008E0,3.008045129E0,1.060015870E1
1.602451954E1,-9.167933621E0,-2.556952906E0,3.460903795E0,1.012753031E1
1.603444654E1,-6.602158436E0,-1.031864578E0,3.894437413E0,7.734331470E0
1.604437354E1,-4.402906609E0,4.961239690E-1,4.908617088E0,6.612582499E0
1.605430054E1,-3.356989417E0,9.294242835E-1,5.822885388E0,6.785219354E0
1.606422754E1,-2.632948583E0,1.105769876E0,5.587801006E0,6.275242254E0
1.607415454E1,-2.507112994E0,8.126542175E-1,5.261035792E0,5.884260365E0
1.608408154E1,-2.841356798E0,4.513576859E-1,4.607929870E0,5.432315335E0
1.609400854E1,-2.758728039E0,5.809694070E-1,4.222607129E0,5.077254850E0
1.610393554E1,-2.097947062E0,1.367373719E0,4.437066042E0,5.094962986E0
1.611386254E1,-1.527689754E0,2.154319484E0,4.153578410E0,4.922107478E0
1.612378854E1,-1.266634964E0,2.766990155E0,2.945330817E0,4.235041000E0
1.613371554E1,-1.168214046E0,3.140219684E0,1.191184832E0,3.555928153E0
1.614364254E1,-1.104998043E0,3.439203023E0,-4.622516334E-1,3.641814751E0
1.615356954E1,-9.125819635E-1,3.776145317E0,-1.631799429E0,4.213650279E0
1.616349654E1,-7.312370020E-1,3.980754595E0,-2.419864935E0,4.715597630E0
1.617342354E1,-7.204822183E-1,3.904631449E0,-3.132753375E0,5.057606656E0
1.618335054E1,-1.079557393E0,3.490479012E0,-3.847079644E0,5.305554607E0
1.619327754E1,-1.134946312E0,3.159387442E0,-4.458889021E0,5.581354982E0
1.620320454E1,-9.403597462E-1,2.745014564E0,-4.412786064E0,5.281293616E0
1.621313054E1,-9.565068322E-1,2.248207641E0,-3.788331791E0,4.507859878E0
1.622305754E1,-1.241153968E0,1.842177570E0,-3.215667770E0,3.908273350E0
1.623298454E1,-1.382116304E0,1.504355856E0,-2.340063013E0,3.106320480E0
1.624291154E1,-1.443696256E0,1.317039133E0,-1.677017702E0,2.575119284E0
1.625283854E1,-1.543297727E0,1.251286023E0,-1.427956721E0,2.446741707E0
1.626276554E1,-1.830184931E0,1.050540585E0,-1.328584460E0,2.493661779E0
1.627269254E1,-1.986407915E0,7.600205058E-1,-1.175857526E0,2.430244534E0
1.628261954E1,-1.808242962E0,5.213365781E-1,-1.103864268E0,2.181754056E0
1.629254654E1,-1.322365069E0,3.740294284E-1,-1.230607053E0,1.844706239E0
1.630247354E1,-6.814622864E-1,3.174453378E-2,-1.484944854E0,1.634154149E0
1.631239954E1,-1.262799776E-1,-5.512585348E-1,-1.857551362E0,1.941733676E0
1.632232654E1,6.938057587E-1,-1.444546441E0,-2.481704503E0,2.954139146E0
1.633225354E1,1.650536539E0,-2.077902222E0,-3.461458696E0,4.361610346E0
1.634218054E1,2.828136536E0,-2.474904191E0,-3.935824298E0,5.441894884E0
1.635210754E1,3.813090364E0,-2.786076052E0,-3.507529492E0,5.882570954E0
1.636203454E1,5.308549097E0,-2.816076361E0,-2.270009861E0,6.423700207E0
1.637196154E1,6.242201502E0,-2.732543038E0,-2.700562862E-1,6.819442898E0
1.638188854E1,6.793381684E0,-2.446962102E0,1.182268706E0,7.316790111E0
1.639181554E1,6.599758154E0,-2.141975427E0,1.067972889E0,7.020358432E0
1.640174154E1,5.803312418E0,-1.926111428E0,-1.965743271E-1,6.117759535E0
1.641166854E1,4.818668200E0,-1.547691325E0,-1.528335872E0,5.286844257E0
1.642159554E1,4.299390719E0,-1.048111067E0,-2.260455803E0,4.969200922E0
