"Time (s)","Linear Acceleration x (m/s^2)","Linear Acceleration y (m/s^2)","Linear Acceleration z (m/s^2)","Absolute acceleration (m/s^2)"
7.302333601E-3,2.564439681E-1,-7.238315034E-1,5.486092345E-1,9.437518987E-1
1.723033376E-2,2.467153707E-1,-4.355982703E-1,5.775177956E-1,7.642912609E-1
2.715833299E-2,1.246755016E-1,-2.086941433E-1,4.811954427E-1,5.391162029E-1
3.708733339E-2,2.971876591E-2,2.258077741E-2,3.926370958E-1,3.944071317E-1
4.701533355E-2,-6.179776043E-2,2.659611887E-1,4.006441268E-1,4.848402143E-1
5.694333371E-2,-2.140510699E-1,3.553341258E-1,4.716119293E-1,6.280907684E-1
6.687233318E-2,-3.691741928E-1,4.139080238E-1,4.947152285E-1,7.432042749E-1
7.679966651E-2,-4.557796428E-1,5.774780345E-1,3.952811337E-1,8.351425853E-1
8.672766667E-2,-4.584395412E-1,6.326447600E-1,3.424644041E-1,8.530463489E-1
9.665566683E-2,-5.161679319E-1,5.494558382E-1,3.034051497E-1,8.126412104E-1
1.065846663E-1,-5.825563413E-1,4.105792040E-1,2.657499580E-1,7.606380307E-1
1.165126665E-1,-5.023614863E-1,3.005416220E-1,2.875882852E-1,6.522264570E-1
1.264406666E-1,-3.408888718E-1,2.625651258E-1,2.655467673E-1,5.056290675E-1
1.363686668E-1,-1.276645982E-1,1.414868313E-1,2.304365762E-1,2.990280734E-1
1.462976672E-1,6.840277523E-2,-4.893417835E-2,1.279477496E-1,1.531147286E-1
1.562256664E-1,2.174292988E-1,-2.372320640E-1,-3.739396736E-2,3.239642896E-1
1.661536666E-1,2.845041713E-1,-4.934202164E-1,-2.338607056E-1,6.157085050E-1
1.760826670E-1,3.347779468E-1,-8.845188367E-1,-4.491127937E-1,1.046972850E0
1.860106671E-1,3.801932707E-1,-1.305161099E0,-5.343441479E-1,1.460656046E0
1.959386664E-1,4.265777707E-1,-1.710287189E0,-5.262529171E-1,1.839563263E0
2.058666665E-1,4.706798100E-1,-2.169245086E0,-5.080518503E-1,2.277121080E0
2.157956669E-1,4.655678818E-1,-2.678396067E0,-4.896809220E-1,2.762308156E0
2.257236671E-1,4.754581547E-1,-3.279666422E0,-4.811603594E-1,3.348699388E0
2.356516663E-1,5.758291197E-1,-3.976779073E0,-6.146709307E-1,4.064993398E0
2.455796665E-1,7.114321902E-1,-4.734243761E0,-8.615591598E-1,4.864307139E0
2.555086669E-1,7.673833197E-1,-5.511435201E0,-1.100844693E0,5.672446929E0
2.654366670E-1,8.241115442E-1,-6.063991233E0,-1.352938113E0,6.267502776E0
2.753646672E-1,9.711023596E-1,-6.242900829E0,-1.627119902E0,6.524137470E0
2.852936666E-1,1.119663737E0,-6.158454171E0,-1.845939084E0,6.525924897E0
2.952216668E-1,1.128504435E0,-5.927637672E0,-1.970685922E0,6.347756583E0
3.051496670E-1,1.154928295E0,-5.707863055E0,-1.956410530E0,6.143378727E0
3.150776671E-1,1.264064236E0,-5.112716489E0,-1.835947362E0,5.577493255E0
3.250066666E-1,1.306660325E0,-3.870266778E0,-1.112035167E0,4.233550324E0
3.349346668E-1,1.235989415E0,-1.951614643E0,2.921742564E-1,2.328483486E0
3.448626669E-1,1.654542467E0,6.903281271E-1,1.333731179E0,2.234480377E0
3.547906671E-1,2.039140737E0,3.705803897E0,1.618758969E0,4.528957725E0
3.647196665E-1,1.537427707E0,6.579846631E0,2.007822758E0,7.049072128E0
3.746476667E-1,1.163897046E-1,9.260614913E0,2.398500963E0,9.566887791E0
3.845756669E-1,-2.216143849E0,1.164277700E1,2.228169817E0,1.205944819E1
3.945046663E-1,-4.991039439E0,1.334794320E1,2.258125688E0,1.442834689E1
4.044326665E-1,-7.098684694E0,1.423361979E1,2.981037424E0,1.618251651E1
4.143606666E-1,-7.478142092E0,1.451542517E1,3.967096669E0,1.680351252E1
4.242886668E-1,-5.876978565E0,1.483313247E1,5.024581992E0,1.672743615E1
4.342176663E-1,-3.851719702E0,1.523757502E1,5.786174229E0,1.674811181E1
4.441456664E-1,-2.603615149E0,1.552896516E1,5.789891304E0,1.677648390E1
4.540736666E-1,-2.130912202E0,1.562794215E1,5.000682667E0,1.654630442E1
4.640016668E-1,-2.254856802E0,1.519876120E1,3.973810442E0,1.587066132E1
4.739306672E-1,-2.282829589E0,1.467819529E1,3.071345331E0,1.516884603E1
4.838586664E-1,-2.447240137E0,1.336780385E1,2.322296541E0,1.378695852E1
4.937866665E-1,-2.789362187E0,1.151182978E1,1.965156795E0,1.200685668E1
5.037156669E-1,-2.954969952E0,9.355762560E0,1.726485146E0,9.962072649E0
5.136436671E-1,-3.157197367E0,7.147030057E0,1.343239921E0,7.927939666E0
5.235716663E-1,-3.302977517E0,5.057567305E0,8.244480515E-1,6.096586103E0
5.334996665E-1,-3.084738086E0,2.689625060E0,2.676585623E-1,4.101381856E0
5.434286669E-1,-2.516368552E0,5.861050165E-1,-2.779650108E-1,2.598633165E0
5.533566670E-1,-1.887365145E0,-1.227944523E0,-5.234076619E-1,2.311698623E0
5.632846663E-1,-1.248075025E0,-2.831728188E0,-5.759823167E-1,3.147718448E0
5.732126664E-1,-6.053803629E-1,-4.249960404E0,-5.456867230E-1,4.327403704E0
5.831416668E-1,-7.193537056E-3,-5.801335475E0,-5.672571015E-1,5.829007262E0
5.930696670E-1,6.008449700E-1,-7.473379535E0,-6.186458679E-1,7.522974084E0
6.029976672E-1,1.283014185E0,-8.956925735E0,-5.797547941E-1,9.066904634E0
6.129266666E-1,2.102429099E0,-1.005752901E1,-4.968110168E-1,1.028692953E1
6.228546668E-1,3.020867488E0,-1.088990355E1,-6.737489319E-1,1.132120035E1
6.327826669E-1,3.803324052E0,-1.163474293E1,-1.147918360E0,1.229431712E1
6.427106671E-1,4.246627199E0,-1.236157756E1,-1.648967439E0,1.317427554E1
6.526396666E-1,4.002516178E0,-1.298561113E1,-1.945663347E0,1.372704768E1
6.625676667E-1,3.292090586E0,-1.334144694E1,-1.844073822E0,1.386479986E1
6.724956669E-1,2.554852586E0,-1.341854131E1,-1.384287960E0,1.372955847E1
6.824236671E-1,1.897953868E0,-1.330236298E1,-1.044939537E0,1.347764774E1
6.923526665E-1,1.252599600E0,-1.308603472E1,-6.350245768E-1,1.316117649E1
7.022806667E-1,6.626333749E-1,-1.283355779E1,-3.743972182E-2,1.285070777E1
7.122086668E-1,2.369841421E-1,-1.259492824E1,5.643644840E-1,1.260979327E1
7.221376663E-1,1.154743230E-1,-1.230278965E1,1.014894277E0,1.234511960E1
7.320656665E-1,3.669665766E-1,-1.189821145E1,9.106500435E-1,1.193865083E1
7.419936666E-1,5.440344460E-1,-1.145438439E1,3.206495389E-1,1.147177891E1
7.519216668E-1,4.342421548E-1,-1.099137028E1,-4.002794067E-1,1.100722538E1
7.618506663E-1,1.919081028E-1,-1.047335258E1,-9.671183592E-1,1.051966069E1
7.717786664E-1,6.606535077E-2,-1.012197585E1,-1.197028540E0,1.019272471E1
7.817066666E-1,-4.153832763E-2,-9.866763600E0,-1.305013749E0,9.952779022E0
7.916346667E-1,3.221274957E-2,-9.604078606E0,-1.457177596E0,9.714048079E0
8.015636671E-1,2.147900118E-1,-9.365756621E0,-1.720675353E0,9.524928110E0
8.114916664E-1,3.349388914E-1,-9.050139123E0,-1.908235320E0,9.255191205E0
8.214196665E-1,3.120971820E-1,-8.726204545E0,-2.032066483E0,8.965118215E0
8.313486669E-1,1.189617486E-1,-8.468731175E0,-2.371031914E0,8.795189137E0
8.412766671E-1,-1.936700150E-1,-8.353265623E0,-2.621245966E0,8.757024897E0
8.512046663E-1,-4.714437488E-1,-8.362556264E0,-2.729317714E0,8.809300861E0
8.611326665E-1,-6.554972868E-1,-8.241569186E0,-3.087715781E0,8.825368439E0
8.710616669E-1,-6.755953364E-1,-8.030699294E0,-3.275627750E0,8.699327409E0
8.809896670E-1,-7.320637983E-1,-7.627244922E0,-2.911908717E0,8.196950340E0
8.909176663E-1,-6.899588755E-1,-6.741426834E0,-2.432376223E0,7.199953687E0
9.008456664E-1,-4.080722103E-1,-5.375636541E0,-2.081524572E0,5.778990889E0
9.107746668E-1,-3.696726680E-1,-2.936886268E0,-1.528417733E0,3.331369028E0
9.207026670E-1,-1.731956971E-1,8.951514137E-1,-1.896298814E-1,9.312638159E-1
9.306306671E-1,-4.806411266E-2,7.235103743E0,8.070748043E-1,7.280137778E0
9.405596666E-1,-1.161246211E0,1.502610929E1,1.654288405E0,1.516143540E1
9.504876668E-1,-4.187440512E0,2.140969472E1,1.745207931E0,2.188505053E1
9.604156669E-1,-8.243364866E0,2.307534426E1,1.153293121E0,2.453068817E1
9.703436671E-1,-1.169014062E1,2.318766460E1,4.780157633E-1,2.597220969E1
9.802726666E-1,-1.183616781E1,2.569632593E1,1.556134704E0,2.833403590E1
9.902006667E-1,-9.876702697E0,2.674191802E1,5.084553959E0,2.895741916E1
1.000128667E0,-7.217670854E0,2.602581654E1,6.664365209E0,2.781818942E1
1.010057666E0,-4.963027768E0,2.643427495E1,5.120807866E0,2.737928433E1
1.019985666E0,-4.447988641E0,2.577498736E1,3.172866443E0,2.634770688E1
1.029913667E0,-5.178725122E0,2.450694146E1,1.789414051E0,2.511197675E1
1.039841667E0,-5.796324996E0,2.345600268E1,1.692420291E0,2.422077066E1
1.049770666E0,-5.991101012E0,2.155745853E1,1.948135696E0,2.245913049E1
1.059698666E0,-5.475438572E0,1.898068883E1,1.735742604E0,1.983077856E1
1.069626667E0,-4.454631663E0,1.610373009E1,1.274787883E0,1.675705673E1
1.079554667E0,-3.269185288E0,1.277166618E1,8.716689956E-1,1.321222299E1
1.089483667E0,-2.059678498E0,9.296469455E0,4.027584068E-1,9.530416264E0
1.099411666E0,-9.544050506E-1,5.912821997E0,-1.634285080E-1,5.991582583E0
1.109339667E0,-8.377510518E-2,2.715278549E0,-7.611379818E-1,2.821185371E0
1.119268667E0,5.208360565E-1,-2.473372221E-3,-1.382282950E0,1.477153502E0
1.129196667E0,1.013979115E0,-2.289962608E0,-1.780261989E0,3.072688585E0
1.139124666E0,1.535797504E0,-4.289439050E0,-1.872760262E0,4.925971207E0
1.149052667E0,1.986171103E0,-6.105940912E0,-1.647793318E0,6.628922453E0
1.158981667E0,2.319134951E0,-7.632451283E0,-1.109961745E0,8.053863333E0
1.168909667E0,2.722524711E0,-8.891829268E0,-5.757262087E-1,9.317093388E0
1.178837666E0,3.186481685E0,-9.880553674E0,-2.732882615E-1,1.038526326E1
1.188765666E0,3.907568798E0,-1.068727648E1,-4.846067083E-1,1.138954854E1
1.198694667E0,4.398734328E0,-1.121036371E1,-6.879705298E-1,1.206210685E1
1.208622667E0,4.625130332E0,-1.146520174E1,-9.036462486E-1,1.239593716E1
1.218550667E0,4.554439833E0,-1.141770832E1,-1.359533772E0,1.236751056E1
1.228479667E0,4.210056958E0,-1.134955785E1,-1.928086617E0,1.225783672E1
1.238407667E0,3.822979760E0,-1.139215832E1,-2.479515306E0,1.226965532E1
1.248335667E0,3.348393718E0,-1.141888945E1,-2.803076831E0,1.222538411E1
1.258263667E0,2.724191168E0,-1.127761254E1,-2.686005049E0,1.190883643E1
1.268192667E0,2.051869249E0,-1.116529337E1,-2.232139492E0,1.156963224E1
1.278120667E0,1.412847223E0,-1.113718230E1,-1.805379288E0,1.137067989E1
1.288048667E0,9.899002808E-1,-1.099689122E1,-1.490357037E0,1.114148478E1
1.297976667E0,8.105199838E-1,-1.069014395E1,-1.213831099E0,1.078932372E1
1.307905667E0,6.436489275E-1,-1.031207936E1,-9.722177160E-1,1.037778743E1
1.317833667E0,6.367904359E-1,-1.005855344E1,-6.501092237E-1,1.009963571E1
1.327761667E0,8.582170375E-1,-9.995415208E0,-7.003683811E-1,1.005660865E1
1.337690666E0,1.140744850E0,-9.993958082E0,-9.080953950E-1,1.009975912E1
1.347618666E0,1.328643225E0,-1.002202355E1,-9.740087181E-1,1.015652213E1
1.357546667E0,1.302509825E0,-9.999522293E0,-7.232175457E-1,1.010989721E1
1.367474667E0,1.270143878E0,-9.815722085E0,-3.777815866E-1,9.904765745E0
1.377403666E0,1.283710150E0,-9.477950072E0,-2.317766118E-1,9.567296886E0
1.387331666E0,1.376385594E0,-9.242942289E0,-3.229300261E-1,9.350438666E0
1.397259667E0,1.498181488E0,-9.257789539E0,-4.951316965E-1,9.391292260E0
1.407187667E0,1.519990287E0,-9.388291206E0,-6.575919056E-1,9.533247576E0
1.417116667E0,1.499443025E0,-9.444042653E0,-7.085351872E-1,9.588550105E0
1.427044666E0,1.565413943E0,-9.341525760E0,-6.253059196E-1,9.492398634E0
1.436972667E0,1.682903655E0,-9.206881340E0,-5.488068338E-1,9.375500929E0
1.446901667E0,1.817177800E0,-8.823733764E0,-5.317925692E-1,9.024589521E0
1.456829667E0,2.018104648E0,-8.271213400E0,-7.080826128E-1,8.543248707E0
1.466757666E0,2.235975704E0,-7.577344784E0,-1.038018773E0,7.968263568E0
1.476685666E0,2.270009715E0,-6.629595911E0,-1.567056134E0,7.180539741E0
1.486614667E0,2.043371198E0,-5.624320377E0,-2.009374609E0,6.312363414E0
1.496542667E0,1.438377775E0,-4.397268723E0,-2.373636264E0,5.199908841E0
1.506470666E0,7.004319696E-1,-2.521198352E0,-2.587497007E0,3.679971037E0
1.516398666E0,1.593041745E-1,5.526975346E-1,-3.006720150E0,3.061244590E0
1.526327667E0,-6.991091833E-1,5.263415608E0,-2.720563263E0,5.966050786E0
1.536255667E0,-1.595097041E0,1.106927274E1,-4.740569791E-2,1.118371051E1
1.546183667E0,-2.750672915E0,1.618596767E1,3.323198358E0,1.675098201E1
1.556112667E0,-4.543493553E0,1.909736651E1,5.348097324E0,2.034588131E1
1.566040667E0,-6.922052588E0,2.097993138E1,5.450671520E0,2.275482702E1
1.575968667E0,-8.725218120E0,2.336166838E1,4.887280598E0,2.541225083E1
1.585896667E0,-9.592354939E0,2.460254344E1,4.638803169E0,2.681076112E1
1.595825667E0,-8.558016404E0,2.463840324E1,3.966773318E0,2.638230182E1
1.605753667E0,-6.394207474E0,2.540747348E1,2.976422217E0,2.636825150E1
1.615681667E0,-5.400446277E0,2.597470953E1,2.312055727E0,2.663073332E1
1.625609667E0,-5.396906957E0,2.523002218E1,1.779434023E0,2.586207666E1
1.635538667E0,-5.417553475E0,2.322943711E1,1.473839822E0,2.389830198E1
1.645466667E0,-5.335797706E0,2.103354801E1,1.560372766E0,2.175581858E1
1.655394667E0,-4.958518395E0,1.895227136E1,2.108322362E0,1.970331235E1
1.665323666E0,-4.387579010E0,1.656678279E1,2.389996773E0,1.730379225E1
1.675251666E0,-3.917231029E0,1.361978142E1,1.969227626E0,1.430807473E1
1.685179667E0,-3.584450199E0,1.031474569E1,1.010557909E0,1.096647113E1
1.695107667E0,-3.346255683E0,7.046005958E0,5.948017996E-2,7.800459278E0
1.705036667E0,-3.042563874E0,4.174721941E0,-6.411951435E-1,5.205442289E0
1.714964666E0,-2.711337233E0,1.573649454E0,-1.106691982E0,3.324528439E0
1.724892667E0,-2.402339368E0,-8.089780730E-1,-1.435393209E0,2.913079750E0
1.734820667E0,-2.223509879E0,-2.697099556E0,-1.457103921E0,3.787016508E0
1.744749667E0,-2.082356631E0,-4.175350517E0,-1.368868268E0,4.862464541E0
1.754677666E0,-1.863726314E0,-5.632571383E0,-1.543475482E0,6.130387648E0
1.764605667E0,-1.699177334E0,-6.976683708E0,-1.726851182E0,7.385345908E0
1.774534667E0,-1.590789397E0,-8.079577339E0,-1.806806009E0,8.430582947E0
1.784462667E0,-1.510017568E0,-8.968396218E0,-2.301831286E0,9.381402403E0
1.794390666E0,-1.440033560E0,-9.713564796E0,-2.801427332E0,1.021151472E1
1.804318666E0,-1.318396564E0,-1.027645344E1,-3.200622007E0,1.084378375E1
1.814247667E0,-9.884425700E-1,-1.066468400E1,-3.502198586E0,1.126844703E1
1.824175667E0,-7.051038949E-1,-1.117854784E1,-4.143777891E0,1.194269645E1
1.834103667E0,-4.214561945E-1,-1.189886751E1,-4.221697887E0,1.263263260E1
1.844031666E0,-2.845711219E-1,-1.240950836E1,-3.471200742E0,1.288899193E1
1.853960667E0,-1.715497059E-1,-1.268352058E1,-2.102453511E0,1.285773830E1
1.863888667E0,5.615241989E-2,-1.265725488E1,-7.796139407E-1,1.268136634E1
1.873816667E0,4.428939874E-1,-1.213453369E1,-3.449863813E-1,1.214751326E1
1.883745667E0,6.289342631E-1,-1.166639157E1,-5.218447012E-1,1.169498065E1
1.893673667E0,5.113784775E-1,-1.141573547E1,-8.092955768E-1,1.145580567E1
1.903601667E0,4.150355132E-1,-1.147135301E1,-1.108722720E0,1.153227907E1
1.913529667E0,4.870391500E-1,-1.170728465E1,-7.656624842E-1,1.174240010E1
1.923458667E0,3.956689502E-1,-1.184916500E1,-2.731708056E-1,1.185891595E1
1.933386667E0,3.858536679E-1,-1.186656047E1,-4.954576056E-2,1.187293541E1
1.943314667E0,4.166877902E-1,-1.166523499E1,1.754042270E-2,1.167268794E1
1.953242667E0,3.277816071E-1,-1.138745950E1,1.047434763E-1,1.139265754E1
1.963171666E0,1.119248439E-1,-1.122350591E1,3.610327856E-1,1.122986896E1
1.973099667E0,-8.512033023E-2,-1.102991863E1,6.411179602E-1,1.104886342E1
1.983027667E0,-1.870020696E-1,-1.076622324E1,8.352934670E-1,1.080019666E1
1.992956666E0,-2.915800332E-1,-1.041779468E1,9.310340220E-1,1.046337848E1
2.002884666E0,-3.902800832E-1,-1.006847266E1,8.550710893E-1,1.011225033E1
2.012812667E0,-5.051450533E-1,-9.775522478E0,6.940668368E-1,9.813141190E0
2.022740667E0,-5.538520673E-1,-9.415577822E0,4.393849272E-1,9.442082236E0
2.032669667E0,-6.023113056E-1,-9.076313015E0,7.324457129E-2,9.096570871E0
2.042597666E0,-6.501414565E-1,-8.738287232E0,-3.172184658E-1,8.768179698E0
2.052525667E0,-6.437604631E-1,-8.302464429E0,-8.256443918E-1,8.368215567E0
2.062453667E0,-6.494034648E-1,-7.831920859E0,-1.421033617E0,7.986241027E0
2.072383666E0,-6.622305018E-1,-7.477093686E0,-2.102333643E0,7.795209169E0
2.082311667E0,-8.115967485E-1,-7.232663115E0,-2.941819564E0,7.850121488E0
2.092239667E0,-1.107708812E0,-6.674711857E0,-3.374328750E0,7.560746769E0
2.102168667E0,-1.302870891E0,-5.687690746E0,-3.314721065E0,6.710787905E0
2.112096666E0,-1.336123714E0,-3.838733913E0,-3.353116221E0,5.269202314E0
2.122024667E0,-1.076216001E0,-7.521881604E-1,-3.195315074E0,3.454571801E0
2.131952667E0,-8.014562148E-1,3.635295247E0,-2.629453118E0,4.557601047E0
2.141881667E0,-1.369550345E0,9.509320968E0,-2.357963387E0,9.892565125E0
2.151809666E0,-3.178398494E0,1.586407845E1,-1.683208734E0,1.626666510E1
2.161737666E0,-6.072034662E0,2.039439589E1,-6.623714197E-1,2.128942753E1
2.171665667E0,-9.134146070E0,2.203514799E1,-9.975934625E-2,2.385351805E1
2.181594667E0,-1.110510447E1,2.422428939E1,7.390448622E-1,2.665868956E1
2.191522666E0,-1.082118239E1,2.760579969E1,2.739667286E0,2.977723866E1
2.201450666E0,-9.105079561E0,2.780084410E1,4.097491332E0,2.953944552E1
2.211379667E0,-6.938864502E0,2.704975755E1,3.121268274E0,2.809945800E1
2.221307667E0,-5.125680351E0,2.760885662E1,1.380177806E0,2.811452389E1
2.231235667E0,-4.102912871E0,2.755923715E1,2.428383744E-1,2.786403446E1
2.241163666E0,-3.733008653E0,2.694337799E1,-4.183029373E-1,2.720396935E1
2.251092667E0,-3.538925532E0,2.519619019E1,-6.076743717E-1,2.545076152E1
2.261020667E0,-3.029318469E0,2.271675792E1,-6.838410799E-1,2.292805049E1
2.270948667E0,-2.205811234E0,1.990109671E1,-6.554554792E-1,2.003369350E1
2.280876666E0,-1.445300732E0,1.648201921E1,-1.394055880E-1,1.654585403E1
2.290805667E0,-5.776128128E-1,1.272871488E1,1.193136779E-1,1.274237241E1
2.300733667E0,3.695513383E-1,9.076748632E0,-3.962774992E-2,9.084354918E0
2.310661667E0,1.147474849E0,5.662531931E0,-7.243402112E-1,5.822854552E0
2.320589666E0,1.664013787E0,2.586233423E0,-1.480446006E0,3.413102046E0
2.330518667E0,2.047878232E0,9.552596211E-2,-1.978303674E0,2.848967513E0
2.340446667E0,2.440199797E0,-2.164197770E0,-2.687065734E0,4.225949514E0
2.350374667E0,2.652168089E0,-4.119620705E0,-3.298965157E0,5.906643838E0
2.360303666E0,2.701224766E0,-5.711322268E0,-3.417883490E0,7.183157024E0
2.370231667E0,2.622325362E0,-7.033837903E0,-3.263422272E0,8.185437732E0
2.380159667E0,2.562715922E0,-8.253182926E0,-2.873603607E0,9.107147687E0
2.390087667E0,2.717071598E0,-9.353941153E0,-2.419728695E0,1.003662195E1
2.400016666E0,3.021385843E0,-1.025592621E1,-1.965315254E0,1.087084444E1
2.409944667E0,3.384688555E0,-1.094477733E1,-1.556027700E0,1.156137922E1
2.419872667E0,3.806789112E0,-1.126988837E1,-1.308811516E0,1.196724758E1
2.429800667E0,4.200514302E0,-1.124722807E1,-1.285225602E0,1.207461239E1
2.439729666E0,4.468794789E0,-1.119106790E1,-1.379402611E0,1.212900982E1
2.449657666E0,4.568548872E0,-1.122942212E1,-1.457611606E0,1.221049514E1
2.459585667E0,4.548940820E0,-1.127076077E1,-1.640846241E0,1.226439103E1
2.469514667E0,4.364086067E0,-1.132820966E1,-1.869263043E0,1.228282238E1
2.479442666E0,3.965039326E0,-1.130452727E1,-2.037032524E0,1.215168199E1
2.489370666E0,3.439584262E0,-1.116233000E1,-1.893937708E0,1.183280825E1
2.499298667E0,2.942408963E0,-1.099260170E1,-1.442229189E0,1.147061846E1
2.509227667E0,2.552920374E0,-1.081017325E1,-7.752495790E-1,1.113455253E1
2.519155667E0,2.293733185E0,-1.061125449E1,-1.439741638E-1,1.085728614E1
2.529083666E0,2.051408196E0,-1.056067373E1,2.470537052E-1,1.076090799E1
2.539011667E0,1.814696242E0,-1.053564297E1,4.048120586E-1,1.069844699E1
2.548940667E0,1.681133849E0,-1.047452436E1,5.704105049E-1,1.062389946E1
2.558868667E0,1.634855769E0,-1.039606876E1,6.322582591E-1,1.054280559E1
2.568796666E0,1.610110352E0,-1.022630187E1,6.781407756E-1,1.037446771E1
2.578725667E0,1.625137696E0,-9.907894084E0,6.100476104E-1,1.005880688E1
2.588653667E0,1.662848875E0,-9.605084327E0,4.400263667E-1,9.757885761E0
2.598581667E0,1.669597147E0,-9.419859738E0,2.438838565E-1,9.569785340E0
2.608509666E0,1.507671081E0,-9.343267061E0,7.048348865E-2,9.464390069E0
2.618438667E0,1.262441049E0,-9.337509307E0,1.341094176E-1,9.423418849E0
2.628366667E0,9.791780953E-1,-9.303023599E0,3.464580159E-1,9.360826405E0
2.638294667E0,7.039348903E-1,-9.145545802E0,5.494043827E-1,9.189035723E0
2.648222667E0,5.027645056E-1,-8.934130949E0,7.378344154E-1,8.978633949E0
2.658151667E0,4.658763224E-1,-8.606012104E0,8.240855241E-1,8.657921346E0
2.668079667E0,6.208642285E-1,-8.209341672E0,7.583277369E-1,8.267637149E0
2.678007667E0,8.666047221E-1,-7.929822544E0,6.292435078E-1,8.001814589E0
2.687935667E0,9.091905785E-1,-7.544644230E0,5.311272291E-1,7.617767403E0
2.697864667E0,8.868414970E-1,-6.776525915E0,4.610530273E-1,6.849843883E0
2.707792667E0,5.960572699E-1,-5.729522896E0,1.176506567E-1,5.761645473E0
2.717720667E0,2.273457380E-1,-4.219881157E0,-2.550123505E-1,4.233688034E0
2.727649666E0,1.557904364E-1,-1.240554044E0,-1.031543493E0,1.620903135E0
2.737577667E0,6.503068596E-2,3.805584878E0,-1.397993249E0,4.054761445E0
2.747505667E0,-2.629802781E-1,1.030389910E1,-1.440001985E0,1.040735803E1
2.757433667E0,-2.047552834E0,1.714307150E1,-1.143361113E0,1.730273527E1
2.767362666E0,-4.785119215E0,2.109847549E1,-3.903964428E-1,2.163782437E1
2.777290666E0,-7.764495445E0,2.233585859E1,6.946023687E-1,2.365714355E1
2.787218667E0,-9.666104701E0,2.522090754E1,2.400117134E0,2.711620031E1
2.797146667E0,-9.888449754E0,2.764241262E1,5.675020999E0,2.990134240E1
2.807075666E0,-8.374923710E0,2.734211600E1,7.304677423E0,2.951421635E1
2.817003666E0,-5.577047392E0,2.776484396E1,5.089941584E0,2.877320842E1
2.826931667E0,-4.069456272E0,2.850186444E1,1.762740076E0,2.884482629E1
2.836860667E0,-4.618074204E0,2.823415318E1,-7.284018333E-1,2.861860557E1
2.846788667E0,-5.591595849E0,2.668781724E1,-2.155150227E0,2.735233456E1
2.856716666E0,-5.860674773E0,2.414979587E1,-2.704667022E0,2.499750733E1
2.866644667E0,-5.458367625E0,2.106792496E1,-2.466491218E0,2.190284955E1
2.876573667E0,-4.715932621E0,1.761412787E1,-1.517612078E0,1.829755906E1
2.886501667E0,-3.840888320E0,1.385652583E1,-5.784627056E-1,1.439063412E1
2.896429666E0,-3.074916518E0,1.006288857E1,-4.038122213E-1,1.052995262E1
2.906357666E0,-2.579237815E0,6.361132114E0,-1.063898549E0,6.946103195E0
2.916286667E0,-2.167359944E0,3.009378294E0,-2.314091728E0,4.371364474E0
2.926214667E0,-1.875613411E0,-6.500349641E-3,-3.621558384E0,4.078437575E0
2.936142666E0,-1.753534074E0,-2.622590241E0,-4.254158120E0,5.296293292E0
2.946071667E0,-1.830723752E0,-4.784756103E0,-4.255218805E0,6.659754312E0
2.955999667E0,-1.832606556E0,-6.598271207E0,-4.144098319E0,8.004322619E0
2.965927667E0,-1.791661428E0,-8.198169397E0,-4.445329912E0,9.496367209E0
2.975855667E0,-1.508120001E0,-9.565304550E0,-4.472653366E0,1.066649451E1
2.985784667E0,-9.931969410E-1,-1.070463803E1,-4.227384304E0,1.155190433E1
2.995712667E0,-3.075410315E-1,-1.163642342E1,-3.713127535E0,1.221835699E1
3.005640667E0,6.977643237E-1,-1.218958054E1,-3.170778403E0,1.261453862E1
3.015568667E0,1.960160934E0,-1.248819434E1,-2.681051872E0,1.292227797E1
3.025497667E0,3.210876853E0,-1.269730831E1,-2.235149639E0,1.328635625E1
3.035425667E0,3.976160438E0,-1.257393557E1,-1.746606000E0,1.330279445E1
3.045353667E0,4.009816719E0,-1.248473396E1,-1.101818912E0,1.315907356E1
3.055282666E0,3.469030255E0,-1.241065909E1,-2.877005517E-1,1.288958500E1
3.065210667E0,2.880971684E0,-1.226080899E1,2.120796812E-1,1.259652383E1
3.075137958E0,2.607992667E0,-1.207348875E1,3.914149547E-1,1.235815367E1
3.085065958E0,2.461150078E0,-1.176963585E1,5.889643049E-1,1.203862396E1
3.094994958E0,2.338110628E0,-1.145592806E1,9.268082392E-1,1.172876901E1
3.104922959E0,2.218093311E0,-1.111857880E1,1.194924127E0,1.140046385E1
3.114850959E0,2.220106507E0,-1.074717301E1,1.389077414E0,1.106165163E1
3.124778958E0,2.247474400E0,-1.034645631E1,1.373416232E0,1.067644938E1
3.134707958E0,2.287483973E0,-1.005039073E1,1.242283942E0,1.038201359E1
3.144635959E0,2.298815438E0,-9.928249412E0,1.077003329E0,1.024766437E1
3.154563959E0,2.158590144E0,-9.797169455E0,1.109057765E0,1.009326755E1
3.164491958E0,1.940757826E0,-9.673017864E0,1.209508325E0,9.939654215E0
3.174420958E0,1.669255815E0,-9.536193602E0,1.280921613E0,9.765560075E0
3.184348959E0,1.416395898E0,-9.425036863E0,1.471027311E0,9.643724310E0
3.194276959E0,1.141324601E0,-9.249886442E0,1.549667684E0,9.447988726E0
3.204205958E0,9.486641081E-1,-9.064553679E0,1.427359281E0,9.225153197E0
3.214133958E0,8.438745484E-1,-9.010392090E0,9.608438583E-1,9.100687380E0
3.224061958E0,6.298733260E-1,-8.954650583E0,6.363701673E-1,8.999304110E0
3.233989959E0,3.678255326E-1,-8.912668160E0,4.158798511E-1,8.929944311E0
3.243918958E0,9.948715836E-2,-8.961429260E0,-9.708716869E-2,8.962507350E0
3.253846958E0,5.335584283E-4,-9.060602131E0,-3.403920047E-1,9.066993878E0
3.263774958E0,-1.136343504E-1,-9.075981477E0,-3.146164548E-1,9.082143803E0
3.273702959E0,-2.858189178E-1,-8.859951417E0,-2.300340685E-1,8.867544601E0
3.283631958E0,-4.145297290E-1,-8.559174153E0,2.317368507E-2,8.569237661E0
3.293559958E0,-2.800934704E-1,-7.598701739E0,1.907234569E-1,7.606253736E0
3.303487958E0,2.130908109E-1,-5.578870554E0,-1.108458864E-1,5.584038965E0
3.313416959E0,5.972441085E-1,-2.539275604E0,-3.594540739E-1,2.633216351E0
3.323344958E0,2.307054019E-1,1.626295445E0,6.125886641E-2,1.643719716E0
3.333272958E0,-6.825147852E-1,7.606113085E0,2.176753934E-1,7.639775210E0
3.343200958E0,-2.165459891E0,1.450744723E1,5.541523949E-1,1.467863504E1
3.353129959E0,-5.039395913E0,1.884839674E1,1.041023072E0,1.953820104E1
3.363057958E0,-8.516263776E0,2.014822811E1,1.173780449E0,2.190560670E1
3.372985958E0,-9.812851102E0,2.207009562E1,5.724925523E-1,2.416006861E1
3.382913958E0,-8.431109605E0,2.543642889E1,8.185059647E-1,2.680980186E1
3.392842959E0,-5.908731869E0,2.728956356E1,3.262615356E0,2.811188451E1
3.402770959E0,-4.042845886E0,2.803138344E1,3.643011818E0,2.855476485E1
3.412698958E0,-3.371763285E0,2.896768171E1,1.798328862E0,2.921864743E1
3.422627958E0,-3.804377721E0,2.879039881E1,1.778091502E-1,2.904121157E1
3.432555959E0,-4.640889163E0,2.721675403E1,-6.590433307E-1,2.761745626E1
3.442483959E0,-4.934534871E0,2.465673309E1,-6.487522312E-1,2.515402553E1
3.452411958E0,-4.666230995E0,2.177311320E1,-2.462097327E-1,2.226887490E1
3.462340958E0,-3.964117513E0,1.849770297E1,1.098153877E-1,1.891801528E1
3.472268959E0,-3.068043701E0,1.543557928E1,4.874181958E-1,1.574508102E1
3.482196959E0,-1.745612558E0,1.232742748E1,5.296419632E-1,1.246166731E1
3.492124958E0,-3.542959526E-1,9.136749836E0,-4.418939674E-1,9.154288255E0
3.502053958E0,8.410626224E-1,5.846105851E0,-1.558474614E0,6.108451774E0
3.511981959E0,1.277348525E0,2.531942611E0,-2.628097441E0,3.866425843E0
3.521909959E0,1.196302316E0,-3.708128750E-1,-3.148715104E0,3.388664667E0
3.531838958E0,1.221023466E0,-2.870021603E0,-3.617702730E0,4.776577786E0
3.541766958E0,1.421034202E0,-4.900425723E0,-4.001187690E0,6.484058406E0
3.551694958E0,1.637250203E0,-6.543958175E0,-3.949587182E0,7.816854593E0
3.561622959E0,1.805412617E0,-8.080691233E0,-3.412907510E0,8.955725721E0
3.571551958E0,2.200688488E0,-9.464963990E0,-2.697866710E0,1.008499172E1
3.581479958E0,2.861920578E0,-1.052385265E1,-2.051472223E0,1.109732410E1
3.591407958E0,3.396585592E0,-1.112273500E1,-1.728381837E0,1.175752233E1
3.601335959E0,3.689435202E0,-1.134397493E1,-1.677976645E0,1.204629839E1
3.611264958E0,3.792479222E0,-1.136948165E1,-1.653113115E0,1.209879311E1
3.621192958E0,3.723552536E0,-1.129648852E1,-1.459406555E0,1.198354555E1
3.631120958E0,3.471254536E0,-1.115125304E1,-1.321515176E0,1.175357200E1
3.641048959E0,3.083435034E0,-1.094639233E1,-1.327978688E0,1.144965519E1
3.650977958E0,2.653200707E0,-1.079621712E1,-1.491871465E0,1.121710562E1
3.660905958E0,2.286163379E0,-1.080837348E1,-1.513295664E0,1.115067460E1
3.670833958E0,2.011341612E0,-1.086804198E1,-1.292323537E0,1.112788981E1
3.680762959E0,1.717575598E0,-1.086202168E1,-1.082574556E0,1.105013795E1
3.690690958E0,1.449199070E0,-1.081685077E1,-7.627458930E-1,1.094011974E1
3.700618958E0,1.252303146E0,-1.074516391E1,-3.827107894E-1,1.082466065E1
3.710546958E0,1.125766768E0,-1.064859130E1,-9.072656751E-2,1.070831820E1
3.720475959E0,1.029713972E0,-1.053556462E1,-5.866628408E-2,1.058592813E1
3.730403959E0,9.251385668E-1,-1.050785232E1,-2.529832935E-1,1.055153270E1
3.740331958E0,7.673872666E-1,-1.060232462E1,-4.719088948E-1,1.064052952E1
3.750259958E0,6.409618396E-1,-1.076232549E1,-6.048897815E-1,1.079835051E1
3.760188959E0,5.080557972E-1,-1.089731782E1,-5.787176442E-1,1.092449406E1
3.770116959E0,3.483426100E-1,-1.095725295E1,-3.256092203E-1,1.096762308E1
3.780044958E0,1.869658899E-1,-1.098358530E1,4.094454288E-2,1.098525278E1
3.789973958E0,-2.218199730E-2,-1.084511855E1,3.345344102E-1,1.085029962E1
3.799901959E0,-2.170460138E-1,-1.062638825E1,5.418895411E-1,1.064240952E1
3.809829959E0,-4.184207587E-1,-1.031590578E1,5.610649002E-1,1.033962193E1
3.819757958E0,-6.348202166E-1,-9.978268833E0,5.076190102E-1,1.001131973E1
3.829686958E0,-8.704143293E-1,-9.730095459E0,3.755233920E-1,9.776164717E0
3.839614959E0,-9.575824276E-1,-9.414500180E0,1.102235234E-1,9.463716341E0
3.849542959E0,-9.875868300E-1,-8.842520868E0,-2.331261492E-1,8.900553401E0
3.859470959E0,-1.264760786E0,-8.274147533E0,-5.718109131E-2,8.370448430E0
3.869399958E0,-1.545456519E0,-7.570584233E0,2.420408142E-1,7.730508731E0
3.879327958E0,-1.585859171E0,-6.739560987E0,3.127317511E-2,6.923699129E0
3.889255959E0,-1.545636906E0,-5.568611614E0,-3.736792532E-1,5.791205828E0
3.899184958E0,-1.168515177E0,-4.033305861E0,-4.613160789E-1,4.224428531E0
3.909112958E0,-7.676134077E-1,-1.147672192E0,-3.336104771E-1,1.420449843E0
3.919040958E0,-7.015151663E-1,3.735719422E0,2.062850904E-1,3.806609603E0
3.928968959E0,-1.452147675E0,1.104155927E1,2.045801155E-1,1.113851952E1
3.938897958E0,-3.431965340E0,1.823761063E1,3.161250365E-1,1.856040847E1
3.948825958E0,-7.074992360E0,2.165749972E1,-1.787318408E-1,2.278452887E1
3.958753958E0,-1.031353181E1,2.344961986E1,-4.917905974E-1,2.562216751E1
3.968681959E0,-1.164997960E1,2.743360153E1,3.806454067E-1,2.980720397E1
3.978610958E0,-1.098298771E1,3.073373496E1,3.054373788E0,3.277983653E1
3.988538958E0,-8.832814490E0,3.101123212E1,5.145173213E0,3.265253339E1
3.998466958E0,-6.434624598E0,3.042393544E1,3.855661310E0,3.133506607E1
4.008395959E0,-5.658351172E0,2.927355190E1,4.059246741E-1,2.981815812E1
4.018323958E0,-5.387477737E0,2.833433938E1,-2.145200458E0,2.892164569E1
4.028251958E0,-4.982937537E0,2.677378768E1,-2.913552954E0,2.738894237E1
4.038179958E0,-4.744625785E0,2.382274004E1,-2.828058475E0,2.445469959E1
4.048108959E0,-3.997256607E0,2.044437788E1,-2.740603717E0,2.101098656E1
4.058036959E0,-3.145918088E0,1.684445537E1,-2.258613346E0,1.728391771E1
4.067964958E0,-2.070075724E0,1.315384955E1,-1.562554947E0,1.340710817E1
4.077892916E0,-8.751744014E-1,9.582867247E0,-1.067923626E0,9.681825023E0
4.087821917E0,2.600800592E-1,6.023413310E0,-1.280461729E0,6.163499962E0
4.097749917E0,1.538790986E0,2.892389542E0,-2.606336735E0,4.186500464E0
4.107677917E0,2.360160478E0,1.005229926E-1,-3.934758643E0,4.589421307E0
4.117605917E0,2.763544098E0,-2.529421876E0,-3.994206115E0,5.476206123E0
4.127534917E0,3.326660494E0,-4.775762501E0,-4.073951612E0,7.104340873E0
4.137462917E0,4.124469508E0,-6.608584526E0,-4.279390025E0,8.888071622E0
4.147390917E0,4.738751672E0,-8.283298425E0,-4.287169161E0,1.046176943E1
4.157319916E0,5.020809953E0,-9.903140298E0,-3.534552984E0,1.165220087E1
4.167247917E0,5.510372761E0,-1.128521158E1,-2.588772869E0,1.282271240E1
4.177175917E0,6.160330542E0,-1.230946016E1,-1.935759333E0,1.390034697E1
4.187103917E0,6.848469472E0,-1.295400810E1,-1.225108624E0,1.470403859E1
4.197032916E0,7.397569799E0,-1.310532819E1,-6.267232116E-1,1.506208644E1
4.206960917E0,7.763975628E0,-1.287663306E1,-2.308901008E-1,1.503796219E1
4.216888917E0,7.813731925E0,-1.242547827E1,4.195728064E-2,1.467817009E1
4.226816917E0,7.545062306E0,-1.186288491E1,3.572426569E-1,1.406355666E1
4.236745916E0,6.983309773E0,-1.118414363E1,6.261888492E-1,1.320014381E1
4.246673916E0,6.212304103E0,-1.045162667E1,8.771209395E-1,1.219010104E1
4.256601917E0,5.405446815E0,-9.930906386E0,1.174686913E0,1.136756994E1
4.266530917E0,4.750056387E0,-9.545262634E0,1.493398612E0,1.076593302E1
4.276458916E0,4.318300614E0,-9.221348521E0,1.821079062E0,1.034395078E1
4.286386916E0,4.041239364E0,-8.961296529E0,2.155165576E0,1.006385561E1
4.296314917E0,3.643234304E0,-8.695410184E0,2.683940982E0,9.802390202E0
4.306243917E0,3.183290275E0,-8.431566857E0,3.194287133E0,9.561805631E0
4.316171917E0,2.798858065E0,-8.242872530E0,3.229872995E0,9.284968152E0
4.326099916E0,2.540812545E0,-8.169507515E0,2.953337409E0,9.050899584E0
4.336027917E0,2.470067667E0,-8.213238257E0,2.733436493E0,9.001677177E0
4.345956917E0,2.508983226E0,-8.395103620E0,2.733020171E0,9.178352841E0
4.355884917E0,2.533703207E0,-8.621850457E0,2.805147038E0,9.414074949E0
4.365812916E0,2.399844654E0,-8.729479571E0,3.009118970E0,9.540328344E0
4.375741917E0,2.167030746E0,-8.669788855E0,3.284237483E0,9.520896853E0
4.385669917E0,1.876488740E0,-8.579387392E0,3.368951651E0,9.406217797E0
4.395597917E0,1.576520145E0,-8.452012231E0,3.219364672E0,9.180753532E0
4.405525916E0,1.200280469E0,-8.341198724E0,2.910122100E0,8.915440538E0
4.415454917E0,9.459575781E-1,-8.234422134E0,2.525175336E0,8.664701616E0
4.425382917E0,7.852591351E-1,-7.959388990E0,2.013873749E0,8.247678006E0
4.435310917E0,6.816112442E-1,-7.489627778E0,1.608012663E0,7.690567136E0
4.445238917E0,3.323341030E-1,-6.950925554E0,9.098937061E-1,7.018099356E0
4.455167917E0,2.381877914E-2,-6.404092777E0,1.324920595E-1,6.405507456E0
4.465095917E0,-8.147963449E-2,-5.642877100E0,-5.901356484E-1,5.674236599E0
4.475023917E0,-3.697264624E-1,-4.625621790E0,-1.173466892E0,4.786449535E0
4.484952916E0,-8.614770064E-1,-3.600822403E0,-1.013608986E0,3.838680475E0
4.494880917E0,-9.261488195E-1,-1.597531237E0,-9.036262219E-1,2.055820527E0
4.504808917E0,-6.819939445E-1,2.164349797E0,-1.045314782E0,2.498441270E0
4.514736917E0,-5.948546438E-1,7.169454714E0,-4.710820985E-1,7.209497298E0
4.524665916E0,-1.548411556E0,1.204619512E1,7.535936849E-1,1.216866051E1
4.534593916E0,-4.502923817E0,1.596031660E1,1.050819497E0,1.661662573E1
4.544521917E0,-8.620398594E0,1.864941132E1,3.263203879E-1,2.054795122E1
4.554449917E0,-1.236138109E1,2.136240244E1,-6.222079186E-1,2.468892714E1
4.564378916E0,-1.409609210E1,2.461714744E1,-4.382825808E-1,2.837068650E1
4.574306916E0,-1.245887640E1,2.662517953E1,1.031569440E0,2.941407693E1
4.584234917E0,-9.119731514E0,2.817882449E1,9.649942119E-1,2.963354293E1
4.594162917E0,-6.759176057E0,2.852413766E1,-3.562392747E-1,2.931620365E1
4.604091917E0,-5.577221639E0,2.787089608E1,-1.751129552E0,2.847733668E1
4.614019916E0,-4.890905287E0,2.690767957E1,-2.982028527E0,2.751066463E1
4.623947917E0,-4.427807269E0,2.503849078E1,-3.360060375E0,2.564803119E1
4.633876917E0,-3.833601520E0,2.227365357E1,-3.721673241E0,2.290552326E1
4.643804917E0,-2.780252225E0,1.925734984E1,-4.149645865E0,1.989459439E1
4.653732916E0,-2.041873434E0,1.552777233E1,-3.899485607E0,1.613960807E1
4.663660916E0,-1.302994998E0,1.167744631E1,-3.616718059E0,1.229394964E1
4.673589917E0,-6.598954162E-1,7.813416760E0,-3.800724088E0,8.713807837E0
4.683517917E0,-3.572297931E-1,3.931512854E0,-3.879666177E0,5.534999195E0
4.693445916E0,1.056062695E-1,3.319014090E-1,-4.088932178E0,4.103739464E0
4.703374917E0,4.519248658E-1,-2.597745422E0,-4.282349886E0,5.029019577E0
4.713302917E0,6.079315031E-1,-4.860669335E0,-4.009516464E0,6.330237703E0
4.723230917E0,8.754036123E-1,-6.754978341E0,-3.856961439E0,7.827657083E0
4.733158917E0,1.153785749E0,-8.495408512E0,-4.078632015E0,9.494125892E0
4.743087917E0,1.405533233E0,-9.958535650E0,-3.327301934E0,1.059334197E1
4.753015917E0,1.818339934E0,-1.114935854E1,-2.578805705E0,1.158726865E1
4.762943917E0,2.288447302E0,-1.201451140E1,-1.850222754E0,1.236967257E1
4.772871917E0,2.891169228E0,-1.251315961E1,-8.131735233E-1,1.286853815E1
4.782800917E0,3.586129812E0,-1.262955545E1,-1.901514530E-1,1.313020013E1
4.792728917E0,4.157940140E0,-1.242246462E1,-9.463009559E-2,1.310019268E1
4.802656917E0,4.474877355E0,-1.222272139E1,-2.105664217E-1,1.301782562E1
4.812585916E0,4.564559610E0,-1.213659074E1,-1.977482287E-1,1.296808172E1
4.822513917E0,4.511657511E0,-1.213208370E1,-3.928853832E-2,1.294388087E1
4.832441917E0,4.318277518E0,-1.206022142E1,2.991225028E-1,1.281350599E1
4.842369917E0,3.995258614E0,-1.186553604E1,9.578511071E-1,1.255669206E1
4.852298916E0,3.590076975E0,-1.146494680E1,1.831046080E0,1.215262883E1
4.862226916E0,3.303080720E0,-1.093893596E1,2.686933587E0,1.173841021E1
4.872154917E0,3.035163345E0,-1.043012763E1,3.340801108E0,1.136489027E1
4.882082917E0,2.822832526E0,-1.000300022E1,3.545509497E0,1.098175917E1
4.892011916E0,2.728356724E0,-9.693094863E0,3.466528816E0,1.064973429E1
4.901939916E0,2.736969965E0,-9.424657964E0,3.546472826E0,1.043516420E1
4.911867917E0,2.739734529E0,-9.102609113E0,3.744931126E0,1.021705178E1
4.921796917E0,2.598212322E0,-8.737490841E0,3.828035555E0,9.886774483E0
4.931724917E0,2.414842762E0,-8.480873503E0,3.849098980E0,9.621447079E0
4.941652916E0,2.293250789E0,-8.268306164E0,3.803674885E0,9.385724726E0
4.951580917E0,2.111482489E0,-7.979349046E0,3.683124010E0,9.038460708E0
4.961509917E0,1.823503025E0,-7.549309723E0,3.721077117E0,8.611832296E0
4.971437917E0,1.486741118E0,-7.097068523E0,3.437827466E0,8.024801459E0
4.981365916E0,1.177120817E0,-6.787019913E0,2.942170105E0,7.490368325E0
4.991293916E0,9.381515452E-1,-6.635760046E0,2.577383955E0,7.180274908E0
5.001222917E0,8.349107668E-1,-6.880064317E0,2.296363262E0,7.301071512E0
5.011150917E0,7.947449268E-1,-7.310900615E0,2.118081072E0,7.652918053E0
5.021078916E0,7.245578738E-1,-7.540342433E0,2.202573923E0,7.888794586E0
5.031006916E0,8.837765327E-1,-7.614768133E0,2.163053762E0,7.965209116E0
5.040935917E0,9.553993696E-1,-7.474287608E0,1.671774796E0,7.718328457E0
5.050863917E0,7.154093201E-1,-7.527858043E0,1.046415374E0,7.633835363E0
5.060791917E0,3.726769674E-1,-7.458249280E0,7.233686963E-1,7.502508428E0
5.070720917E0,1.675195125E-1,-6.699664850E0,1.866097945E-1,6.704356428E0
5.080649292E0,-2.236940056E-2,-5.268464679E0,-6.767915305E-1,5.311804518E0
5.090577291E0,-1.637667695E-1,-2.674817571E0,-1.301646045E0,2.979219868E0
5.100505291E0,-2.841352120E-1,1.917864515E0,-1.434667862E0,2.411889092E0
5.110434292E0,-1.477292310E0,8.390673770E0,-1.888577858E0,8.726541423E0
5.120362292E0,-4.065675755E0,1.466033906E1,-2.171035211E0,1.536777975E1
5.130290291E0,-6.933423083E0,1.816202484E1,-3.111656328E0,1.968791272E1
5.140218291E0,-1.013842875E1,1.978306715E1,-4.183786587E0,2.261993708E1
5.150147292E0,-1.262328490E1,2.384549273E1,-5.420230916E0,2.751969746E1
5.160075292E0,-1.248673370E1,2.818999735E1,-6.351232778E0,3.147908237E1
5.170003292E0,-1.114578706E1,2.820538254E1,-6.207441559E0,3.095649373E1
5.179932292E0,-9.118135225E0,2.830529041E1,-6.105273744E0,3.035793508E1
5.189860292E0,-7.913779539E0,2.854694881E1,-6.223189280E0,3.027018794E1
5.199788292E0,-7.614305618E0,2.724184093E1,-5.996377539E0,2.891456537E1
5.209716292E0,-7.299826573E0,2.538487282E1,-5.880167636E0,2.706022187E1
5.219645292E0,-6.210671561E0,2.299084966E1,-5.792254164E0,2.450921903E1
5.229573292E0,-4.856453492E0,1.989678848E1,-5.359118156E0,2.117043882E1
5.239501292E0,-3.377806382E0,1.689114539E1,-4.620016942E0,1.783437481E1
5.249430291E0,-1.809978123E0,1.331696114E1,-4.005371958E0,1.402356871E1
5.259358292E0,-7.971476939E-1,9.166662437E0,-3.217041281E0,9.747435523E0
5.269286292E0,-7.861727625E-2,5.217824868E0,-3.315850747E0,6.182777952E0
5.279214292E0,5.075371492E-1,1.508478143E0,-4.029844017E0,4.332752366E0
5.289143291E0,8.882367888E-1,-1.837807946E0,-4.134804754E0,4.611194313E0
5.299071291E0,1.229212199E0,-4.635508847E0,-3.763924344E0,6.096394949E0
5.308999292E0,1.512870279E0,-6.826858163E0,-2.721358484E0,7.503369967E0
5.318927292E0,1.907721057E0,-8.590443308E0,-1.432799677E0,8.915606024E0
5.328856292E0,2.374700749E0,-9.876686325E0,-3.854812002E-1,1.016546763E1
5.338784291E0,2.933665330E0,-1.085711002E1,4.708460172E-1,1.125632828E1
5.348712292E0,3.613819886E0,-1.160841408E1,1.183116406E0,1.221534838E1
5.358641292E0,4.386729702E0,-1.190926035E1,1.492213089E0,1.277891151E1
5.368569292E0,5.148501449E0,-1.177836224E1,1.377820501E0,1.292808081E1
5.378497291E0,5.731578777E0,-1.149228838E1,9.560419786E-1,1.287779887E1
5.388425292E0,5.756545218E0,-1.124734735E1,7.025277579E-1,1.265441348E1
5.398354292E0,5.306188576E0,-1.098066754E1,7.135766566E-1,1.221637788E1
5.408282292E0,4.743632343E0,-1.069424636E1,1.032447546E0,1.174456899E1
5.418210291E0,4.168720652E0,-1.030495043E1,1.464490270E0,1.121226859E1
5.428138291E0,3.688388843E0,-9.885627887E0,1.935619293E0,1.072737028E1
5.438067292E0,3.266290916E0,-9.598420841E0,2.193236797E0,1.037345780E1
5.447995292E0,2.850521431E0,-9.463940728E0,2.194383290E0,1.012457231E1
5.457923292E0,2.469984929E0,-9.390878014E0,2.110334973E0,9.936947676E0
5.467852292E0,2.216124845E0,-9.435342581E0,2.108984267E0,9.918906874E0
5.477780292E0,2.183676892E0,-9.643059654E0,2.205266566E0,1.013016510E1
5.487708292E0,2.400571170E0,-9.807319052E0,2.439683488E0,1.038741086E1
5.497636292E0,2.569842508E0,-9.717212874E0,2.848688037E0,1.044716900E1
5.507565292E0,2.550280064E0,-9.407839032E0,3.674757229E0,1.041706313E1
5.517493292E0,2.518325323E0,-9.061606683E0,4.349503696E0,1.036208765E1
5.527421292E0,2.523155707E0,-8.755740586E0,4.362381896E0,1.010245929E1
5.537349292E0,2.475022305E0,-8.542962747E0,3.962500758E0,9.737009816E0
5.547278292E0,2.523173249E0,-8.498392346E0,3.492034663E0,9.528031371E0
5.557206292E0,2.468277834E0,-8.574352355E0,3.204044967E0,9.480391233E0
5.567134292E0,2.183017326E0,-8.581557879E0,2.963297849E0,9.337549701E0
5.577063291E0,1.744988660E0,-8.468423027E0,2.588386661E0,9.025459517E0
5.586991291E0,1.400065210E0,-8.423194814E0,2.211782703E0,8.820565525E0
5.596919292E0,1.205801117E0,-8.422322994E0,1.901274502E0,8.718045978E0
5.606847292E0,1.318112974E0,-8.536296337E0,1.625600503E0,8.789104275E0
5.616776291E0,1.508779567E0,-8.769766887E0,1.334923134E0,8.998180194E0
5.626704291E0,1.566284301E0,-8.935328459E0,1.131866730E0,9.141906994E0
5.636632292E0,1.506659659E0,-8.917230157E0,1.013119867E0,9.100188397E0
5.646560292E0,1.395803466E0,-8.442083659E0,7.195183048E-1,8.586894108E0
5.656489292E0,1.101942873E0,-7.516050176E0,2.400283487E-1,7.600190916E0
5.666417291E0,6.242914277E-1,-5.562539865E0,-1.432064974E-1,5.599294388E0
5.676345292E0,3.620815203E-1,-1.961151452E0,-9.414930828E-1,2.205363297E0
5.686274292E0,-1.352712411E-1,3.404058334E0,-2.274240614E0,4.096105689E0
5.696202292E0,-1.216569642E0,9.888680134E0,-3.226573119E0,1.047266970E1
5.706130291E0,-3.372345082E0,1.631078117E1,-3.483111520E0,1.701606181E1
5.716058291E0,-7.050944517E0,2.026103493E1,-3.293819607E0,2.170425310E1
5.725987292E0,-1.043376109E1,2.222726177E1,-2.882539322E0,2.472293609E1
5.735915292E0,-1.203075613E1,2.553959483E1,-2.469142053E0,2.833913653E1
5.745843291E0,-1.186815676E1,2.894703168E1,-2.097631313E0,3.135576255E1
5.755772292E0,-1.021209080E1,2.910660687E1,-1.462920585E0,3.088076260E1
5.765700292E0,-7.895574233E0,2.954547081E1,-1.995410581E0,3.064729354E1
5.775628292E0,-6.169660944E0,2.973377689E1,-3.570959211E0,3.057636266E1
5.785556292E0,-5.889129664E0,2.832416288E1,-4.717811916E0,2.931207602E1
5.795485292E0,-6.359584941E0,2.637075782E1,-5.308273108E0,2.764125453E1
5.805413292E0,-6.215833483E0,2.344881294E1,-5.131425240E0,2.479546207E1
5.815341292E0,-5.812272692E0,1.999658875E1,-4.701428018E0,2.134829035E1
5.825269292E0,-5.025414636E0,1.619863742E1,-4.116145120E0,1.745260144E1
5.835198292E0,-3.825740523E0,1.220344663E1,-3.455196912E0,1.324759548E1
5.845126292E0,-2.449612060E0,8.327180609E0,-3.066689193E0,9.205819830E0
5.855054292E0,-1.340087103E0,4.645514603E0,-3.434813519E0,5.930816409E0
5.864983291E0,-6.058314756E-1,8.829927135E-1,-3.998095683E0,4.139018845E0
5.874911292E0,-1.431252211E-1,-2.576544587E0,-3.954862540E0,4.722288063E0
5.884839292E0,2.709476942E-1,-5.297704850E0,-3.723423897E0,6.480970209E0
5.894767292E0,6.375113976E-1,-7.466376325E0,-2.864266773E0,8.022295205E0
5.904696291E0,1.348862019E0,-9.010956346E0,-2.121843463E0,9.355158080E0
5.914624291E0,2.153472222E0,-1.023230229E1,-1.477290848E0,1.056029550E1
5.924552292E0,3.128931342E0,-1.121307448E1,-9.503912294E-1,1.168017526E1
5.934480292E0,4.087526507E0,-1.183671043E1,-6.928857724E-1,1.254175735E1
5.944409291E0,4.892893048E0,-1.204815277E1,-7.054116046E-1,1.302290264E1
5.954337291E0,5.483949194E0,-1.194684859E1,-7.620874965E-1,1.316744726E1
5.964265292E0,5.668458084E0,-1.177634612E1,-8.010858668E-1,1.309410110E1
5.974194292E0,5.512118740E0,-1.144294958E1,-6.700441360E-1,1.271902147E1
5.984122292E0,5.028576225E0,-1.102692018E1,-2.539094925E-1,1.212204676E1
5.994050291E0,4.538696498E0,-1.076146127E1,2.222455041E-1,1.168153276E1
6.003978292E0,4.145118366E0,-1.059172362E1,5.265850389E-1,1.138612784E1
6.013907292E0,3.640194922E0,-1.041355662E1,1.092439978E0,1.108542311E1
6.023835292E0,3.234432069E0,-1.013833753E1,1.506594901E0,1.074789593E1
6.033763291E0,2.953317237E0,-9.820529666E0,1.627495440E0,1.038333410E1
6.043692292E0,2.618637231E0,-9.537434966E0,2.343627183E0,1.016427642E1
6.053620292E0,2.409609504E0,-9.279861023E0,2.526696489E0,9.914950011E0
6.063548292E0,2.259386640E0,-8.983360412E0,2.071257154E0,9.491875393E0
6.073476291E0,2.198035899E0,-8.854198342E0,1.777219975E0,9.294444627E0
6.083405042E0,2.245338704E0,-8.896635679E0,1.801036123E0,9.350689997E0
6.093333041E0,2.286371540E0,-8.905351539E0,1.994605858E0,9.408040889E0
6.103261041E0,2.215662331E0,-8.809049066E0,2.315715792E0,9.373955656E0
6.113189042E0,2.025630746E0,-8.706280158E0,2.691225443E0,9.335158729E0
6.123118042E0,1.812762860E0,-8.587484617E0,2.857005701E0,9.230031571E0
6.133046042E0,1.602119839E0,-8.529315346E0,2.703334734E0,9.089775956E0
6.142974041E0,1.555844390E0,-8.445960948E0,2.207023654E0,8.867122504E0
6.152903042E0,1.373384657E0,-8.378574126E0,2.123964102E0,8.752023384E0
6.162831042E0,1.149869576E0,-8.441626992E0,2.368850902E0,8.842777895E0
6.172759042E0,1.003197726E0,-8.449413144E0,2.239661350E0,8.798583472E0
6.182687041E0,1.016472075E0,-8.426779742E0,1.979604095E0,8.715656296E0
6.192616042E0,1.174454194E0,-8.431373899E0,2.008408649E0,8.746491513E0
6.202544042E0,1.270596453E0,-8.492677862E0,2.214873834E0,8.868238761E0
6.212472042E0,1.356296169E0,-8.527617314E0,2.052940312E0,8.875492115E0
6.222400041E0,1.383276099E0,-8.041832977E0,1.623237059E0,8.319821449E0
6.232329042E0,1.242770431E0,-7.198394923E0,1.484065725E0,7.454114226E0
6.242257042E0,8.140169111E-1,-6.400808980E0,9.692461610E-1,6.524754191E0
6.252185042E0,3.387911832E-1,-4.676432340E0,3.038695648E-2,4.688786865E0
6.262114041E0,-1.170840615E-1,-1.364562378E0,-5.521477501E-1,1.476687610E0
6.272042042E0,-6.985884887E-1,2.905584369E0,-3.049010137E-1,3.003899304E0
6.281970042E0,-1.436159779E0,8.729143941E0,-1.005053048E-1,8.847067885E0
6.291898042E0,-2.626217561E0,1.544892380E1,8.870810866E-2,1.567080516E1
6.301827041E0,-5.192087764E0,2.073357182E1,-4.537598683E-1,2.137860317E1
6.311755042E0,-8.849433446E0,2.361567611E1,-2.031680129E0,2.530099513E1
6.321683042E0,-1.153467602E1,2.682109634E1,-3.291727474E0,2.938120878E1
6.331612042E0,-1.213900447E1,3.023219589E1,-2.629079188E0,3.268414226E1
6.341540041E0,-1.093946455E1,2.940565219E1,-8.010673749E-1,3.138480483E1
6.351468042E0,-8.869508107E0,2.684169725E1,-6.119397694E-1,2.827577330E1
6.361396042E0,-7.318445862E0,2.439456499E1,-1.908875298E0,2.554013030E1
6.371325042E0,-6.805805263E0,2.269101146E1,-3.168974829E0,2.390069848E1
6.381253041E0,-6.262331711E0,2.202187247E1,-3.444817227E0,2.315267654E1
6.391181041E0,-6.245694044E0,2.047374026E1,-3.030167777E0,2.161861816E1
6.401110042E0,-6.154755807E0,1.814389848E1,-2.923765701E0,1.938118874E1
6.411038042E0,-5.655902358E0,1.554203720E1,-2.976074892E0,1.680479615E1
6.420966041E0,-4.846918730E0,1.238247551E1,-2.647112879E0,1.355822730E1
6.430894041E0,-3.754285501E0,9.267815174E0,-2.250249342E0,1.024942339E1
6.440823042E0,-2.661472763E0,6.127892529E0,-2.154332932E0,7.019661993E0
6.450751042E0,-1.690537634E0,3.091292523E0,-2.756237125E0,4.473348862E0
6.460679042E0,-9.202418160E-1,4.212936419E-1,-3.870922251E0,4.001046414E0
6.470607041E0,-3.745857909E-1,-1.800240170E0,-4.452175248E0,4.816953770E0
6.480536042E0,2.284086156E-1,-3.587747444E0,-4.938751298E0,6.108630501E0
6.490464042E0,8.950458714E-1,-5.159332831E0,-5.966012363E0,7.938080744E0
6.500392042E0,1.063298625E0,-6.855104308E0,-5.793722985E0,9.038267813E0
6.510321042E0,1.234498375E0,-8.508546621E0,-4.759274522E0,9.827005943E0
6.520249042E0,1.754398292E0,-9.806542541E0,-3.846664492E0,1.067909255E1
6.530177042E0,2.638380062E0,-1.076068710E1,-2.833671802E0,1.143604530E1
6.540105042E0,3.833080825E0,-1.134130626E1,-1.474226907E0,1.206196838E1
6.550034042E0,5.086878812E0,-1.143294733E1,-6.400830030E-2,1.251370120E1
6.559962042E0,6.060080615E0,-1.128195000E1,3.203794706E-1,1.281052754E1
6.569890042E0,6.457476102E0,-1.132547901E1,-2.096016312E-1,1.303876548E1
6.579818042E0,6.580012107E0,-1.143518915E1,-8.902537858E-1,1.322318653E1
6.589747041E0,6.649327925E0,-1.135872160E1,-1.353803501E0,1.323128498E1
6.599675042E0,6.552931312E0,-1.113199465E1,-1.450115329E0,1.299865563E1
6.609603042E0,6.288347143E0,-1.086935175E1,-1.212049452E0,1.261567205E1
6.619532041E0,5.831710006E0,-1.064488416E1,-7.185514677E-1,1.215889455E1
6.629460041E0,5.268494500E0,-1.035342151E1,-2.177853942E-1,1.161885544E1
6.639388042E0,4.813826998E0,-1.008894025E1,1.628051949E-1,1.117972054E1
6.649316042E0,4.451198763E0,-9.976517007E0,4.064844719E-1,1.093203054E1
6.659245042E0,4.100319338E0,-9.909065866E0,5.966288352E-1,1.074049212E1
6.669173041E0,3.798134356E0,-9.808214845E0,7.790058303E-1,1.054674135E1
6.679101042E0,3.622573168E0,-9.718452483E0,1.009332333E0,1.042065769E1
6.689030042E0,3.540347575E0,-9.685443197E0,1.221098457E0,1.038426465E1
6.698958042E0,3.437201521E0,-9.617109126E0,1.590814394E0,1.033604531E1
6.708886041E0,3.184840664E0,-9.503835695E0,1.955316954E0,1.021221657E1
6.718814041E0,2.887429349E0,-9.397093604E0,2.100335065E0,1.005256305E1
6.728743042E0,2.681807625E0,-9.237283938E0,2.067491401E0,9.838395569E0
6.738671042E0,2.450534751E0,-9.050427976E0,1.968163287E0,9.580659363E0
6.748599041E0,2.218110268E0,-8.838619021E0,1.883801998E0,9.305369918E0
6.758528042E0,2.086425124E0,-8.581531566E0,1.759185115E0,9.005031154E0
6.768456042E0,1.987563910E0,-8.257223936E0,1.446388314E0,8.615346574E0
6.778384042E0,1.864858920E0,-7.876129317E0,1.111822475E0,8.169899695E0
6.788312042E0,1.653089726E0,-7.544439577E0,1.098655568E0,7.801174158E0
6.798241042E0,1.356022519E0,-7.103309256E0,1.039582464E0,7.305924388E0
6.808169042E0,1.174935713E0,-6.576637094E0,6.265057683E-1,6.710077412E0
6.818097042E0,1.262985717E0,-6.119623396E0,-4.437086508E-2,6.248751252E0
6.828025042E0,1.390964018E0,-5.263785152E0,-4.577165329E-1,5.463672708E0
6.837954042E0,1.764078358E0,-3.520547733E0,-4.234683676E-1,3.960499243E0
6.847882042E0,2.190496499E0,-7.657256341E-1,-3.697789411E-1,2.349754695E0
6.857810042E0,2.131390212E0,3.066486295E0,-7.477618182E-1,3.808583749E0
6.867739041E0,5.083741781E-1,8.472486842E0,-7.059121263E-1,8.517029383E0
6.877667041E0,-2.191598115E0,1.467869581E1,-5.338366096E-1,1.485099978E1
6.887595042E0,-4.997870157E0,1.967987783E1,-1.174218113E0,2.033851237E1
6.897523042E0,-7.379423550E0,2.235018193E1,-1.447319191E0,2.358137522E1
6.907452041E0,-8.906299957E0,2.519314730E1,-1.284144305E0,2.675193220E1
6.917380041E0,-8.546123167E0,2.786540204E1,7.404517753E-1,2.915587626E1
6.927308042E0,-7.246805191E0,2.764147707E1,3.325332592E0,2.876847713E1
6.937237042E0,-5.811197389E0,2.670293346E1,2.726516898E0,2.746362258E1
6.947165042E0,-4.741908584E0,2.603197716E1,1.150801184E0,2.648535209E1
6.957093041E0,-4.649170574E0,2.488483063E1,2.641934292E-1,2.531678062E1
6.967021042E0,-4.608958103E0,2.369035440E1,-5.375579238E-2,2.413458672E1
6.976950042E0,-4.782574215E0,2.172111976E1,1.940608283E-1,2.224225077E1
6.986878042E0,-4.670770774E0,1.921048674E1,3.950788200E-1,1.977409891E1
6.996806041E0,-4.250755333E0,1.658599440E1,5.267966716E-1,1.713013853E1
7.006734041E0,-3.708406785E0,1.392537329E1,4.313724875E-1,1.441715590E1
7.016663042E0,-2.972188833E0,1.120830198E1,-1.313904440E-1,1.159643062E1
7.026591042E0,-2.186166051E0,8.500468692E0,-1.258118495E0,8.866800558E0
7.036519041E0,-1.756632513E0,5.793827065E0,-2.308409404E0,6.479424652E0
7.046448042E0,-1.686236130E0,3.201593229E0,-3.116240838E0,4.775410815E0
7.056376042E0,-1.811963838E0,7.096958596E-1,-3.654981653E0,4.140745349E0
7.066304042E0,-1.950511858E0,-1.476434816E0,-4.044709101E0,4.726947005E0
7.076232042E0,-2.092938337E0,-3.358641255E0,-4.488319811E0,5.983801191E0
7.086160666E0,-2.422796437E0,-5.033986069E0,-5.081107610E0,7.551729131E0
7.096088666E0,-2.886594366E0,-6.436663522E0,-5.634756487E0,9.028485200E0
7.106016667E0,-3.077608868E0,-7.526984469E0,-5.774870392E0,9.973780607E0
7.115945667E0,-2.756768930E0,-8.315672119E0,-5.284845069E0,1.023131297E1
7.125873666E0,-2.111813003E0,-8.828351310E0,-4.780285907E0,1.025917513E1
7.135801666E0,-1.452156884E0,-9.166129755E0,-4.375594264E0,1.026023974E1
7.145729667E0,-8.311396050E-1,-9.372500800E0,-3.962928774E0,1.020976830E1
7.155658667E0,-1.900736851E-1,-9.486777613E0,-3.712715891E0,1.018917743E1
7.165586667E0,3.192810711E-1,-9.554098946E0,-3.450683447E0,1.016316699E1
7.175514666E0,5.055754083E-1,-9.586204253E0,-3.225760941E0,1.012701595E1
7.185442667E0,3.071901986E-1,-9.714920180E0,-3.012469132E0,1.017590341E1
7.195371667E0,1.668549764E-1,-9.780503136E0,-2.711243386E0,1.015071046E1
7.205299667E0,2.808385518E-1,-9.743638195E0,-2.788794422E0,1.013877359E1
7.215227666E0,4.451181221E-1,-9.832812327E0,-3.130960618E0,1.032885486E1
7.225156667E0,5.269320711E-1,-1.004956510E1,-3.073444481E0,1.052223727E1
7.235084667E0,5.445362833E-1,-1.028774325E1,-2.717626791E0,1.065456129E1
7.245012667E0,6.081725545E-1,-1.063656007E1,-2.381443466E0,1.091684739E1
7.254940666E0,7.713826691E-1,-1.109012625E1,-2.237418943E0,1.133984016E1
7.264869667E0,1.052793225E0,-1.165887789E1,-2.216134493E0,1.191423768E1
7.274797667E0,1.289260765E0,-1.231680894E1,-1.932062724E0,1.253390770E1
7.284725667E0,1.484594167E0,-1.280415565E1,-1.678991137E0,1.299882430E1
7.294654666E0,1.534438318E0,-1.302625863E1,-1.386703445E0,1.318942233E1
7.304582667E0,1.509335198E0,-1.310133805E1,-1.027399133E0,1.322795148E1
7.314510667E0,1.451845082E0,-1.302567157E1,-7.234245372E-1,1.312628344E1
7.324438667E0,1.476507614E0,-1.291636138E1,-4.740215669E-1,1.300911844E1
7.334367666E0,1.414373492E0,-1.275928997E1,-2.215101071E-1,1.283935355E1
7.344295667E0,1.231569943E0,-1.249006311E1,-2.306960464E-2,1.255065628E1
7.354223667E0,9.235475394E-1,-1.213083474E1,1.396958292E-2,1.216594783E1
7.364152667E0,5.747412452E-1,-1.182702043E1,1.250058693E-1,1.184163697E1
7.374080666E0,8.709515423E-2,-1.154013264E1,1.640140336E-2,1.154047295E1
7.384008667E0,-4.493652472E-1,-1.122370939E1,1.594173181E-1,1.123383263E1
7.393936667E0,-7.813683978E-1,-1.057781192E1,6.577953887E-1,1.062700976E1
7.403865667E0,-1.030349857E0,-9.274479831E0,9.453708100E-1,9.379302902E0
7.413793666E0,-1.215255480E0,-7.207711292E0,6.131080431E-1,7.335110730E0
7.423721666E0,-1.814775764E0,-4.597235312E0,1.897889987E-1,4.946109932E0
7.433650667E0,-2.583943069E0,-1.714497769E0,-4.739519850E-1,3.137020062E0
7.443578667E0,-2.834827212E0,2.800838517E0,-9.731368252E-1,4.102186856E0
7.453506667E0,-3.018010538E0,9.430460156E0,3.934521977E-1,9.909428389E0
7.463434666E0,-4.655190575E0,1.576580780E1,4.148362693E0,1.695406759E1
7.473363667E0,-7.619074607E0,1.982258965E1,7.448257558E0,2.250470837E1
7.483291667E0,-9.980149298E0,2.130422264E1,9.028844149E0,2.519907357E1
7.493219667E0,-9.639022152E0,2.343743192E1,1.012596248E1,2.729027445E1
7.503148667E0,-7.074589487E0,2.554433341E1,1.180902504E1,2.901750951E1
7.513076667E0,-5.617920014E0,2.569134411E1,1.054067859E1,2.833217416E1
7.523004667E0,-5.997776778E0,2.533670346E1,6.058791304E0,2.673257976E1
7.532932667E0,-7.243140156E0,2.466123779E1,2.957840350E0,2.587254429E1
7.542861667E0,-7.984024479E0,2.322926637E1,2.730712275E0,2.471437340E1
7.552789667E0,-7.504341127E0,2.158655428E1,3.108679803E0,2.306422233E1
7.562717667E0,-6.608200364E0,1.978236081E1,2.767329878E0,2.103968217E1
7.572645667E0,-5.768451319E0,1.777734588E1,2.218207477E0,1.882098567E1
7.582574666E0,-4.899991275E0,1.567460293E1,1.354023503E0,1.647836373E1
7.592502667E0,-3.884600350E0,1.357716224E1,3.436363323E-1,1.412612970E1
7.602430667E0,-2.813241338E0,1.147662954E1,-8.536677575E-1,1.184719802E1
7.612359666E0,-1.889930319E0,9.448045657E0,-2.001011483E0,9.840805368E0
7.622287666E0,-1.296090606E0,7.360355195E0,-2.857781627E0,8.001349592E0
7.632215667E0,-8.895117742E-1,5.274009594E0,-3.708418772E0,6.508362173E0
7.642143667E0,-3.545698947E-1,3.292456037E0,-4.635587200E0,5.696898740E0
7.652072667E0,6.656294882E-2,1.369277573E0,-5.232910684E0,5.409501449E0
7.662000666E0,5.655502993E-1,-4.132233149E-1,-5.346112779E0,5.391801415E0
7.671928667E0,1.263924195E0,-1.955305406E0,-5.113661984E0,5.618742073E0
7.681857667E0,2.302374492E0,-3.202224144E0,-4.969226986E0,6.344161458E0
7.691785667E0,3.510560689E0,-4.262526655E0,-4.900358480E0,7.382864151E0
7.701713666E0,4.493371221E0,-5.159912875E0,-4.794596967E0,8.354833684E0
7.711641666E0,5.151908621E0,-5.884963523E0,-4.637858843E0,9.093112380E0
7.721570667E0,5.555148400E0,-6.511503789E0,-4.539908625E0,9.688659643E0
7.731498667E0,5.886262774E0,-7.108520880E0,-4.521632568E0,1.027736929E1
7.741426666E0,6.216462058E0,-7.605458781E0,-4.480904665E0,1.079656938E1
7.751355667E0,6.359746324E0,-7.928909794E0,-4.340877591E0,1.105247493E1
7.761283667E0,6.476833309E0,-8.217635363E0,-4.164596903E0,1.126156153E1
7.771211667E0,6.620995826E0,-8.403577990E0,-3.985044698E0,1.141657961E1
7.781139667E0,6.830277030E0,-8.515158067E0,-3.837501613E0,1.157095587E1
7.791068667E0,7.040557523E0,-8.550044310E0,-3.609221636E0,1.164899947E1
7.800996667E0,7.280788624E0,-8.525546815E0,-3.263451508E0,1.167668391E1
7.810924667E0,7.424559962E0,-8.438799278E0,-2.690098977E0,1.155742430E1
7.820852667E0,7.443157032E0,-8.325142270E0,-2.157259171E0,1.137375697E1
7.830781667E0,7.498382814E0,-8.179374692E0,-2.064338436E0,1.128669165E1
7.840709667E0,7.409193479E0,-8.115720148E0,-2.222626072E0,1.121165145E1
7.850637667E0,7.215466454E0,-8.169885246E0,-2.314018345E0,1.114291981E1
7.860566666E0,7.035195041E0,-8.172255122E0,-2.399355534E0,1.104701906E1
7.870494667E0,6.843755447E0,-8.142693939E0,-2.475127555E0,1.092092989E1
7.880422667E0,6.634004712E0,-8.029052718E0,-2.376715115E0,1.068290601E1
7.890350667E0,6.528909196E0,-7.830966008E0,-2.065806672E0,1.040279968E1
7.900279666E0,6.495568957E0,-7.598591811E0,-1.623267172E0,1.012748784E1
7.910207666E0,6.487289885E0,-7.334128679E0,-1.143287512E0,9.858066741E0
7.920135667E0,6.600736978E0,-6.937905559E0,-9.040960456E-1,9.618817591E0
7.930064667E0,6.825607443E0,-6.517777267E0,-1.203072368E0,9.514080124E0
7.939992667E0,7.048599783E0,-6.151560888E0,-1.661269396E0,9.501803843E0
7.949920666E0,7.192098641E0,-5.742571542E0,-1.550287050E0,9.333102417E0
7.959848667E0,7.135221605E0,-5.230541977E0,-1.156808321E0,8.922340625E0
7.969777667E0,6.904246647E0,-4.744187536E0,-7.514800626E-1,8.410746663E0
7.979705667E0,6.651194941E0,-4.251659020E0,-3.668046087E-1,7.902502400E0
7.989633666E0,6.551234450E0,-3.405371618E0,-1.730881083E-1,7.385471425E0
7.999562667E0,6.696975131E0,-2.186937591E0,-2.339903677E-1,7.048895192E0
8.009490667E0,6.576062313E0,-5.901998216E-1,-3.703198086E-1,6.612871398E0
8.019418667E0,6.171603974E0,1.390410579E0,1.533753902E-1,6.328148323E0
8.029346666E0,5.753817492E0,3.971697843E0,1.213549848E0,7.096020203E0
8.039275667E0,5.261712314E0,6.896279231E0,2.690535471E0,9.082029775E0
8.049203667E0,3.978774728E0,9.245873498E0,3.912203593E0,1.079917414E1
8.059131667E0,1.735328475E0,1.064190208E1,4.230909006E0,1.158283367E1
8.069060666E0,1.755076861E-1,1.175979850E1,3.455247198E0,1.225815634E1
8.078988458E0,-9.525523603E-2,1.330842421E1,3.017766709E0,1.364661659E1
8.088916458E0,2.411567152E-1,1.556505418E1,4.469664854E0,1.619589368E1
8.098844458E0,1.654341030E-1,1.741428057E1,7.303146622E0,1.888439797E1
8.108773459E0,-1.270026349E0,1.825682692E1,1.038552740E1,2.104243036E1
8.118701458E0,-4.187074769E0,1.822878367E1,1.246345711E1,2.247571829E1
8.128629458E0,-7.278828637E0,1.787395826E1,1.251566923E1,2.300221090E1
8.138558459E0,-8.609762508E0,1.807896164E1,1.212349414E1,2.340845947E1
8.148486459E0,-8.240816649E0,1.874044311E1,1.228948022E1,2.387774259E1
8.158414458E0,-7.845812089E0,1.871106787E1,1.213203692E1,2.363994814E1
8.168342458E0,-8.226143646E0,1.771332355E1,1.100214319E1,2.241603054E1
8.178271458E0,-8.412986745E0,1.620715330E1,9.051800902E0,2.038100252E1
8.188199459E0,-8.192269557E0,1.425464637E1,6.685859574E0,1.774849126E1
8.198127459E0,-8.278519496E0,1.187460039E1,5.011856112E0,1.531857438E1
8.208056458E0,-8.379353560E0,9.270094419E0,4.063935331E0,1.314015932E1
8.217984458E0,-8.157160535E0,6.754280183E0,2.861993376E0,1.097044096E1
8.227912459E0,-7.634380864E0,4.405559490E0,1.454698961E0,8.933581290E0
8.237840459E0,-6.928823664E0,2.423186738E0,1.904195479E-1,7.342798576E0
8.247769458E0,-5.985890558E0,7.412673157E-1,-8.946710649E-1,6.097606032E0
8.257697458E0,-5.258448983E0,-9.720797217E-1,-1.667268054E0,5.601429055E0
8.267625459E0,-4.797166526E0,-2.739101275E0,-2.056281265E0,5.894385050E0
8.277554458E0,-4.180337900E0,-4.186592374E0,-2.335748937E0,6.360699942E0
8.287482458E0,-3.477978542E0,-5.305270563E0,-2.648671162E0,6.874422841E0
8.297410458E0,-2.895628899E0,-6.241558893E0,-2.897114092E0,7.465587331E0
8.307338458E0,-2.457785298E0,-7.006816165E0,-2.833248464E0,7.947545420E0
8.317267458E0,-2.055344834E0,-7.699560946E0,-2.778491628E0,8.439650282E0
8.327195458E0,-1.662311662E0,-8.359340295E0,-2.848364686E0,8.986380340E0
8.337123458E0,-1.216413521E0,-9.002511213E0,-3.048968621E0,9.582331639E0
8.347051458E0,-8.967272383E-1,-9.656388967E0,-3.088461301E0,1.017784657E1
8.356980459E0,-7.871059781E-1,-1.036635438E1,-2.855868125E0,1.078131818E1
8.366908458E0,-7.567554206E-1,-1.098958454E1,-2.606852168E0,1.131986419E1
8.376836458E0,-7.574038768E-1,-1.148676627E1,-2.361595677E0,1.175145073E1
8.386765459E0,-7.203676128E-1,-1.192545947E1,-2.144900789E0,1.213820879E1
8.396693459E0,-6.392737484E-1,-1.239787240E1,-1.871898383E0,1.255467700E1
8.406621458E0,-5.296767542E-1,-1.296462196E1,-1.699781789E0,1.308629964E1
8.416549458E0,-3.953814134E-1,-1.354213040E1,-1.667135907E0,1.365009027E1
8.426478459E0,-2.733134776E-1,-1.394128707E1,-1.623872066E0,1.403820309E1
8.436406459E0,-1.081334361E-1,-1.405458506E1,-1.487164749E0,1.413346076E1
8.446334458E0,-8.502728641E-3,-1.394696589E1,-1.415023264E0,1.401856699E1
8.456263458E0,2.438131052E-1,-1.381832480E1,-1.063963599E0,1.386136947E1
8.466191459E0,5.107023932E-1,-1.359262696E1,-6.132594860E-1,1.361603509E1
8.476119459E0,6.743811621E-1,-1.331537538E1,-1.073238891E-1,1.333287403E1
8.486047459E0,5.888695800E-1,-1.319878073E1,6.159573913E-1,1.322626114E1
8.495976458E0,2.510471343E-1,-1.305824290E1,1.282941095E0,1.312351592E1
8.505904458E0,-2.268528177E-1,-1.270792452E1,1.558222160E0,1.280511086E1
8.515832459E0,-6.758167997E-1,-1.224388714E1,1.274804109E0,1.232861007E1
8.525761458E0,-1.057892728E0,-1.173826905E1,7.080567388E-1,1.180709285E1
8.535689458E0,-1.380317554E0,-1.109369071E1,4.877213739E-1,1.118986694E1
8.545617458E0,-1.455487020E0,-1.027164469E1,6.967774598E-1,1.039762598E1
8.555545459E0,-1.179218359E0,-9.214464009E0,1.086382263E0,9.352920899E0
8.565474458E0,-7.214951022E-1,-7.793198258E0,1.464938459E0,7.962445539E0
8.575402458E0,-3.651478001E-1,-6.283362392E0,1.739095690E0,6.529810846E0
8.585330458E0,2.020961452E-1,-4.388356982E0,2.294310451E0,4.956044824E0
8.595259459E0,8.770583743E-1,-1.502223376E0,3.112878104E0,3.565938383E0
8.605187458E0,8.780255038E-1,2.628040431E0,4.409404035E0,5.207722077E0
8.615115458E0,1.371970215E-1,8.107932826E0,6.245399929E0,1.023535139E1
8.625043458E0,-2.530394853E0,1.356209280E1,6.732440833E0,1.535118949E1
8.634972459E0,-6.745981815E0,1.755898746E1,5.101808508E0,1.948986304E1
8.644900458E0,-1.039311124E1,2.137466054E1,3.603896284E0,2.403915437E1
8.654828458E0,-1.110757901E1,2.516709211E1,4.028881273E0,2.780274664E1
8.664757458E0,-9.677341880E0,2.746564661E1,6.723170072E0,2.988668107E1
8.674685459E0,-7.847145839E0,2.818846304E1,9.132322324E0,3.065234832E1
8.684613459E0,-6.598999186E0,2.783453341E1,8.063688700E0,2.972088687E1
8.694541458E0,-6.768384837E0,2.655769097E1,4.791287443E0,2.782226479E1
8.704470458E0,-7.224722012E0,2.519816889E1,2.608066927E0,2.634286121E1
8.714398459E0,-6.623358686E0,2.364372169E1,1.589334610E0,2.460529293E1
8.724326459E0,-5.581257387E0,2.155214926E1,8.202930200E-1,2.227820577E1
8.734255458E0,-4.583452548E0,1.931085303E1,2.852214054E-1,1.984939378E1
8.744183458E0,-3.573252489E0,1.683982437E1,-5.936911210E-1,1.722499020E1
8.754111459E0,-2.660724904E0,1.406514747E1,-1.935524275E0,1.444486360E1
8.764039459E0,-1.883574688E0,1.112665731E1,-3.391524827E0,1.178358168E1
8.773968458E0,-1.341338992E0,8.036758178E0,-4.445234603E0,9.281636870E0
8.783896458E0,-8.307981277E-1,5.159176710E0,-5.361298583E0,7.486711718E0
8.793824458E0,-6.752703774E-1,2.514999719E0,-5.710531139E0,6.276255218E0
8.803753458E0,-7.601351112E-1,1.920102829E-1,-5.128676464E0,5.188255546E0
8.813681458E0,-5.938122314E-1,-1.628646026E0,-4.494333673E0,4.817067158E0
8.823609458E0,2.277578205E-2,-3.124243337E0,-4.018729337E0,5.090343864E0
8.833537458E0,1.040448875E0,-4.316939090E0,-3.596373256E0,5.714227644E0
8.843466459E0,2.087096677E0,-5.322901087E0,-3.711240638E0,6.816344739E0
8.853394458E0,3.031403001E0,-6.237568753E0,-4.285310331E0,8.152334189E0
8.863322458E0,3.748866009E0,-7.133631747E0,-5.090963677E0,9.532083163E0
8.873251459E0,4.311707001E0,-8.023614807E0,-6.128953214E0,1.097876493E1
8.883179459E0,4.817758958E0,-8.875642421E0,-7.298641927E0,1.246025697E1
8.893107458E0,5.046238909E0,-9.580972164E0,-8.206352575E0,1.358689727E1
8.903035458E0,5.210469071E0,-9.949947259E0,-8.667091534E0,1.418692758E1
8.912964459E0,5.290462489E0,-9.846676075E0,-8.690753462E0,1.415892718E1
8.922892459E0,5.267217468E0,-9.520870389E0,-7.618951231E0,1.328303319E1
8.932820458E0,5.205320597E0,-9.114178414E0,-6.034229490E0,1.210683841E1
8.942749458E0,5.000563969E0,-8.832241462E0,-4.874165293E0,1.125929023E1
8.952677459E0,4.750110473E0,-8.711294730E0,-4.223394749E0,1.078365748E1
8.962605459E0,4.466618747E0,-8.770462705E0,-3.756057792E0,1.053468885E1
8.972533459E0,4.352600381E0,-8.910215253E0,-3.417132708E0,1.048874930E1
8.982462458E0,4.441498232E0,-8.952446768E0,-3.107146663E0,1.046554203E1
8.992390458E0,4.696028991E0,-8.824389821E0,-2.766607747E0,1.037191701E1
9.002318459E0,4.903396693E0,-8.562450348E0,-2.573518653E0,1.019714928E1
9.012247458E0,4.799907701E0,-8.340859585E0,-2.171701502E0,9.865360610E0
9.022175458E0,4.680723319E0,-8.145330448E0,-1.724642104E0,9.551438074E0
9.032103458E0,4.666330983E0,-7.979445525E0,-1.712273489E0,9.400961452E0
9.042031459E0,4.614203055E0,-7.329782444E0,-2.141156232E0,8.921946565E0
9.051960458E0,4.397866601E0,-6.689841528E0,-2.789369788E0,8.477959314E0
9.061888458E0,4.067560020E0,-6.407809852E0,-3.583308823E0,8.393162320E0
9.071816458E0,3.825357530E0,-6.303168665E0,-4.216081052E0,8.493446585E0
9.081745792E0,3.690474544E0,-6.386007923E0,-4.648114275E0,8.718122841E0
9.091673791E0,3.644749318E0,-6.559325827E0,-4.910815056E0,8.968001863E0
9.101601792E0,3.564418808E0,-6.646579733E0,-4.762527620E0,8.919852741E0
9.111529792E0,3.593875911E0,-6.563045826E0,-4.359545411E0,8.659974063E0
9.121458792E0,3.834563679E0,-6.208775309E0,-3.816163661E0,8.235039437E0
9.131386791E0,4.147692602E0,-5.554419837E0,-3.241672969E0,7.652671252E0
9.141314792E0,4.218726332E0,-4.546400789E0,-2.592858319E0,6.722375046E0
9.151243792E0,4.042695905E0,-3.160793113E0,-1.571771036E0,5.366979362E0
9.161171792E0,3.935723433E0,-1.222958602E0,-5.844701350E-1,4.162589582E0
9.171099791E0,3.544660481E0,1.622845003E0,3.071650556E-1,3.910574664E0
9.181028792E0,2.235596951E0,5.327935540E0,1.660737884E0,6.011891646E0
9.190956792E0,-1.966406929E-1,8.503908609E0,3.237630204E0,9.101504191E0
9.200884792E0,-3.606716981E0,1.020321590E1,3.963634533E0,1.152494775E1
9.210812792E0,-5.844125984E0,1.138037267E1,4.622188305E0,1.360262164E1
9.220741792E0,-5.892691787E0,1.309488857E1,6.392197201E0,1.571814583E1
9.230669792E0,-4.981863989E0,1.442983831E1,9.342231519E0,1.789738786E1
9.240597792E0,-4.597270396E0,1.463315769E1,1.230303992E1,1.966288357E1
9.250526791E0,-5.614829176E0,1.422104827E1,1.423396711E1,2.088947918E1
9.260454792E0,-7.906574600E0,1.329183917E1,1.428402045E1,2.105279436E1
9.270382792E0,-9.816733654E0,1.274208278E1,1.348616436E1,2.099060653E1
9.280310792E0,-9.831731762E0,1.298282551E1,1.270446881E1,2.065478723E1
9.290239791E0,-9.235725655E0,1.353143467E1,1.150273385E1,2.001777307E1
9.300167792E0,-8.971978222E0,1.397484541E1,9.988024328E0,1.937919832E1
9.310095792E0,-9.029297308E0,1.391291170E1,8.030051422E0,1.842767071E1
9.320024792E0,-9.102186359E0,1.269049046E1,5.346848359E0,1.650718425E1
9.329952791E0,-8.427705356E0,1.042674326E1,2.874323984E0,1.371148901E1
9.339880791E0,-7.330411019E0,7.510013511E0,1.784132261E0,1.064510951E1
9.349809792E0,-6.242566953E0,4.368096964E0,1.749330803E0,7.817293106E0
9.359737792E0,-5.178044506E0,1.395764290E0,1.575442210E0,5.589483072E0
9.369665791E0,-4.107161165E0,-1.234688702E0,8.658492619E-1,4.375262732E0
9.379593791E0,-3.150315194E0,-3.534828388E0,1.073110253E-1,4.736139062E0
9.389522792E0,-2.337807450E0,-5.595704103E0,-4.505946243E-1,6.081141636E0
9.399450792E0,-1.601820754E0,-7.275581678E0,-9.244658446E-1,7.506967136E0
9.409378792E0,-8.386646792E-1,-8.563881746E0,-1.335480081E0,8.707866332E0
9.419307792E0,-1.402162313E-3,-9.369703492E0,-1.825673804E0,9.545911708E0
9.429235792E0,9.885394876E-1,-9.722385905E0,-2.758085430E0,1.015426183E1
9.439163792E0,1.812640653E0,-9.695595133E0,-3.877151874E0,1.059823277E1
9.449092791E0,2.280574318E0,-9.603637726E0,-4.371221716E0,1.079529787E1
9.459020792E0,2.282354357E0,-9.561769323E0,-4.785458938E0,1.093330651E1
9.468948792E0,2.137498214E0,-9.472158405E0,-5.126354535E0,1.098044600E1
9.478876792E0,1.979542992E0,-9.194349003E0,-4.932976588E0,1.062021196E1
9.488805791E0,1.902612053E0,-8.750081066E0,-4.709291353E0,1.011737497E1
9.498733792E0,1.836618038E0,-8.212037823E0,-4.970760126E0,9.773391799E0
9.508661792E0,1.676049841E0,-7.905318033E0,-5.422667450E0,9.731830175E0
9.518590792E0,1.342309629E0,-7.879955735E0,-5.790870128E0,9.870647110E0
9.528518791E0,1.032550164E0,-8.042953303E0,-5.982077004E0,1.007673077E1
9.538446791E0,9.604330914E-1,-8.165513282E0,-5.974649286E0,1.016338885E1
9.548374792E0,9.237425441E-1,-8.100899795E0,-5.927501432E0,1.008033487E1
9.558303792E0,8.212965484E-1,-8.118499914E0,-5.412070541E0,9.791581916E0
9.568231791E0,7.790588938E-1,-8.219643881E0,-4.656736579E0,9.479170526E0
9.578159791E0,8.376507720E-1,-8.213535295E0,-4.290036051E0,9.304204973E0
9.588088792E0,9.739615019E-1,-8.240802616E0,-4.208599832E0,9.304393656E0
9.598016792E0,1.116065653E0,-8.352948704E0,-4.105304382E0,9.373946803E0
9.607944792E0,1.304750186E0,-8.359581200E0,-4.134894217E0,9.417129131E0
9.617873792E0,1.500694622E0,-8.289903440E0,-4.228140934E0,9.426121108E0
9.627801792E0,1.641038468E0,-8.226246557E0,-4.180689317E0,9.372422464E0
9.637729792E0,1.611420567E0,-8.123180026E0,-4.005133392E0,9.199120798E0
9.647657792E0,1.532063033E0,-8.060583828E0,-3.757374585E0,9.024305655E0
9.657586792E0,1.468667521E0,-7.895041552E0,-3.603020664E0,8.801728426E0
9.667514792E0,1.472800479E0,-7.527449323E0,-3.614659839E0,8.479233474E0
9.677442792E0,1.543874847E0,-7.145233208E0,-3.400245364E0,8.062231433E0
9.687371791E0,1.532893630E0,-6.611430366E0,-2.865587367E0,7.366978032E0
9.697299791E0,1.503369869E0,-5.595226386E0,-2.611995378E0,6.355249730E0
9.707227792E0,1.412952034E0,-4.304971594E0,-2.600371991E0,5.224093066E0
9.717156792E0,1.266827484E0,-2.601166043E0,-2.588191071E0,3.881964667E0
9.727084791E0,1.122747705E0,-2.650811827E-1,-2.074455581E0,2.373646225E0
9.737012791E0,9.581344047E-1,2.347700354E0,-1.050635895E0,2.744732095E0
9.746940792E0,5.809635597E-1,5.819896876E0,-3.128494263E-2,5.848905629E0
9.756869792E0,-1.608637731E-1,1.013108698E1,1.241115376E0,1.020809326E1
9.766797792E0,-1.635197246E0,1.374875697E1,2.311350845E0,1.403725511E1
9.776725791E0,-3.832331797E0,1.597256301E1,3.161946183E0,1.672744570E1
9.786654792E0,-5.488745665E0,1.795959658E1,3.899112847E0,1.918010738E1
9.796582792E0,-5.019852179E0,2.011473058E1,4.557197088E0,2.122661884E1
9.806510792E0,-2.823922447E0,2.161712586E1,6.349000311E0,2.270648527E1
9.816439792E0,-8.848749322E-1,2.250579271E1,7.362411076E0,2.369596603E1
9.826367792E0,-8.999035920E-1,2.245426471E1,7.186275399E0,2.359335466E1
9.836295792E0,-2.362536202E0,2.156847469E1,6.591966739E0,2.267674366E1
9.846223792E0,-3.714196406E0,2.062078838E1,6.257376196E0,2.186702827E1
9.856152792E0,-4.226731463E0,1.922625551E1,6.005072349E0,2.058093909E1
9.866080792E0,-3.983818536E0,1.749600125E1,5.583953539E0,1.879258915E1
9.876008792E0,-3.692995571E0,1.576449803E1,4.798845554E0,1.688746674E1
9.885937791E0,-3.621679129E0,1.430298647E1,3.756641929E0,1.522512202E1
9.895865791E0,-3.900095764E0,1.313110155E1,2.723327242E0,1.396614070E1
9.905793792E0,-3.940301219E0,1.201523294E1,1.518710185E0,1.273570874E1
9.915722792E0,-3.724281099E0,1.064299902E1,2.788724256E-1,1.127924943E1
9.925650791E0,-3.754191653E0,8.678676623E0,-7.496645021E-1,9.485535291E0
9.935578791E0,-3.465474856E0,6.478240734E0,-1.664694110E0,7.533148443E0
9.945506792E0,-2.719778274E0,4.277116628E0,-2.107517785E0,5.489312500E0
9.955435792E0,-1.960775184E0,2.215757348E0,-2.026878834E0,3.586426878E0
9.965363792E0,-1.276488107E0,3.626343745E-1,-1.968880302E0,2.374324161E0
9.975291791E0,-7.979601645E-1,-1.421565714E0,-2.000704358E0,2.580776517E0
9.985220792E0,-4.128369601E-1,-3.224038351E0,-1.997144573E0,3.814897651E0
9.995148792E0,-7.430305436E-2,-4.907811341E0,-1.865052463E0,5.250766972E0
1.000507679E1,3.897746645E-1,-6.519360108E0,-1.520449147E0,6.705650313E0
1.001500479E1,1.104743982E0,-7.919465956E0,-1.262513262E0,8.095204755E0
1.002493379E1,1.926642647E0,-9.117635288E0,-1.261364869E0,9.403949514E0
1.003486179E1,2.666669476E0,-1.011646076E1,-1.118087620E0,1.052159799E1
1.004478979E1,3.198032860E0,-1.068967383E1,-9.916936950E-1,1.120178545E1
1.005471879E1,3.446969880E0,-1.091985649E1,-1.299374694E0,1.152446276E1
1.006464679E1,3.262856262E0,-1.103826027E1,-1.456164858E0,1.160214794E1
1.007457479E1,2.881252058E0,-1.120057664E1,-1.139170926E0,1.162119791E1
1.008450396E1,2.539455113E0,-1.141535774E1,-9.466719617E-1,1.173266433E1
1.009443196E1,2.324326986E0,-1.159611622E1,-8.677560389E-1,1.185855842E1
1.010435996E1,2.259076299E0,-1.164881835E1,-7.721599102E-1,1.189094721E1
1.011428796E1,2.381084885E0,-1.153462222E1,-9.106785487E-1,1.181297636E1
1.012421696E1,2.548430297E0,-1.144039083E1,-1.237642715E0,1.178595770E1
1.013414496E1,2.501647602E0,-1.147696751E1,-1.457291617E0,1.183649960E1
1.014407296E1,2.211818517E0,-1.161449168E1,-1.404935063E0,1.190640167E1
1.015400196E1,1.973084157E0,-1.173312350E1,-1.201322735E0,1.195836212E1
1.016392996E1,1.983084650E0,-1.184023280E1,-1.206693987E0,1.206564743E1
1.017385796E1,2.074572964E0,-1.174216096E1,-1.238564675E0,1.198817081E1
1.018378696E1,2.013974321E0,-1.147656405E1,-8.319835044E-1,1.168160141E1
1.019371496E1,1.790331479E0,-1.133284300E1,-4.724917160E-1,1.148311219E1
1.020364296E1,1.657572786E0,-1.119486391E1,-8.166776866E-1,1.134634249E1
1.021357096E1,1.594015745E0,-1.101816807E1,-1.372781809E0,1.121719411E1
1.022349996E1,1.535764028E0,-1.078396136E1,-1.600426924E0,1.100971208E1
1.023342796E1,1.372575110E0,-1.043292376E1,-1.529430032E0,1.063339160E1
1.024335596E1,1.130972983E0,-1.006075083E1,-1.275023965E0,1.020409198E1
1.025328496E1,8.892373936E-1,-9.715908945E0,-1.100506212E0,9.818388039E0
1.026321296E1,8.077631678E-1,-9.453898720E0,-1.268480346E0,9.572759514E0
1.027314096E1,8.155836725E-1,-9.120847748E0,-1.739005789E0,9.320900252E0
1.028306996E1,7.527512473E-1,-8.609129840E0,-2.062598889E0,8.884709630E0
1.029299796E1,5.771619925E-1,-7.868254872E0,-2.229674891E0,8.198414530E0
1.030292596E1,4.759044434E-1,-6.630949541E0,-2.634082943E0,7.150830009E0
1.031285396E1,5.296732458E-1,-4.497187698E0,-3.379957280E0,5.650607238E0
1.032278296E1,1.402250022E-1,-1.277675677E0,-3.559173270E0,3.784155461E0
1.033271096E1,-3.929270446E-2,3.252333028E0,-2.336827603E0,4.004994043E0
1.034263896E1,-3.947921602E-1,9.481326254E0,-5.769988552E-2,9.489717470E0
1.035256796E1,-1.566885980E0,1.481195853E1,2.034047374E0,1.503285056E1
1.036249596E1,-4.013897491E0,1.773625165E1,2.890773371E0,1.841310855E1
1.037242396E1,-6.310221577E0,1.920240355E1,2.985387753E0,2.043192939E1
1.038235196E1,-6.899703945E0,2.131853662E1,3.778189504E0,2.272357002E1
1.039228096E1,-5.725136315E0,2.390126113E1,5.980641512E0,2.529457536E1
1.040220896E1,-4.450017040E0,2.470406981E1,7.770363711E0,2.627683902E1
1.041213696E1,-3.428853744E0,2.501986156E1,6.677712064E0,2.612168350E1
1.042206596E1,-3.172843055E0,2.552982764E1,4.755464476E0,2.616206174E1
1.043199396E1,-4.246572527E0,2.481750345E1,3.926166744E0,2.548247714E1
1.044192196E1,-5.418344019E0,2.375830607E1,3.409766970E0,2.460573246E1
1.045185096E1,-5.900055771E0,2.186380586E1,3.551472487E0,2.292268792E1
1.046177896E1,-5.463159419E0,1.956790131E1,3.171007614E0,2.056220226E1
1.047170696E1,-4.169382849E0,1.721289310E1,2.402219793E0,1.787283140E1
1.048163496E1,-2.872981756E0,1.444365879E1,1.730816179E0,1.482798125E1
1.049156396E1,-1.992768517E0,1.152317338E1,6.921395946E-1,1.171467918E1
1.050149196E1,-1.537463083E0,8.352185642E0,-3.456657912E-1,8.499546021E0
1.051141996E1,-1.324748102E0,5.317039254E0,-1.441649730E0,5.666058410E0
1.052134896E1,-1.357723475E0,2.512131659E0,-2.152366514E0,3.575877531E0
1.053127696E1,-1.387086145E0,1.500945175E-1,-2.876409101E0,3.196915022E0
1.054120496E1,-1.465346595E0,-1.933031023E0,-3.952166973E0,4.637183775E0
1.055113296E1,-1.747215134E0,-4.156623055E0,-4.284022189E0,6.219575714E0
1.056106196E1,-1.629076527E0,-6.008297673E0,-4.000642145E0,7.399910056E0
1.057098996E1,-1.146949623E0,-7.199016482E0,-3.291967210E0,7.998648627E0
1.058091796E1,-7.080234097E-1,-8.369956500E0,-2.630224366E0,8.802019608E0
1.059084696E1,-1.567007017E-1,-9.626417309E0,-2.157758231E0,9.866528564E0
1.060077496E1,6.439671622E-1,-1.066804147E1,-1.834751022E0,1.084380533E1
1.061070296E1,1.509280234E0,-1.138087086E1,-1.682288382E0,1.160311348E1
1.062063196E1,2.236745636E0,-1.177561756E1,-1.606595006E0,1.209335964E1
1.063055996E1,2.712660751E0,-1.197725762E1,-1.454516528E0,1.236644034E1
1.064048796E1,2.953088026E0,-1.215077023E1,-1.370197340E0,1.257932379E1
1.065041596E1,2.810819129E0,-1.220730696E1,-1.175486813E0,1.258176525E1
1.066034496E1,2.449427581E0,-1.198154363E1,-7.147952163E-1,1.225022511E1
1.067027296E1,2.109001077E0,-1.165478017E1,-2.393194469E-1,1.184647880E1
1.068020096E1,1.837085084E0,-1.122937886E1,1.389819207E-1,1.137950557E1
1.069012996E1,1.537121021E0,-1.078198500E1,4.711908932E-1,1.090119087E1
1.070005796E1,1.179533524E0,-1.060873784E1,5.621595355E-1,1.068890272E1
1.070998596E1,1.068651605E0,-1.067885882E1,4.299141920E-1,1.074080389E1
1.071991496E1,1.502231708E0,-1.072714630E1,2.129702304E-1,1.083391546E1
1.072984296E1,1.922011068E0,-1.052525013E1,4.702687508E-1,1.070962976E1
1.073977096E1,1.975247627E0,-1.030469432E1,1.173296446E0,1.055769638E1
1.074969896E1,1.777421119E0,-1.020556882E1,1.257198143E0,1.043520042E1
1.075962796E1,1.554877845E0,-1.008374325E1,7.271538913E-1,1.022879640E1
1.076955596E1,1.434298611E0,-9.979159949E0,9.347828547E-2,1.008214183E1
1.077948396E1,1.368006680E0,-9.880213366E0,-5.539850914E-1,9.989842737E0
1.078941296E1,1.184491963E0,-9.921578908E0,-1.085968280E0,1.005087441E1
1.079934096E1,8.574033974E-1,-1.011807342E1,-1.026681021E0,1.020610720E1
1.080926896E1,6.521098486E-1,-1.034657325E1,-5.284257424E-1,1.038056160E1
1.081919696E1,6.886701491E-1,-1.030137545E1,-2.530206792E-1,1.032746930E1
1.082912596E1,9.711220939E-1,-9.960331914E0,-3.923750675E-1,1.001525078E1
1.083905396E1,7.992271100E-1,-9.427965733E0,-4.364280267E-1,9.471840965E0
1.084898196E1,2.177953345E-1,-8.665435018E0,-1.140254013E-1,8.668921539E0
1.085891096E1,1.089290960E-1,-6.991470147E0,-9.150366247E-1,7.051936783E0
1.086883896E1,4.171228230E-2,-5.102603729E0,-2.260382713E0,5.581006607E0
1.087876696E1,-4.267891476E-1,-3.342915754E0,-3.205321999E0,4.650948702E0
1.088869596E1,-9.719431892E-1,-1.250847482E0,-3.332252187E0,3.689606703E0
1.089862396E1,-9.579889552E-1,1.945104938E0,-2.903352486E0,3.623621354E0
1.090855196E1,-5.967725305E-1,6.119947332E0,-1.741134760E0,6.390731027E0
1.091848096E1,-5.370312358E-1,1.060033890E1,1.421370417E-1,1.061488532E1
1.092840896E1,-1.489328804E0,1.394400486E1,1.988920464E0,1.416365688E1
1.093833696E1,-3.338572442E0,1.636569471E1,2.778388132E0,1.693226121E1
1.094826496E1,-4.703402038E0,1.882552361E1,3.644704002E0,1.974351025E1
1.095819396E1,-4.575423152E0,2.229615366E1,5.577103525E0,2.343410013E1
1.096812196E1,-4.305398440E0,2.507340334E1,7.504977304E0,2.652426616E1
1.097804996E1,-4.710351161E0,2.616341321E1,7.150630188E0,2.752895042E1
1.098797896E1,-4.660392843E0,2.642428791E1,4.827516207E0,2.726292658E1
1.099790696E1,-3.997787535E0,2.575889816E1,3.136439459E0,2.625529265E1
1.100783496E1,-3.140975145E0,2.488093639E1,2.346326258E0,2.518793297E1
1.101776396E1,-2.142392041E0,2.327365843E1,2.113574331E0,2.346742885E1
1.102769196E1,-1.567631646E0,2.083618343E1,1.583338290E0,2.095497481E1
1.103761996E1,-1.368399759E0,1.811193175E1,7.072990128E-1,1.817731722E1
1.104754896E1,-1.198758439E0,1.506714388E1,2.329004467E-1,1.511655018E1
1.105747696E1,-1.164343335E0,1.172948653E1,-3.441052059E-1,1.179215663E1
1.106740496E1,-1.111722049E0,8.549592320E0,-1.337537717E0,8.724704115E0
1.107733296E1,-1.263811636E0,5.341330342E0,-2.211616935E0,5.917624450E0
1.108726242E1,-1.493782628E0,2.211573665E0,-2.550142654E0,3.691296814E0
1.109719042E1,-1.181705180E0,-3.599896789E-1,-2.889808581E0,3.142771601E0
1.110711842E1,-6.422154826E-1,-2.673054636E0,-2.953854303E0,4.035209667E0
1.111704742E1,-1.434216750E-1,-4.799853029E0,-2.373612875E0,5.356603118E0
1.112697542E1,4.080758648E-1,-6.432423706E0,-2.024840494E0,6.755929224E0
1.113690342E1,9.365966244E-1,-7.817493439E0,-1.930538939E0,8.106626764E0
1.114683242E1,1.529990488E0,-9.328111662E0,-1.754660540E0,9.614227566E0
1.115676042E1,2.285360849E0,-1.055629300E1,-1.382009300E0,1.088890012E1
1.116668842E1,3.028774678E0,-1.131505109E1,-9.757763314E-1,1.175397791E1
1.117661742E1,3.650488360E0,-1.171160575E1,-8.229242671E-1,1.229491679E1
1.118654542E1,4.022597855E0,-1.199093659E1,-9.622879744E-1,1.268423636E1
1.119647342E1,4.070045087E0,-1.209511410E1,-1.026124367E0,1.280273343E1
1.120640242E1,3.885663666E0,-1.198457599E1,-9.022359002E-1,1.263101237E1
1.121633042E1,3.504481046E0,-1.177449138E1,-4.939365256E-1,1.229487731E1
1.122625842E1,3.100849212E0,-1.139364585E1,1.127285437E-1,1.180860446E1
1.123618642E1,2.629480015E0,-1.093269698E1,8.691277957E-1,1.127800565E1
1.124611542E1,2.119198037E0,-1.057051226E1,1.533778460E0,1.088940798E1
1.125604342E1,1.625875030E0,-1.023071067E1,1.622890027E0,1.048545099E1
1.126597142E1,1.242295929E0,-1.004263966E1,1.463912419E0,1.022452689E1
1.127590042E1,1.171459981E0,-9.999010077E0,1.291968026E0,1.014996071E1
1.128582842E1,1.399408421E0,-9.877419566E0,1.124782244E0,1.003926772E1
1.129575642E1,1.504313463E0,-9.627886714E0,1.133901488E0,9.810448214E0
1.130568542E1,1.360169072E0,-9.514323261E0,1.179708648E0,9.683187467E0
1.131561342E1,1.134010173E0,-9.578652574E0,1.033767847E0,9.700785544E0
1.132554142E1,1.010507331E0,-9.793173468E0,9.314078052E-1,9.889129999E0
1.133547042E1,1.075339650E0,-1.007711718E1,8.362211278E-1,1.016877140E1
1.134539842E1,1.237326819E0,-1.021901273E1,7.742391801E-1,1.032272470E1
1.135532642E1,1.322438744E0,-1.023109308E1,1.180479311E0,1.038352740E1
1.136525542E1,1.211351441E0,-1.019496431E1,1.486164583E0,1.037368568E1
1.137518342E1,1.126215396E0,-1.014602428E1,1.378801664E0,1.030103217E1
1.138511142E1,1.270069326E0,-1.002760296E1,1.030064367E0,1.016006544E1
1.139504042E1,1.648617045E0,-9.723613236E0,4.355978318E-1,9.871997670E0
1.140496842E1,1.656664567E0,-9.339458769E0,-1.803602904E-2,9.485270312E0
1.141489642E1,1.175121362E0,-9.066367486E0,-2.396050103E-1,9.145345273E0
1.142482542E1,7.298643681E-1,-8.472892054E0,-7.935864472E-1,8.541216611E0
1.143475342E1,3.826735134E-1,-7.307610387E0,-1.040793715E0,7.391269183E0
1.144468142E1,2.246957798E-1,-5.319128464E0,-7.798631783E-1,5.380687910E0
1.145460942E1,5.378970623E-2,-1.653236491E0,-3.066126399E-1,1.682288780E0
1.146453842E1,-1.162354843E-1,4.263563367E0,2.086285083E-1,4.270246963E0
1.147446642E1,-8.247352959E-1,1.093538085E1,8.661423536E-1,1.100058841E1
1.148439442E1,-2.830828301E0,1.529769141E1,5.621994062E-1,1.556756306E1
1.149432342E1,-6.479294402E0,1.800976101E1,-2.047714510E0,1.924904887E1
1.150425142E1,-8.984300060E0,2.020045544E1,-3.630048541E0,2.240431431E1
1.151417942E1,-9.111362395E0,2.268800599E1,-3.166118464E0,2.465333337E1
1.152410842E1,-8.184689226E0,2.361865351E1,-1.430297946E0,2.503748557E1
1.153403642E1,-6.547411541E0,2.307417482E1,-1.846629640E-1,2.398583419E1
1.154396442E1,-4.391614173E0,2.317795354E1,-2.231563541E-1,2.359138835E1
1.155389342E1,-3.705153395E0,2.225546406E1,-4.223116422E-1,2.256573041E1
1.156382142E1,-4.348992649E0,2.096697161E1,-5.309890155E-1,2.141984092E1
1.157374942E1,-4.649265884E0,2.019276752E1,-5.593025494E-1,2.072863605E1
1.158367842E1,-4.552186901E0,1.941520946E1,-1.015244891E0,1.996756084E1
1.159360642E1,-3.994133902E0,1.839458264E1,-1.606419590E0,1.889164789E1
1.160353442E1,-3.243052912E0,1.705287118E1,-2.214326388E0,1.749917281E1
1.161346342E1,-2.365673233E0,1.539417515E1,-3.018448202E0,1.586467989E1
1.162339142E1,-1.665226207E0,1.262240314E1,-3.126191629E0,1.310996237E1
1.163331942E1,-1.247370728E0,9.488089144E0,-3.341132938E0,1.013621915E1
1.164324842E1,-8.708468771E-1,6.392253335E0,-3.366232696E0,7.276730003E0
1.165317642E1,-5.029406530E-1,3.528705769E0,-3.210571629E0,4.797132882E0
1.166310442E1,-1.825205442E-1,1.068071122E0,-2.955016730E0,3.147413787E0
1.167303342E1,-3.795720041E-2,-1.153546890E0,-2.276056759E0,2.551968955E0
1.168296142E1,1.237419936E-1,-2.960135382E0,-1.567513386E0,3.351837075E0
1.169288942E1,4.128909007E-1,-4.451332664E0,-1.237856577E0,4.638656086E0
1.170281842E1,9.562893158E-1,-5.677659847E0,-1.318706028E0,5.906716193E0
1.171274642E1,1.541032808E0,-6.663278212E0,-1.783472256E0,7.067873226E0
1.172267442E1,2.037999068E0,-7.609772272E0,-2.170393041E0,8.171455206E0
1.173260342E1,2.451580233E0,-8.594421753E0,-2.063812187E0,9.172439787E0
1.174253142E1,2.878608239E0,-9.391387306E0,-1.652989154E0,9.960768749E0
1.175245942E1,3.348583752E0,-9.981007669E0,-1.253170581E0,1.060207356E1
1.176238842E1,3.655124325E0,-1.037557661E1,-9.058646822E-1,1.103780389E1
1.177231642E1,3.729623700E0,-1.067520782E1,-7.106412812E-1,1.133027652E1
1.178224442E1,3.568981975E0,-1.083436669E1,-8.183107408E-1,1.143637908E1
1.179217342E1,3.199020454E0,-1.095637002E1,-1.003650008E0,1.145788328E1
1.180210142E1,2.774700878E0,-1.097108746E1,-1.103604506E0,1.137020967E1
1.181202942E1,2.437786067E0,-1.098757778E1,-1.070418268E0,1.130555003E1
1.182195742E1,2.237263846E0,-1.094907503E1,-1.075679592E0,1.122696220E1
1.183188642E1,2.017980833E0,-1.096106299E1,-1.266802779E0,1.121703784E1
1.184181442E1,1.686033816E0,-1.100530653E1,-1.345432627E0,1.121470779E1
1.185174242E1,1.380527616E0,-1.109953442E1,-1.427499468E0,1.127578270E1
1.186167142E1,9.844166158E-1,-1.114770261E1,-1.075771905E0,1.124267027E1
1.187159942E1,7.744920722E-1,-1.120484745E1,-3.545283794E-1,1.123717645E1
1.188152742E1,7.715322116E-1,-1.113757055E1,8.035945415E-2,1.116455093E1
1.189145642E1,9.299030243E-1,-1.107720390E1,1.700826395E-1,1.111746796E1
1.190138442E1,1.181258161E0,-1.109096824E1,3.911787271E-3,1.115369727E1
1.191131242E1,1.436505350E0,-1.107948431E1,-1.751866740E-1,1.117359435E1
1.192124142E1,1.591810467E0,-1.090752706E1,-2.282384616E-1,1.102542969E1
1.193116942E1,1.609103754E0,-1.062751091E1,-1.839118892E-1,1.075021054E1
1.194109742E1,1.582444836E0,-1.026890352E1,-2.933758593E-1,1.039425709E1
1.195102642E1,1.348796823E0,-9.845038855E0,-8.688962460E-2,9.937383596E0
1.196095442E1,1.122035806E0,-9.454531973E0,3.582004309E-1,9.527614955E0
1.197088242E1,8.455009514E-1,-8.952033954E0,3.356430423E-1,8.998135364E0
1.198081142E1,6.431137611E-1,-8.287991400E0,1.654411197E-1,8.314551553E0
1.199073942E1,7.149022204E-1,-7.266129654E0,3.375049420E-3,7.301214743E0
1.200066742E1,9.753331125E-1,-5.832094753E0,-3.376650095E-1,5.922720789E0
1.201059642E1,1.046680838E0,-3.948270389E0,-5.824270813E-1,4.125966692E0
1.202052442E1,9.417136690E-1,-1.194128906E0,-4.059031125E-1,1.574015824E0
1.203045242E1,6.280631742E-1,3.020974492E0,-6.587400064E-3,3.085578329E0
1.204038142E1,-4.911514968E-2,8.497442758E0,6.688127855E-1,8.523863928E0
1.205030942E1,-1.762952184E0,1.356236878E1,1.169544872E0,1.372638637E1
1.206023742E1,-4.470906218E0,1.695363458E1,9.350365142E-1,1.755816110E1
1.207016642E1,-6.152836751E0,1.874897069E1,-5.014097057E-2,1.973281065E1
1.208009442E1,-6.073405834E0,2.077423569E1,-1.232467929E0,2.167888614E1
1.209002233E1,-5.402151325E0,2.226220940E1,-1.851915523E-2,2.290828561E1
1.209995133E1,-4.268438775E0,2.276436594E1,2.296779292E0,2.327468843E1
1.210987933E1,-3.145340676E0,2.284190938E1,3.059548573E0,2.325955351E1
1.211980733E1,-2.991485521E0,2.199728610E1,2.940946282E0,2.239372113E1
1.212973633E1,-3.782460310E0,2.119681865E1,2.202777260E0,2.164403738E1
1.213966433E1,-4.544913842E0,2.041398874E1,1.694562857E0,2.098234308E1
1.214959233E1,-4.990971612E0,1.932526525E1,1.449401969E0,2.001190747E1
1.215952133E1,-5.321341635E0,1.800345186E1,1.313239027E0,1.881928672E1
1.216944933E1,-5.246901902E0,1.642959308E1,1.172914038E0,1.728690937E1
1.217937733E1,-4.594507879E0,1.459522680E1,7.618009099E-1,1.532026399E1
1.218930633E1,-3.666092825E0,1.267291139E1,2.861310860E-1,1.319563529E1
1.219923433E1,-2.768930846E0,1.055461602E1,-4.795851926E-1,1.092231199E1
1.220916233E1,-1.892591971E0,8.513503305E0,-1.878436739E0,8.921332159E0
1.221909133E1,-1.718396108E0,6.144603286E0,-3.067834078E0,7.079593255E0
1.222901933E1,-2.060924832E0,3.285401371E0,-3.438247004E0,5.182935055E0
1.223894733E1,-2.241215394E0,8.063766468E-1,-4.220486929E0,4.846214982E0
1.224887633E1,-2.119729549E0,-1.307497061E0,-5.015597745E0,5.599912737E0
1.225880433E1,-1.989038578E0,-3.137428223E0,-5.090637403E0,6.301929822E0
1.226873233E1,-1.894858645E0,-4.633941793E0,-4.607313573E0,6.803766912E0
1.227866133E1,-1.779480801E0,-5.852912010E0,-4.175981432E0,7.406885434E0
1.228858933E1,-1.624897960E0,-6.861671315E0,-3.908104695E0,8.062016431E0
1.229851733E1,-1.418445055E0,-7.734554193E0,-3.773697672E0,8.722161949E0
1.230844533E1,-1.158687031E0,-8.489239699E0,-3.822948478E0,9.382146949E0
1.231837433E1,-6.852267238E-1,-9.137997047E0,-3.962016023E0,9.983491206E0
1.232830233E1,-1.416040680E-1,-9.602397532E0,-3.990415950E0,1.039949564E1
1.233823033E1,4.093666376E-1,-9.947608373E0,-3.689141087E0,1.061754469E1
1.234815933E1,8.584851323E-1,-1.018462526E1,-3.411978387E0,1.077521159E1
1.235808733E1,1.217934382E0,-1.041945997E1,-3.350075669E0,1.101233477E1
1.236801533E1,1.512346953E0,-1.062388798E1,-3.653668953E0,1.133593781E1
1.237794433E1,1.603351117E0,-1.071539223E1,-4.229897730E0,1.163109626E1
1.238787233E1,1.437769664E0,-1.085768305E1,-4.805848764E0,1.196046175E1
1.239780033E1,1.228727173E0,-1.119551880E1,-4.997697079E0,1.232178509E1
1.240772933E1,1.186958904E0,-1.162685620E1,-4.735441856E0,1.261019691E1
1.241765733E1,1.318979531E0,-1.218758781E1,-4.236591915E0,1.297018561E1
1.242758533E1,1.539330830E0,-1.271308176E1,-3.544080437E0,1.328730572E1
1.243751433E1,1.967615549E0,-1.291941948E1,-2.746266453E0,1.335383428E1
1.244744233E1,2.439674279E0,-1.302516169E1,-2.042914823E0,1.340821945E1
1.245737033E1,2.640406122E0,-1.330209752E1,-1.267378145E0,1.362071181E1
1.246729933E1,2.699653620E0,-1.351424503E1,-8.198423459E-1,1.380561805E1
1.247722733E1,2.625089926E0,-1.361751738E1,-7.463441607E-1,1.388830106E1
1.248715533E1,2.511396372E0,-1.366225560E1,-6.873536485E-1,1.390815570E1
1.249708433E1,2.191821332E0,-1.357170328E1,-4.709645694E-1,1.375561770E1
1.250701233E1,1.764452725E0,-1.317965449E1,-1.109117407E-1,1.329770233E1
1.251694033E1,1.335833399E0,-1.241144028E1,7.133369207E-2,1.248332444E1
1.252686933E1,8.228918150E-1,-1.140038185E1,-1.505560090E-1,1.143103339E1
1.253679733E1,2.901272924E-1,-1.031321606E1,-8.949492462E-1,1.035603850E1
1.254672533E1,-1.956628923E-1,-9.275503094E0,-1.638381201E0,9.421121726E0
1.255665433E1,-6.654511482E-1,-8.254864585E0,-1.880575651E0,8.492477808E0
1.256658233E1,-1.078445252E0,-6.664349422E0,-1.908827643E0,7.015712391E0
1.257651033E1,-1.417308064E0,-4.336959956E0,-1.851603282E0,4.924065244E0
1.258643933E1,-1.405319079E0,-1.245488509E0,-1.229851885E0,2.244704657E0
1.259636733E1,-1.313186695E0,2.966530482E0,2.225649083E-1,3.251814499E0
1.260629533E1,-1.671063775E0,8.029642117E0,2.278416696E0,8.512272864E0
1.261622433E1,-3.379839751E0,1.261668222E1,3.539397987E0,1.353260231E1
1.262615233E1,-6.817099160E0,1.580515839E1,3.705426752E0,1.760698896E1
1.263608033E1,-9.367837061E0,1.767175686E1,3.763622920E0,2.035220428E1
1.264600933E1,-8.810399773E0,2.027706566E1,4.008240602E0,2.246883461E1
1.265593733E1,-5.989722823E0,2.212066702E1,6.082000072E0,2.371057599E1
1.266586533E1,-3.275114657E0,2.264265966E1,7.378721884E0,2.403875931E1
1.267579433E1,-1.247373213E0,2.277763211E1,5.969491457E0,2.357989170E1
1.268572233E1,-1.237330327E0,2.212011739E1,3.773935654E0,2.247383300E1
1.269565033E1,-3.022624576E0,2.109451810E1,2.058112321E0,2.140912841E1
1.270557833E1,-4.857999496E0,2.011599591E1,9.682930648E-1,2.071692647E1
1.271550733E1,-6.082966032E0,1.923152269E1,6.642074454E-1,2.018155376E1
1.272543533E1,-6.476476629E0,1.846495271E1,6.368857455E-1,1.957817284E1
1.273536333E1,-6.351273708E0,1.736544930E1,2.570623112E-1,1.849225752E1
1.274529233E1,-5.802882648E0,1.575470511E1,-3.272043042E-1,1.679259488E1
1.275522033E1,-5.196806467E0,1.373610359E1,-9.291623282E-1,1.471566111E1
1.276514833E1,-4.301399530E0,1.154095593E1,-1.547756814E0,1.241334978E1
1.277507733E1,-2.967385930E0,9.250147812E0,-2.090061507E0,9.936748508E0
1.278500533E1,-1.533995976E0,6.949622210E0,-2.764845396E0,7.635100692E0
1.279493333E1,-2.786262578E-1,4.322347764E0,-3.190323890E0,5.379450652E0
1.280486233E1,1.062257528E0,1.708496772E0,-3.196484517E0,3.776885694E0
1.281479033E1,2.544154228E0,-5.459194422E-1,-3.246755369E0,4.160789492E0
1.282471833E1,3.859090995E0,-2.549919291E0,-3.415893098E0,5.750043248E0
1.283464733E1,4.735954949E0,-4.349573570E0,-3.416889464E0,7.281702625E0
1.284457533E1,4.915841323E0,-5.814659525E0,-2.929322895E0,8.158228602E0
1.285450333E1,4.734366260E0,-6.657505841E0,-2.424270228E0,8.521366912E0
1.286443233E1,4.355788283E0,-7.186370124E0,-2.464389144E0,8.757283881E0
1.287436033E1,4.080456639E0,-7.741310651E0,-2.946176909E0,9.233524536E0
1.288428833E1,3.880020811E0,-8.284802329E0,-3.417689947E0,9.765916019E0
1.289421733E1,3.694865511E0,-8.593448777E0,-3.607881162E0,1.002577675E1
1.290414533E1,3.464579939E0,-8.720705824E0,-3.649412180E0,1.006837790E1
1.291407333E1,3.239429977E0,-8.784449830E0,-3.458134553E0,9.980939835E0
1.292400233E1,3.172204539E0,-8.673988325E0,-3.301656046E0,9.808256101E0
1.293393033E1,3.317468671E0,-8.582142016E0,-3.653557856E0,9.899860856E0
1.294385833E1,3.370823052E0,-8.756759756E0,-4.001692305E0,1.020082500E1
1.295378733E1,3.357842526E0,-9.011597201E0,-4.369181038E0,1.056284685E1
1.296371533E1,3.189403539E0,-9.076248111E0,-4.930044794E0,1.080999151E1
1.297364333E1,3.108734474E0,-9.030680174E0,-5.413603681E0,1.097836596E1
1.298357233E1,2.845361263E0,-9.140542924E0,-5.520431727E0,1.105082676E1
1.299350033E1,2.347618347E0,-9.237949351E0,-5.341605746E0,1.092628812E1
1.300342833E1,1.902219558E0,-9.261116604E0,-5.151126848E0,1.076665351E1
1.301335633E1,1.503118439E0,-9.251789126E0,-5.040584652E0,1.064248377E1
1.302328533E1,1.217701809E0,-9.229729335E0,-5.033842812E0,1.058349067E1
1.303321333E1,1.131591619E0,-9.100462600E0,-4.913200135E0,1.040377118E1
1.304314133E1,1.161404525E0,-8.804362523E0,-4.824303746E0,1.010641215E1
1.305307033E1,1.302547978E0,-8.534315300E0,-4.709101903E0,9.833962051E0
1.306299833E1,1.521244953E0,-8.276504545E0,-4.391481734E0,9.492092789E0
1.307292633E1,1.680503227E0,-7.707427790E0,-4.383108229E0,9.024420867E0
1.308285504E1,1.990208313E0,-7.136530212E0,-4.687199403E0,8.767030902E0
1.309278304E1,2.076646387E0,-6.718388804E0,-4.915358927E0,8.579624801E0
1.310271104E1,1.830952817E0,-6.264601600E0,-4.589492722E0,7.978788434E0
1.311264004E1,1.631868280E0,-5.491228977E0,-3.955685243E0,6.961611560E0
1.312256804E1,1.704466286E0,-4.386236197E0,-2.798210778E0,5.474875054E0
1.313249604E1,1.903149704E0,-2.821442351E0,-1.073890564E0,3.568719193E0
1.314242504E1,2.185143958E0,-7.527126557E-1,7.064307743E-1,2.416707450E0
1.315235304E1,2.437602756E0,1.903171046E0,2.701068353E0,4.106061066E0
1.316228104E1,2.533621054E0,4.367513412E0,4.415854683E0,6.707770243E0
1.317221004E1,1.578168182E0,6.003467288E0,5.224339251E0,8.113319598E0
1.318213804E1,4.153674889E-1,7.267807805E0,5.767264919E0,9.287351888E0
1.319206604E1,-1.125366819E-1,8.451632162E0,6.163414949E0,1.046090027E1
1.320199504E1,-3.717864364E-2,9.997840633E0,7.047839645E0,1.223234414E1
1.321192304E1,1.686190814E-1,1.132926333E1,8.850149145E0,1.437726608E1
1.322185104E1,-7.488762975E-2,1.174335145E1,1.041091251E1,1.569391636E1
1.323178004E1,-7.681662619E-1,1.155350873E1,1.130314265E1,1.618130641E1
1.324170804E1,-1.455195975E0,1.154509576E1,1.229241085E1,1.692661206E1
1.325163604E1,-1.822541158E0,1.129515652E1,1.253303780E1,1.696995150E1
1.326156504E1,-2.417232811E0,1.068574217E1,1.191198983E1,1.618405393E1
1.327149304E1,-2.839540653E0,1.078703348E1,1.145154498E1,1.598627427E1
1.328142104E1,-3.200356835E0,1.144497505E1,1.093593634E1,1.615006010E1
1.329135004E1,-3.594041679E0,1.239248360E1,9.405958568E0,1.596755592E1
1.330127804E1,-3.899439121E0,1.291604329E1,7.328536987E0,1.535373747E1
1.331120604E1,-3.937329664E0,1.247444870E1,5.386763207E0,1.414678950E1
1.332113504E1,-3.591831139E0,1.117128092E1,3.775736012E0,1.232700088E1
1.333106304E1,-2.894798010E0,9.445067085E0,2.387639468E0,1.016316732E1
1.334099104E1,-2.395916202E0,7.427640860E0,1.298040652E0,7.911711112E0
1.335092004E1,-2.154208971E0,5.275300659E0,5.459042394E-1,5.724283778E0
1.336084804E1,-2.089756575E0,3.046750773E0,-3.210735351E-2,3.694699405E0
1.337077604E1,-2.080724381E0,9.575336033E-1,-4.870142993E-1,2.341680482E0
1.338070504E1,-1.925848010E0,-8.066380173E-1,-1.142395957E0,2.380047053E0
1.339063304E1,-1.691033478E0,-2.496839436E0,-1.760748661E0,3.491996168E0
1.340056104E1,-1.426448431E0,-4.068613104E0,-2.308458228E0,4.890536484E0
1.341049004E1,-1.202058607E0,-5.340411744E0,-2.773380285E0,6.136495799E0
1.342041804E1,-9.073282403E-1,-6.305457265E0,-3.281372055E0,7.165852247E0
1.343034604E1,-4.617601749E-1,-6.934675557E0,-3.966612227E0,8.002309673E0
1.344027404E1,1.141639620E-2,-7.293046727E0,-4.713082980E0,8.683421680E0
1.345020304E1,3.397675221E-1,-7.628574579E0,-5.127336282E0,9.197835040E0
1.346013104E1,5.041649137E-1,-7.898046436E0,-5.122277271E0,9.427144011E0
1.347005904E1,6.485757914E-1,-8.134348208E0,-5.157979200E0,9.653653234E0
1.347998804E1,8.980048549E-1,-8.325699509E0,-5.339572084E0,9.931501149E0
1.348991604E1,1.133381744E0,-8.370893224E0,-5.511772000E0,1.008642841E1
1.349984404E1,1.305396157E0,-8.442385375E0,-5.433678342E0,1.012436617E1
1.350977304E1,1.374806554E0,-8.583657614E0,-5.163186146E0,1.011077456E1
1.351970104E1,1.378293248E0,-8.691030035E0,-5.053309947E0,1.014739557E1
1.352962904E1,1.334896529E0,-8.695168694E0,-5.098662121E0,1.016780521E1
1.353955804E1,1.128316593E0,-8.726561810E0,-5.182715846E0,1.021207731E1
1.354948604E1,7.465303946E-1,-8.762996396E0,-5.365937179E0,1.030246064E1
1.355941404E1,3.061337529E-1,-8.760114303E0,-5.488912311E0,1.034221827E1
1.356934304E1,-5.820011482E-2,-8.640497813E0,-5.469134688E0,1.022609524E1
1.357927104E1,-2.514618480E-1,-8.446684248E0,-5.389748211E0,1.002292840E1
1.358919904E1,-2.346851631E-1,-8.147200972E0,-5.297785542E0,9.721033508E0
1.359912804E1,-7.629183859E-2,-7.795615497E0,-5.119452481E0,9.326641149E0
1.360905604E1,1.248273830E-1,-7.508811323E0,-5.069234254E0,9.060627202E0
1.361898404E1,3.582428232E-1,-7.237507533E0,-5.064337796E0,8.840665729E0
1.362891304E1,6.120627071E-1,-6.867711489E0,-5.110992730E0,8.582676071E0
1.363884104E1,7.682836448E-1,-6.554009539E0,-5.487511902E0,8.582429008E0
1.364876904E1,6.138870384E-1,-6.482121531E0,-5.644472805E0,8.617124235E0
1.365869804E1,3.602510494E-1,-6.397395376E0,-5.466260782E0,8.422378248E0
1.366862604E1,3.532994409E-1,-5.991647142E0,-5.468513129E0,8.119685450E0
1.367855404E1,3.957997817E-1,-5.454896134E0,-5.455870864E0,7.725223374E0
1.368848304E1,3.563978805E-1,-4.928534458E0,-5.044860136E0,7.061733863E0
1.369841104E1,5.321675219E-1,-4.135396492E0,-4.258204393E0,5.959615011E0
1.370833904E1,1.149252841E0,-2.947646315E0,-3.049588426E0,4.394245152E0
1.371826804E1,2.170751037E0,-1.163086038E0,-1.423738539E0,2.844637169E0
1.372819604E1,3.142032906E0,1.167664992E0,1.032539932E0,3.507413723E0
1.373812404E1,3.262401641E0,3.617835461E0,3.322596679E0,5.896748815E0
1.374805304E1,1.770905567E0,6.035298361E0,4.266271212E0,7.600131767E0
1.375798104E1,-8.159570172E-1,7.943973976E0,4.524288958E0,9.178327678E0
1.376790904E1,-2.633340639E0,9.834961764E0,4.944174006E0,1.131838383E1
1.377783804E1,-1.948040240E0,1.250599092E1,6.387956216E0,1.417746996E1
1.378776604E1,2.960150000E-1,1.502704719E1,9.129986361E0,1.758568802E1
1.379769404E1,1.452683134E0,1.625574132E1,1.079751520E1,1.956899969E1
1.380762304E1,4.356663904E-1,1.650620798E1,1.097274924E1,1.982538607E1
1.381755104E1,-2.715797782E0,1.660200408E1,1.060793210E1,1.988794410E1
1.382747904E1,-5.647153169E0,1.708607167E1,9.637362712E0,2.041330312E1
1.383740804E1,-7.257861106E0,1.801394762E1,8.370741781E0,2.114824282E1
1.384733604E1,-7.553634909E0,1.843654226E1,6.818109559E0,2.105825512E1
1.385726404E1,-6.535610690E0,1.835297386E1,4.503519064E0,1.999568805E1
1.386719304E1,-5.236479825E0,1.729594929E1,2.116424264E0,1.819477493E1
1.387712104E1,-4.179679503E0,1.539779457E1,-6.216408849E-2,1.595511400E1
1.388704904E1,-3.150600539E0,1.340432205E1,-1.745701582E0,1.387982736E1
1.389697804E1,-2.489802897E0,1.123795204E1,-2.628883599E0,1.180685028E1
1.390690604E1,-2.333840991E0,8.745086374E0,-3.101130755E0,9.567672728E0
1.391683404E1,-2.608691409E0,6.463059608E0,-3.797183014E0,7.936939536E0
1.392676304E1,-2.976786791E0,4.277292044E0,-4.128658161E0,6.648481409E0
1.393669104E1,-3.093586678E0,2.105091775E0,-3.717784842E0,5.274809385E0
1.394661904E1,-2.602755901E0,2.842319834E-1,-3.007016019E0,3.987138251E0
1.395654804E1,-1.798169087E0,-1.164751909E0,-1.959134455E0,2.903147755E0
1.396647604E1,-1.060094935E0,-2.512610546E0,-8.598130350E-1,2.859421530E0
1.397640404E1,-5.251501322E-1,-3.749661523E0,-4.554429893E-1,3.813551169E0
1.398633304E1,-2.033407250E-1,-4.831190597E0,-6.773204112E-1,4.882674776E0
1.399626104E1,-5.209459841E-2,-5.875119150E0,-9.993662652E-1,5.959737562E0
1.400618904E1,8.319301486E-2,-6.790505438E0,-1.431463881E0,6.940243081E0
1.401611804E1,2.770782074E-1,-7.637915506E0,-2.061863894E0,7.916173844E0
1.402604604E1,4.509109586E-1,-8.403694934E0,-2.669346331E0,8.828976106E0
1.403597404E1,5.176370448E-1,-9.107424880E0,-3.022402967E0,9.609789578E0
1.404590304E1,5.991492775E-1,-9.734100802E0,-3.326030164E0,1.030408535E1
1.405583104E1,6.816999757E-1,-1.022590075E1,-3.709114591E0,1.089914181E1
1.406576004E1,6.594668153E-1,-1.053040504E1,-4.006028600E0,1.128594665E1
1.407568804E1,4.282465661E-1,-1.080016516E1,-4.025512108E0,1.153393733E1
1.408561646E1,1.700259215E-1,-1.104363386E1,-4.055667661E0,1.176601878E1
1.409554546E1,-1.554096365E-1,-1.122791705E1,-4.346396778E0,1.204082383E1
1.410547346E1,-5.019472110E-1,-1.142282112E1,-4.679840975E0,1.235450140E1
1.411540146E1,-7.574385215E-1,-1.155281057E1,-5.072182420E0,1.263994382E1
1.412533046E1,-6.935642686E-1,-1.156079436E1,-5.564819695E0,1.284913288E1
1.413525846E1,-6.112704094E-1,-1.150330220E1,-5.807723558E0,1.290074672E1
1.414518646E1,-6.473569393E-1,-1.145760153E1,-5.722991556E0,1.282374111E1
1.415511546E1,-5.140006614E-1,-1.128369481E1,-5.468617795E0,1.254957154E1
1.416504346E1,-1.484002867E-1,-1.107424287E1,-5.190712498E0,1.223128669E1
1.417497146E1,2.864347757E-1,-1.087655786E1,-4.848987767E0,1.191193679E1
1.418490046E1,6.215789044E-1,-1.081123394E1,-4.590433831E0,1.176185455E1
1.419482846E1,8.268256755E-1,-1.075921828E1,-4.674768807E0,1.176001199E1
1.420475646E1,9.284112534E-1,-1.081344302E1,-4.676787851E0,1.181798807E1
1.421468546E1,1.010114982E0,-1.078786379E1,-4.561505609E0,1.175609080E1
1.422461346E1,1.158869172E0,-1.061176319E1,-4.505600088E0,1.158675658E1
1.423454146E1,1.139474688E0,-1.022008394E1,-4.183889791E0,1.110195713E1
1.424447046E1,1.176838835E0,-9.565284085E0,-3.485122962E0,1.024820430E1
1.425439846E1,1.208269081E0,-8.545043187E0,-2.822606531E0,9.079911060E0
1.426432646E1,1.220866322E0,-7.402553966E0,-2.098659838E0,7.790551515E0
1.427425546E1,1.473852978E0,-5.775696019E0,-9.176316190E-1,6.030999494E0
1.428418346E1,1.922953054E0,-3.207460910E0,6.073590606E-1,3.788725243E0
1.429411146E1,2.299464041E0,6.797037363E-2,2.227140415E0,3.201922746E0
1.430404046E1,2.551841563E0,4.270966526E0,3.772885787E0,6.244014541E0
1.431396846E1,1.676259903E0,1.094793599E1,5.253243792E0,1.225821031E1
1.432389646E1,-2.842760422E0,1.811118213E1,6.245171887E0,1.936745665E1
1.433382546E1,-9.739801837E0,2.420286520E1,5.078654119E0,2.657884781E1
1.434375346E1,-1.421991391E1,2.844344374E1,1.016074757E0,3.181615708E1
1.435368146E1,-1.349760619E1,3.062421661E1,-8.492858541E-1,3.347759404E1
1.436361046E1,-7.874979755E0,3.206624758E1,4.360847586E0,3.330580328E1
1.437353846E1,-2.957072611E0,3.120472584E1,8.940160013E0,3.259456480E1
1.438346646E1,-2.694610981E0,2.822386910E1,7.315885366E0,2.928087932E1
1.439339546E1,-4.453498473E0,2.492847659E1,5.148531854E0,2.584124560E1
1.440332346E1,-5.441226513E0,2.196904171E1,4.368420900E0,2.305057137E1
1.441325246E1,-5.515769742E0,1.936593848E1,3.467688319E0,2.043252680E1
1.442318046E1,-5.028017231E0,1.664699490E1,2.174823915E0,1.752521770E1
1.443310846E1,-4.333574418E0,1.357971630E1,5.958124908E-1,1.426686913E1
1.444303746E1,-3.651895785E0,1.069132509E1,-8.757199466E-1,1.133171039E1
1.445296546E1,-3.158195779E0,8.034493552E0,-1.987177409E0,8.858677174E0
1.446289346E1,-2.743359218E0,5.271339755E0,-2.712850785E0,6.532426960E0
1.447282246E1,-2.329112055E0,2.728765737E0,-3.315888754E0,4.885288491E0
1.448275046E1,-1.843102308E0,5.946910679E-1,-3.908036867E0,4.361586379E0
1.449267846E1,-1.551669770E0,-1.242196527E0,-4.558185560E0,4.972704182E0
1.450260746E1,-1.829151436E0,-3.206377421E0,-6.062472126E0,7.097902466E0
1.451253546E1,-2.138802727E0,-5.268545371E0,-7.110039986E0,9.104104351E0
1.452246346E1,-2.687831427E0,-7.239364609E0,-6.160081451E0,9.878230672E0
1.453239246E1,-2.918223125E0,-9.377245815E0,-4.311922179E0,1.072573719E1
1.454232046E1,-2.248297395E0,-1.014377895E1,-2.814190926E0,1.076432827E1
1.455224846E1,-9.461824036E-1,-9.607483440E0,-3.447458415E0,1.025104720E1
1.456217746E1,1.670900345E-1,-9.410151021E0,-4.515824237E0,1.043894295E1
1.457210546E1,1.328723916E0,-9.454284636E0,-5.253349042E0,1.089709509E1
1.458203346E1,2.583099316E0,-9.228824771E0,-6.068378398E0,1.134322816E1
1.459196246E1,3.252240057E0,-9.303087333E0,-6.378345732E0,1.173915643E1
1.460189046E1,3.248941058E0,-9.952852156E0,-5.723696145E0,1.193212394E1
1.461181846E1,3.176811267E0,-1.052495075E1,-4.859490536E0,1.202004020E1
1.462174746E1,3.044098476E0,-1.108087361E1,-3.942316754E0,1.214883356E1
1.463167546E1,2.726729152E0,-1.184391186E1,-3.151726420E0,1.255574289E1
1.464160346E1,2.429206886E0,-1.262036597E1,-2.667941830E0,1.312602746E1
1.465153246E1,2.419756616E0,-1.300454909E1,-2.049075157E0,1.338552308E1
1.466146046E1,2.459812528E0,-1.301446597E1,-1.270875073E0,1.330571778E1
1.467138946E1,2.719010827E0,-1.298233669E1,-5.264066988E-1,1.327445629E1
1.468131746E1,3.093069491E0,-1.300439355E1,-5.736995637E-2,1.336729673E1
1.469124546E1,3.290717075E0,-1.296480907E1,9.733158231E-2,1.337626878E1
1.470117446E1,3.353455360E0,-1.283690123E1,1.698119134E-1,1.326878036E1
1.471110246E1,3.297088786E0,-1.268524668E1,1.958899105E-1,1.310819021E1
1.472103046E1,3.017664383E0,-1.227870263E1,4.839316472E-2,1.264417568E1
1.473095946E1,2.750165669E0,-1.166271484E1,-3.297262448E-1,1.198712009E1
1.474088746E1,2.454005950E0,-1.102926842E1,-7.378409936E-1,1.132304361E1
1.475081546E1,2.063540291E0,-1.045847376E1,-9.172812246E-1,1.069949890E1
1.476074446E1,1.485176111E0,-1.003473890E1,-1.112715198E0,1.020489432E1
1.477067246E1,9.614949457E-1,-9.501465234E0,-1.676617168E0,9.696048641E0
1.478060046E1,6.556769425E-1,-8.833809686E0,-2.179722858E0,9.122351536E0
1.479052946E1,3.716653991E-1,-7.999922474E0,-2.431149331E0,8.369431392E0
1.480045746E1,7.134918720E-2,-6.784666409E0,-2.775627077E0,7.330818144E0
1.481038546E1,-1.126574269E-1,-5.134620743E0,-3.148078927E0,6.023904282E0
1.482031446E1,-2.252661757E-1,-3.346919342E0,-3.021720012E0,4.514798530E0
1.483024246E1,-1.910636187E-1,-1.316619303E0,-2.494040374E0,2.826699326E0
1.484017046E1,-3.457992174E-1,1.324690799E0,-2.138571470E0,2.539265789E0
1.485009946E1,-1.193720478E0,4.166794286E0,-1.079410043E0,4.466796307E0
1.486002746E1,-2.594635288E0,7.569362749E0,9.305071878E-1,8.055633329E0
1.486995546E1,-4.135375443E0,1.207107853E1,2.215051589E0,1.295062626E1
1.487988446E1,-5.926607977E0,1.721213998E1,3.044289095E0,1.845670992E1
1.488981246E1,-7.658283697E0,2.094280390E1,4.286405514E0,2.270734720E1
1.489974146E1,-8.559373543E0,2.343077311E1,4.383023736E0,2.532735480E1
1.490966946E1,-7.688055380E0,2.533944697E1,2.606252536E0,2.660801234E1
1.491959746E1,-6.700196362E0,2.554234068E1,1.458834697E0,2.644677669E1
1.492952646E1,-5.655488960E0,2.493204105E1,4.108206209E-1,2.556873090E1
1.493945446E1,-4.496522285E0,2.366886004E1,-1.751124875E-1,2.409282700E1
1.494938246E1,-3.594029108E0,2.236902634E1,1.147633747E-1,2.265620346E1
1.495931146E1,-3.144515634E0,2.089363350E1,8.481281054E-1,2.114595045E1
1.496923946E1,-2.911306746E0,1.952716025E1,9.074434304E-1,1.976383434E1
1.497916746E1,-2.812128321E0,1.817760183E1,6.385510325E-1,1.840491840E1
1.498909646E1,-2.733716574E0,1.649390777E1,8.903356469E-1,1.674260725E1
1.499902446E1,-2.432381485E0,1.455576395E1,1.236736981E0,1.480933024E1
1.500895246E1,-2.142998105E0,1.205122256E1,1.110783278E0,1.229057547E1
1.501888146E1,-1.550331635E0,9.215814131E0,2.672347122E-1,9.349126840E0
1.502880946E1,-8.450577325E-1,6.509140345E0,-8.028928757E-1,6.612689889E0
1.503873746E1,-2.087043759E-1,3.834287691E0,-1.725682908E0,4.209905119E0
1.504866646E1,2.672545928E-1,1.311525208E0,-2.014990860E0,2.419031119E0
1.505859446E1,6.082098305E-1,-9.045291781E-1,-1.430825365E0,1.798708830E0
1.506852346E1,1.114893871E0,-2.807172806E0,-7.026137120E-1,3.101108436E0
1.507845146E1,1.808678580E0,-4.415513790E0,-2.915649035E-1,4.780490595E0
1.508837946E1,2.477295118E0,-5.705129482E0,-2.663984873E-1,6.225468790E0
1.509830846E1,2.994132264E0,-6.772100742E0,-4.918964320E-1,7.420790967E0
1.510823646E1,3.379103294E0,-7.775072474E0,-8.452588767E-1,8.519656895E0
1.511816446E1,3.716510442E0,-8.627380169E0,-1.300222540E0,9.483391645E0
1.512809346E1,3.981037308E0,-9.421085899E0,-1.548175328E0,1.034419472E1
1.513802146E1,4.174798832E0,-1.008955304E1,-1.527029019E0,1.102541806E1
1.514794946E1,4.696908120E0,-1.047002903E1,-1.893277557E0,1.163043222E1
1.515787846E1,5.380815420E0,-1.070109812E1,-2.403578101E0,1.221654056E1
1.516780646E1,5.808204199E0,-1.091302110E1,-3.045740374E0,1.273207760E1
1.517773446E1,5.998673741E0,-1.117933371E1,-3.306859483E0,1.311094613E1
1.518766346E1,5.894738313E0,-1.142703930E1,-2.879281254E0,1.317632071E1
1.519759146E1,5.409880174E0,-1.166387025E1,-1.567960698E0,1.295265121E1
1.520751946E1,4.870980607E0,-1.163238416E1,-5.170406288E-1,1.262165379E1
1.521744846E1,4.331893636E0,-1.148148273E1,-3.114548653E-1,1.227545324E1
1.522737646E1,3.913761292E0,-1.136893318E1,-5.019834638E-1,1.203420777E1
1.523730446E1,3.741239486E0,-1.114858437E1,-7.974154964E-1,1.178658890E1
1.524723346E1,3.629122342E0,-1.088563625E1,-9.853369676E-1,1.151687868E1
1.525716146E1,3.632272237E0,-1.058487536E1,-8.213425952E-1,1.122085521E1
1.526709046E1,3.602268419E0,-1.025367152E1,-4.764575900E-1,1.087847091E1
1.527701846E1,3.589877877E0,-1.008842336E1,-2.392050608E-1,1.071077626E1
1.528694646E1,3.603650409E0,-9.926966532E0,-5.414942694E-1,1.057469512E1
1.529687546E1,3.502624263E0,-9.631659923E0,-1.084839182E0,1.030602376E1
1.530680346E1,3.417745788E0,-9.312181508E0,-1.336398679E0,1.000917939E1
1.531673146E1,3.248171857E0,-9.090953858E0,-1.492716388E0,9.768534418E0
1.532666046E1,3.065200492E0,-8.967514458E0,-1.677350993E0,9.624202614E0
1.533658846E1,2.928440550E0,-8.819900914E0,-1.912744693E0,9.488150950E0
1.534651646E1,2.813569952E0,-8.388315003E0,-2.188207607E0,9.114178898E0
1.535644546E1,2.815817914E0,-7.670626584E0,-2.360164863E0,8.505158488E0
1.536637346E1,2.518070969E0,-7.157036397E0,-1.790677049E0,7.795535626E0
1.537630146E1,2.336441832E0,-6.806112826E0,-1.595025120E0,7.370633445E0
1.538623046E1,2.244130085E0,-5.809019301E0,-2.066213053E0,6.561254564E0
1.539615846E1,1.925190491E0,-4.342385003E0,-2.012557248E0,5.158784025E0
1.540608646E1,1.699941126E0,-2.043422946E0,-2.177848679E0,3.436335554E0
1.541601546E1,1.299218866E0,1.788394881E0,-2.327718664E0,3.210077895E0
1.542594346E1,1.486625344E-1,6.668416745E0,-1.230325509E0,6.782594142E0
1.543587246E1,-1.929632913E0,1.092360690E1,1.017571644E0,1.113930532E1
1.544580046E1,-4.605936554E0,1.358714227E1,2.204623665E0,1.451500782E1
1.545572846E1,-6.916543926E0,1.560046258E1,1.548620448E0,1.713508791E1
1.546565746E1,-7.756977096E0,1.762290922E1,1.081847162E0,1.928491681E1
1.547558546E1,-7.498820770E0,1.922813832E1,2.551083471E0,2.079571213E1
1.548551346E1,-6.608669311E0,2.043128246E1,4.721664062E0,2.198649414E1
1.549544246E1,-5.169757832E0,2.129644818E1,5.572572518E0,2.261235648E1
1.550537046E1,-4.013719443E0,2.139620168E1,4.982852168E0,2.233240260E1
1.551529846E1,-3.967933990E0,2.113575266E1,3.854897372E0,2.184776361E1
1.552522746E1,-4.856126340E0,2.063427674E1,3.374348631E0,2.146489153E1
1.553515546E1,-5.683004202E0,1.976227913E1,3.374621111E0,2.083824083E1
1.554508346E1,-5.995724405E0,1.846147479E1,3.212771351E0,1.967477223E1
1.555501246E1,-5.626417773E0,1.694720264E1,2.626323688E0,1.804887338E1
1.556494046E1,-4.803130394E0,1.509730499E1,1.731129005E0,1.593723587E1
1.557486946E1,-3.697095931E0,1.307884615E1,6.752972746E-1,1.360811381E1
1.558479746E1,-2.794397224E0,1.103323284E1,-8.478322363E-1,1.141313726E1
1.559472546E1,-3.129920106E0,8.980476565E0,-1.560783241E0,9.637499859E0
1.560465446E1,-4.031005859E0,6.567419543E0,-1.783803062E0,7.909611941E0
1.561458246E1,-4.863732106E0,3.621415127E0,-2.544614697E0,6.576138797E0
1.562451046E1,-4.606274523E0,1.108309906E0,-3.286806457E0,5.766213013E0
1.563443946E1,-3.822497073E0,-8.355630237E-1,-2.770062282E0,4.794047818E0
1.564436746E1,-2.906614940E0,-2.604315353E0,-1.624388668E0,4.227234015E0
1.565429546E1,-2.029687251E0,-4.137489211E0,-7.914767718E-1,4.675990033E0
1.566422446E1,-1.253664378E0,-5.401115198E0,-6.459939533E-1,5.582206369E0
1.567415246E1,-5.191859722E-1,-6.477237936E0,-9.486353105E-1,6.566892287E0
1.568408046E1,2.060389227E-1,-7.423202239E0,-1.330904635E0,7.544381397E0
1.569400946E1,8.087320514E-1,-8.243696988E0,-1.690943869E0,8.454104253E0
1.570393746E1,1.348737327E0,-9.064408084E0,-2.179828547E0,9.419885285E0
1.571386646E1,1.875565172E0,-9.854645830E0,-2.869878931E0,1.043398266E1
1.572379446E1,2.433677813E0,-1.060939273E1,-3.758740495E0,1.151564727E1
1.573372246E1,2.795883294E0,-1.150246722E1,-4.037287230E0,1.250693422E1
1.574365146E1,2.748240181E0,-1.229312070E1,-3.366168961E0,1.303858635E1
1.575357946E1,2.622441722E0,-1.262273643E1,-2.260565731E0,1.308895844E1
1.576350746E1,2.364745718E0,-1.249723998E1,-1.659502660E0,1.282680703E1
1.577343646E1,2.126605728E0,-1.234208762E1,-1.429749477E0,1.260530691E1
1.578336446E1,1.876804051E0,-1.228389847E1,-1.527192156E0,1.251993894E1
1.579329246E1,1.714764403E0,-1.229034327E1,-1.611677698E0,1.251361098E1
1.580322146E1,1.656183342E0,-1.206881917E1,-1.432304856E0,1.226584023E1
1.581314946E1,1.607657884E0,-1.163842901E1,-1.368000102E0,1.182831425E1
1.582307846E1,1.592297102E0,-1.139259336E1,-1.603545829E0,1.161455779E1
1.583300646E1,1.637469036E0,-1.119388860E1,-1.891523831E0,1.147006143E1
1.584293446E1,1.633545992E0,-1.093422895E1,-1.948181743E0,1.122591855E1
1.585286346E1,1.610288400E0,-1.070324639E1,-1.897782252E0,1.098881657E1
1.586279146E1,1.529791390E0,-1.039983671E1,-1.669513385E0,1.064350225E1
1.587271946E1,1.267178609E0,-1.007408131E1,-1.341570980E0,1.024171219E1
1.588264846E1,8.997115110E-1,-9.800807592E0,-1.013926051E0,9.894107150E0
1.589257646E1,5.986141111E-1,-9.493501911E0,-9.569787025E-1,9.560372672E0
1.590250446E1,4.060299240E-1,-9.106043183E0,-1.105388199E0,9.181871585E0
1.591243346E1,2.158496734E-1,-8.541633675E0,-1.229009886E0,8.632297621E0
1.592236146E1,-2.417994703E-1,-8.033452163E0,-9.847618208E-1,8.097195593E0
1.593228946E1,-4.921004999E-1,-7.648120651E0,-1.038870712E0,7.734026426E0
1.594221846E1,-7.216428906E-1,-7.128152322E0,-1.664095355E0,7.355306746E0
1.595214646E1,-8.796334881E-1,-6.393223388E0,-2.407459483E0,6.887882223E0
1.596207546E1,-7.798627397E-1,-5.206642068E0,-3.290608317E0,6.208495036E0
1.597200346E1,-6.450070895E-1,-3.338510461E0,-3.350683195E0,4.773757861E0
1.598193146E1,-4.594310828E-1,-6.498285574E-1,-2.378311697E0,2.507931539E0
1.599186046E1,-7.411002316E-1,3.052125533E0,-1.468797183E0,3.467284959E0
1.600178846E1,-1.433383375E0,7.718462071E0,-1.259214702E-1,7.851439413E0
1.601171646E1,-2.987018249E0,1.221305945E1,2.138226777E0,1.275355295E1
1.602164546E1,-5.781891729E0,1.611175247E1,3.345603719E0,1.744167148E1
1.603157346E1,-8.867831125E0,1.914317827E1,3.540720627E0,2.139243805E1
1.604150146E1,-1.115026720E1,2.160116998E1,2.891283833E0,2.448057445E1
1.605143046E1,-1.112390444E1,2.406095327E1,2.836468526E0,2.665926248E1
1.606135846E1,-8.639438297E0,2.539913067E1,3.580094608E0,2.706608229E1
1.607128746E1,-5.515538192E0,2.466532850E1,3.006524853E0,2.545267733E1
1.608121546E1,-3.683982089E0,2.355238818E1,1.418015285E0,2.388090200E1
1.609114267E1,-3.749566506E0,2.248057718E1,9.730877817E-1,2.281189381E1
1.610107167E1,-4.603479554E0,2.129964544E1,2.220965463E0,2.190432851E1
1.611099967E1,-4.723937167E0,1.995678091E1,3.009764210E0,2.072793688E1
1.612092767E1,-4.161933496E0,1.833669170E1,3.038992102E0,1.904708445E1
1.613085667E1,-3.388586309E0,1.668508015E1,2.318598177E0,1.718284942E1
1.614078467E1,-2.490281492E0,1.464926092E1,7.735024309E-1,1.487953808E1
1.615071267E1,-1.643434219E0,1.163731570E1,-1.243873508E0,1.181842689E1
1.616064167E1,-9.748320061E-1,7.677817490E0,-3.323036390E0,8.422692545E0
1.617056967E1,-1.549941918E-1,3.690308191E0,-3.643309441E0,5.188072998E0
1.618049867E1,8.464891309E-1,4.298557198E-1,-2.736117441E0,2.896145445E0
1.619042667E1,1.908975577E0,-1.899091444E0,-1.552681924E0,3.108304558E0
1.620035467E1,2.459994669E0,-3.708567876E0,-9.971818916E-1,4.560638243E0
1.621028367E1,2.803082971E0,-5.305989186E0,-1.073534760E0,6.096168654E0
1.622021167E1,3.094228410E0,-6.650303240E0,-1.502728575E0,7.487254224E0
1.623013967E1,3.197402822E0,-7.652664523E0,-1.685677428E0,8.463342572E0
1.624006867E1,3.257744626E0,-8.424616272E0,-1.797231193E0,9.209619934E0
1.624999667E1,3.514463121E0,-9.038746408E0,-1.952843728E0,9.892622821E0
1.625992467E1,3.810957885E0,-9.444102879E0,-2.080394890E0,1.039435049E1
1.626985367E1,4.062335533E0,-9.783504512E0,-2.285808161E0,1.083717904E1
1.627978167E1,4.201042306E0,-1.017189704E1,-2.760865197E0,1.134630435E1
1.628970967E1,4.178237580E0,-1.049253496E1,-3.108664600E0,1.171387019E1
1.629963867E1,4.066254044E0,-1.056817571E1,-3.177579884E0,1.176085769E1
1.630956667E1,3.878067548E0,-1.041945763E1,-3.130357186E0,1.155004940E1
1.631949567E1,3.671864319E0,-1.027857949E1,-2.303012424E0,1.115507284E1
1.632942367E1,3.583577502E0,-1.010632286E1,-3.919944868E-1,1.073002559E1
1.633935167E1,3.402250667E0,-9.822626477E0,1.047560113E0,1.044780756E1
1.634928067E1,3.133210042E0,-9.649450076E0,1.330719132E0,1.023228740E1
1.635920867E1,2.848238094E0,-9.703329830E0,7.128859542E-1,1.013781418E1
1.636913667E1,2.669680207E0,-9.927690418E0,-3.008328134E-1,1.028478147E1
1.637906567E1,2.605513740E0,-1.006974969E1,-1.048394657E0,1.045407538E1
1.638899367E1,2.563111778E0,-1.008321349E1,-1.360223598E0,1.049242320E1
1.639892167E1,2.646315903E0,-1.011048023E1,-1.598777279E0,1.057264806E1
1.640885067E1,2.741525238E0,-1.012787803E1,-1.811952143E0,1.064767790E1
1.641877867E1,2.583013946E0,-1.003998736E1,-1.448172884E0,1.046759342E1
1.642870767E1,2.324837448E0,-9.992369978E0,-9.945506445E-1,1.030734970E1
1.643863567E1,1.995261185E0,-9.913156579E0,-9.446861011E-1,1.015599194E1
