"Time (s)","Linear Acceleration x (m/s^2)","Linear Acceleration y (m/s^2)","Linear Acceleration z (m/s^2)","Absolute acceleration (m/s^2)"
2.476185900E-2,4.080438614E-2,1.313762665E-1,9.629845619E-3,1.379037898E-1
3.297366600E-2,1.718440056E-1,1.472511292E-1,9.118288755E-2,2.439827377E-1
4.118489700E-2,1.816823483E-1,9.058666229E-2,1.218990088E-1,2.367990443E-1
4.939566600E-2,1.723797321E-1,9.113883972E-2,1.615011096E-1,2.531870229E-1
5.760639700E-2,1.239731312E-1,9.444713593E-2,1.519485116E-1,2.176647627E-1
6.581743500E-2,6.486129761E-2,1.962795258E-1,8.031272888E-2,2.217718976E-1
7.402782000E-2,2.856135368E-2,3.244628906E-1,4.466885328E-2,3.287662160E-1
8.223920400E-2,7.895255089E-2,4.197273254E-1,-1.290923357E-2,4.272834906E-1
9.045066600E-2,1.530823708E-1,4.337844849E-1,-5.443298817E-2,4.632128471E-1
9.866235800E-2,1.408486366E-1,4.311752319E-1,9.151279926E-3,4.536895029E-1
1.068742430E-1,4.593801498E-2,4.066543579E-1,6.008428335E-2,4.136280807E-1
1.150853970E-1,-5.422592163E-2,3.852100372E-1,7.446461916E-2,3.960709569E-1
1.232968970E-1,-1.149966717E-1,3.903141022E-1,9.948462248E-2,4.188872437E-1
1.315097430E-1,-2.187426090E-1,3.442058563E-1,1.122463346E-1,4.229955557E-1
1.397213580E-1,-1.688425541E-1,3.555011749E-1,-7.442426682E-2,4.005344741E-1
1.479331270E-1,-1.512169838E-2,3.978509903E-1,-2.049267292E-1,4.477823585E-1
1.561465890E-1,4.782867432E-2,4.336996078E-1,-1.264113784E-1,4.542716902E-1
1.643581270E-1,6.050276756E-2,4.436254501E-1,-9.325921535E-2,4.573416733E-1
1.725705500E-1,1.502799988E-1,4.176902771E-1,-3.154927492E-2,4.450220246E-1
1.807825890E-1,1.714575291E-1,3.974876404E-1,1.706808805E-1,4.653236202E-1
1.889934730E-1,1.378958225E-1,3.841924667E-1,2.690069675E-1,4.888597528E-1
1.972058190E-1,5.581092834E-2,3.385171890E-1,1.753393412E-1,3.852955120E-1
2.054166660E-1,8.308863640E-2,2.353448868E-1,1.660698056E-1,2.997834511E-1
2.136278960E-1,-1.161479950E-2,1.610670090E-1,8.191525936E-3,1.616928757E-1
2.218383960E-1,-1.189148426E-1,1.553268433E-1,-1.271055341E-1,2.332873439E-1
2.300481650E-1,-1.144399643E-1,3.089523315E-2,-1.960643530E-1,2.291118752E-1
2.382586270E-1,-1.794576645E-1,-8.220672607E-3,-3.210403323E-1,3.678852101E-1
2.464695120E-1,-2.674934864E-1,-6.967067719E-2,-3.715084791E-1,4.630608152E-1
2.546812040E-1,-3.097727299E-1,-2.243356705E-1,-1.525166929E-1,4.117608272E-1
2.628915110E-1,-2.891902924E-1,-3.357553482E-1,-1.002321243E-1,4.543227463E-1
2.711063960E-1,-1.578183174E-1,-3.980150223E-1,-7.782721519E-2,4.351777277E-1
2.793177040E-1,3.427999020E-1,-3.197374344E-1,-1.545979083E-1,4.936033964E-1
2.875295880E-1,6.561124325E-1,-2.419452667E-1,-3.410792947E-1,7.780463491E-1
2.957401650E-1,7.165625095E-1,-2.078723907E-1,-2.536273003E-1,7.880352583E-1
3.039514730E-1,6.229946613E-1,-1.733036041E-1,-4.119491577E-2,6.479610392E-1
3.121621270E-1,3.919353485E-1,-4.136753082E-2,8.227831125E-2,4.026093771E-1
3.203745880E-1,2.938895226E-1,7.751750946E-2,4.459649324E-2,3.071951545E-1
3.285861270E-1,4.198455811E-1,1.522455215E-1,1.202912331E-1,4.625137744E-1
3.367984730E-1,1.828985214E-1,2.873554230E-1,2.109596729E-1,4.006606942E-1
3.450097030E-1,-6.684684753E-2,3.739595413E-1,3.688831925E-1,5.295177516E-1
3.532218190E-1,-1.355681419E-1,3.314256668E-1,6.161488295E-1,7.126437215E-1
3.614339340E-1,-1.995463371E-1,3.620872498E-1,4.607731700E-1,6.190620577E-1
3.696457030E-1,-1.406171322E-1,3.666791916E-1,2.976697683E-1,4.927819988E-1
3.778588190E-1,7.586741447E-2,2.899351120E-1,1.743468046E-1,3.467204090E-1
3.860707800E-1,1.174879074E-1,1.933002472E-1,4.113769531E-2,2.299145579E-1
3.942816260E-1,1.516971588E-1,1.112012863E-1,9.468853474E-3,1.883279407E-1
4.024931260E-1,2.468483448E-1,3.355026245E-2,1.810861230E-1,3.079803717E-1
4.107038190E-1,3.850140572E-1,7.965087891E-2,1.657114029E-1,4.266618752E-1
4.189147030E-1,5.234758854E-1,1.247940063E-1,2.399637699E-1,5.892225025E-1
4.271245110E-1,4.705634117E-1,8.616161346E-2,3.490850925E-1,5.922112376E-1
4.353345880E-1,3.086833954E-1,7.501411438E-2,3.276203275E-1,4.563415770E-1
4.435460110E-1,1.276319027E-1,1.020631790E-1,1.643197536E-1,2.317493830E-1
4.517565880E-1,-2.429914474E-2,1.481590271E-1,1.587535739E-1,2.185045605E-1
4.599675880E-1,-1.506965160E-1,2.248497009E-1,-8.839678764E-2,2.847469403E-1
4.681779720E-1,-5.083584785E-2,1.759147644E-1,-1.692245305E-1,2.493335707E-1
4.763882030E-1,1.175801754E-1,6.521987915E-2,-9.249264002E-2,1.631980966E-1
4.845980490E-1,7.775855064E-2,5.510711670E-2,-8.335644007E-2,1.266154912E-1
4.928088570E-1,1.843628883E-1,1.449298859E-2,5.085992813E-2,1.917979499E-1
5.010201260E-1,3.087890148E-1,-1.617813110E-2,1.526035070E-1,3.448191090E-1
5.092306640E-1,2.803404331E-1,2.147102356E-2,9.693568945E-2,2.974025743E-1
5.174448570E-1,2.305862904E-1,6.836414337E-2,8.074659109E-2,2.537000303E-1
5.256565100E-1,2.498726845E-1,-8.554458618E-3,2.264153957E-1,3.373032295E-1
5.338670100E-1,8.207917213E-2,-1.183395386E-1,1.322641373E-1,1.955378196E-1
5.420783570E-1,3.005337715E-2,-1.400098801E-1,1.179029942E-1,1.854914770E-1
5.503362030E-1,-5.831694603E-2,-2.006578445E-1,8.792454004E-2,2.267050099E-1
5.585471640E-1,-2.122223377E-1,-2.170343399E-1,-1.380422711E-1,3.334634822E-1
5.667357410E-1,-2.739393711E-1,-2.616138458E-1,-2.336875796E-1,4.450780474E-1
5.749107410E-1,-2.798383236E-1,-3.756456375E-1,-2.433815002E-1,5.278765831E-1
5.831199330E-1,-3.850605488E-1,-4.083518982E-1,-4.414684474E-1,7.140849313E-1
5.913297790E-1,-3.562457561E-1,-3.609104156E-1,-5.348232985E-1,7.370232883E-1
5.995394330E-1,-2.143197060E-1,-3.922472000E-1,-4.736971855E-1,6.512908919E-1
6.077490870E-1,3.869295120E-3,-4.112119675E-1,-3.901574910E-1,5.668625242E-1
6.159608180E-1,2.667460442E-1,-4.943675995E-1,-1.319553852E-1,5.770311943E-1
6.241700100E-1,4.292640686E-1,-6.086578369E-1,1.453453898E-1,7.588526111E-1
6.323803950E-1,4.663500786E-1,-7.594547272E-1,3.155097961E-1,9.454101279E-1
6.405897790E-1,4.191548824E-1,-9.463729858E-1,4.578735232E-1,1.131795391E0
6.488004330E-1,3.211832047E-1,-1.183815002E0,5.035503507E-1,1.325948554E0
6.570117020E-1,2.313251495E-1,-1.450690269E0,4.554582834E-1,1.538003846E0
6.652225100E-1,8.657598495E-2,-1.686843872E0,3.966667056E-1,1.735016463E0
6.734330480E-1,-1.105020046E-1,-1.932794094E0,3.527198434E-1,1.967819857E0
6.816437790E-1,-3.403449059E-1,-2.135942936E0,3.424200416E-1,2.189826104E0
6.898540480E-1,-4.771251678E-1,-2.359776974E0,3.344694376E-1,2.430651270E0
6.980643170E-1,-4.924607277E-1,-2.546730518E0,3.787773848E-1,2.621416832E0
7.062753170E-1,-5.228967667E-1,-2.773404121E0,4.631795883E-1,2.860022164E0
7.144865100E-1,-5.162210464E-1,-3.020522594E0,5.779793262E-1,3.118349085E0
7.226971250E-1,-5.156424046E-1,-3.221096992E0,7.125355601E-1,3.339020792E0
7.309081250E-1,-3.721933365E-1,-3.399199963E0,7.778688669E-1,3.506874426E0
7.391194330E-1,-2.022027969E-1,-3.488101006E0,8.799892664E-1,3.603070316E0
7.473314710E-1,-1.265606880E-1,-3.473787308E0,9.738693237E-1,3.609935917E0
7.555443940E-1,-9.412717819E-2,-3.380412579E0,1.082806468E0,3.550847642E0
7.637598940E-1,-1.434586048E-1,-3.231877327E0,1.171909809E0,3.440782473E0
7.719712020E-1,-2.359790802E-1,-2.977937698E0,1.257022500E0,3.240972790E0
7.801824330E-1,-3.042292595E-1,-2.647410870E0,1.189067245E0,2.918085103E0
7.883936250E-1,-3.484449387E-1,-2.158740997E0,1.060974717E0,2.430482240E0
7.966067790E-1,-3.522131443E-1,-1.482995510E0,8.376150131E-1,1.739232213E0
8.048179320E-1,-1.991021633E-1,-5.144948959E-1,5.985815525E-1,8.140310463E-1
8.130282020E-1,1.736879349E-2,7.851486206E-1,3.659936190E-1,8.664360106E-1
8.212378550E-1,3.863801956E-1,2.256232262E0,2.691122890E-1,2.304841664E0
8.294482020E-1,7.054209709E-1,3.473282814E0,2.489809394E-1,3.552928899E0
8.376588550E-1,1.289011955E0,4.802556992E0,3.015957177E-1,4.981672957E0
8.458695860E-1,2.014170170E0,6.167058945E0,3.592338562E-1,6.497580047E0
8.540822780E-1,2.535475731E0,7.547150612E0,2.921274304E-1,7.967023156E0
8.622943940E-1,2.739489794E0,8.955146790E0,1.368826628E-2,9.364808899E0
8.705059710E-1,2.829818726E0,1.044184780E1,-4.289585650E-1,1.082700628E1
8.787176630E-1,2.929145336E0,1.198383427E1,-9.722903371E-1,1.237487473E1
8.869269710E-1,3.082731247E0,1.342194080E1,-1.440387249E0,1.384653178E1
8.951380470E-1,3.188987017E0,1.443940639E1,-1.572269678E0,1.487071374E1
9.033490470E-1,3.383221626E0,1.528344154E1,-1.457724214E0,1.572115562E1
9.115595470E-1,3.629936457E0,1.575164509E1,-1.226774812E0,1.621097585E1
9.197696240E-1,3.539543390E0,1.602438354E1,-1.141198277E0,1.645027565E1
9.279796240E-1,3.252581358E0,1.588914776E1,-1.278440595E0,1.626894933E1
9.361904320E-1,2.905867338E0,1.555317307E1,-1.784320951E0,1.592259585E1
9.444008930E-1,2.616172075E0,1.499005413E1,-2.351008654E0,1.539718548E1
9.526117010E-1,2.503465891E0,1.380538750E1,-2.363974333E0,1.422829716E1
9.608238550E-1,2.354074001E0,1.246734047E1,-1.879378080E0,1.282607909E1
9.690352400E-1,2.440540552E0,1.067445183E1,-1.076524258E0,1.100268442E1
9.772467780E-1,2.929590940E0,8.697132111E0,-2.284314632E-1,9.180130226E0
9.854589320E-1,3.235247374E0,6.616620064E0,7.505881786E-1,7.403368777E0
9.936694700E-1,3.042265654E0,4.496550560E0,1.441684484E0,5.617188033E0
1.001879624E0,2.625672102E0,2.509173393E0,1.925343871E0,4.110602648E0
1.010095162E0,2.261201859E0,5.941333771E-1,2.427252531E0,3.370101358E0
1.018305701E0,1.367945194E0,-1.307974339E0,2.965881348E0,3.518312535E0
1.026515624E0,1.225373745E-1,-2.969614029E0,3.154675961E0,4.334236185E0
1.034726278E0,-1.215404510E0,-4.832249165E0,3.034703732E0,5.834146626E0
1.042937585E0,-2.171229362E0,-6.492167950E0,2.911373854E0,7.438990479E0
1.051149816E0,-2.718049526E0,-8.154539108E0,2.753921986E0,9.025984024E0
1.059361970E0,-3.423213959E0,-9.571578979E0,2.674661160E0,1.051129537E1
1.067573355E0,-4.284733772E0,-1.063401222E1,2.682412148E0,1.177439996E1
1.075785893E0,-4.936210632E0,-1.131710339E1,2.782088280E0,1.265634306E1
1.083998085E0,-5.137855053E0,-1.174911976E1,2.855625629E0,1.313750233E1
1.092209585E0,-5.147601604E0,-1.192438698E1,2.984194756E0,1.332644834E1
1.100422431E0,-5.289673328E0,-1.198555946E1,3.131972790E0,1.347009774E1
1.108632162E0,-5.577706337E0,-1.200217247E1,3.099358797E0,1.359297528E1
1.116843431E0,-5.622954369E0,-1.211781120E1,2.818081856E0,1.365285866E1
1.125054431E0,-5.622513771E0,-1.216666794E1,2.394202471E0,1.361516343E1
1.133265816E0,-5.624181747E0,-1.195462418E1,2.044620037E0,1.336880438E1
1.141475547E0,-5.356115818E0,-1.173585987E1,1.582983375E0,1.299708506E1
1.149686085E0,-5.021584034E0,-1.116622829E1,1.284190178E0,1.231056883E1
1.157897970E0,-4.614591599E0,-1.075540161E1,1.127759933E0,1.175776177E1
1.166108123E0,-4.176357746E0,-1.031630993E1,1.054338932E0,1.117943850E1
1.174319277E0,-3.789143801E0,-9.777567863E0,1.121479392E0,1.054590727E1
1.182530354E0,-3.354343414E0,-9.190706253E0,1.252139568E0,9.863496067E0
1.190741046E0,-2.914111614E0,-8.730737686E0,1.238945484E0,9.287239254E0
1.198953162E0,-2.553004026E0,-8.593555450E0,1.096731544E0,9.031602566E0
1.207164816E0,-2.422810078E0,-8.649440765E0,9.232459664E-1,9.029685340E0
1.215376777E0,-2.614701748E0,-8.658924103E0,8.320127726E-1,9.083274580E0
1.223588277E0,-2.704176426E0,-8.656300545E0,6.878442764E-1,9.094901814E0
1.231800046E0,-2.774409294E0,-8.354572296E0,6.633915305E-1,8.828154592E0
1.240011508E0,-2.646628380E0,-7.899523735E0,6.772580147E-1,8.358576161E0
1.248222315E0,-2.536776066E0,-7.678928375E0,6.538684964E-1,8.113489866E0
1.256438238E0,-2.607221842E0,-7.276491642E0,7.626740932E-1,7.767020543E0
1.264649431E0,-2.624224901E0,-6.692015171E0,8.074838519E-1,7.233370829E0
1.272860238E0,-2.491622925E0,-5.860207558E0,6.793769598E-1,6.404043291E0
1.281071623E0,-2.356961250E0,-4.493156910E0,2.052412033E-1,5.077976891E0
1.289283277E0,-1.989968657E0,-2.848431587E0,-6.595258713E-1,3.536737499E0
1.297495469E0,-7.504289150E-1,-3.464632034E-1,-1.907658696E0,2.079024293E0
1.305706892E0,8.727991581E-1,2.638867378E0,-3.204010963E0,4.241589992E0
1.313917892E0,2.626236439E0,5.842769623E0,-4.444137573E0,7.796501361E0
1.322127161E0,4.200866699E0,8.672414780E0,-4.967987061E0,1.084153839E1
1.330337123E0,5.223495483E0,1.032558727E1,-4.197688580E0,1.230947793E1
1.338548853E0,5.506187439E0,1.058897209E1,-2.341973305E0,1.216261769E1
1.346761507E0,4.666549683E0,1.004655266E1,-3.302514553E-2,1.107749958E1
1.354973277E0,3.694544554E0,9.343565941E0,1.377485037E0,1.014146681E1
1.363184930E0,3.173435211E0,8.517487526E0,1.635404587E0,9.235411900E0
1.371396469E0,3.142177820E0,8.985275269E0,1.228797436E-2,9.518855189E0
1.379609238E0,3.483188868E0,1.123901176E1,-3.274290085E0,1.221347476E1
1.387820969E0,4.822525024E0,1.382952213E1,-6.977069855E0,1.622319123E1
1.396033007E0,6.740891933E0,1.555065823E1,-9.145890236E0,1.925902135E1
1.404244930E0,7.362315655E0,1.582306957E1,-8.168683052E0,1.926916203E1
1.412456199E0,5.165306091E0,1.473146534E1,-3.870055676E0,1.608333886E1
1.420666969E0,2.460284233E0,1.248686314E1,-2.467155457E-3,1.272693033E1
1.428877584E0,-2.661035061E-1,9.721040726E0,3.010723114E0,1.018007355E1
1.437088853E0,-1.530506849E0,7.551324844E0,4.006431580E0,8.684264628E0
1.445298468E0,-9.938459396E-1,5.442107201E0,2.933724165E0,6.261868572E0
1.453508276E0,6.161725521E-1,3.468588829E0,1.228511214E0,3.730953884E0
1.461720430E0,2.340327740E0,1.843421936E0,2.104256153E-1,2.986572836E0
1.469931276E0,3.530547857E0,8.090457916E-1,2.205711603E-1,3.628770439E0
1.478140507E0,4.165675163E0,1.312351227E-1,8.420127630E-1,4.251947520E0
1.486350622E0,4.089281559E0,-4.271736145E-1,1.716602206E0,4.455493699E0
1.494561891E0,3.291971207E0,-1.117317200E0,2.834149599E0,4.485295542E0
1.502776584E0,2.095355511E0,-1.876152039E0,3.895699739E0,4.804886851E0
1.510987122E0,7.714176178E-1,-2.755201817E0,4.493993282E0,5.327494515E0
1.519196930E0,-4.663012028E-1,-3.588420868E0,4.636107922E0,5.881130656E0
1.527406699E0,-1.041004181E0,-4.499717712E0,4.080905437E0,6.163192224E0
1.535616468E0,-9.672286510E-1,-5.205429077E0,3.090252876E0,6.130390361E0
1.543826353E0,-7.760581970E-1,-5.577135086E0,2.017519951E0,5.981395226E0
1.552036660E0,-6.620411873E-1,-5.744350433E0,1.431376100E0,5.956903388E0
1.560246506E0,-8.128862381E-1,-5.815958500E0,1.140691876E0,5.982251689E0
1.568456622E0,-1.152319908E0,-5.821431160E0,1.190306425E0,6.052580549E0
1.576667314E0,-1.613008499E0,-5.761110306E0,1.417836905E0,6.148369691E0
1.584877545E0,-2.090414524E0,-5.450439453E0,1.608592749E0,6.055137797E0
1.593087660E0,-2.572217464E0,-5.015353680E0,1.573343754E0,5.851964267E0
1.601298314E0,-2.876265526E0,-4.461999416E0,1.326135755E0,5.471834994E0
1.609507852E0,-2.984675169E0,-3.727381706E0,9.584227204E-1,4.870342325E0
1.617718891E0,-2.938404322E0,-2.990747452E0,5.670077801E-1,4.230873208E0
1.625930122E0,-2.565944195E0,-1.985705853E0,1.650808156E-1,3.248745761E0
1.634140083E0,-1.813599110E0,-6.609373093E-1,-1.291801035E-1,1.934597466E0
1.642351275E0,-9.290463924E-1,6.925601959E-1,-3.942790627E-1,1.224019119E0
1.650562122E0,-1.712851524E-1,1.946370125E0,-6.114717722E-1,2.047338026E0
1.658772929E0,5.764417648E-1,3.135837555E0,-7.431392074E-1,3.273838444E0
1.666983429E0,1.313290596E0,4.154796600E0,-8.145052791E-1,4.432886851E0
1.675192506E0,1.893035412E0,4.926383018E0,-7.346832156E-1,5.328469963E0
1.683400968E0,2.240275860E0,5.238220215E0,-5.253914595E-1,5.721348017E0
1.691608775E0,2.430047512E0,5.015415192E0,-1.974463463E-2,5.573141870E0
1.699817506E0,2.334878922E0,4.231393814E0,5.952614546E-1,4.869362318E0
1.708026852E0,1.950620890E0,3.077315331E0,1.021607280E0,3.783975810E0
1.716237275E0,1.673192739E0,1.833416939E0,8.797124624E-1,2.633417102E0
1.724447275E0,1.401365519E0,7.055673599E-1,2.347817421E-1,1.586434078E0
1.732656775E0,1.014424324E0,-7.832241058E-2,-3.493120670E-1,1.075736970E0
1.740866929E0,5.602643490E-1,-7.425642014E-1,-7.943860292E-1,1.223252589E0
1.749078352E0,1.455023289E-1,-1.188932419E0,-8.703181744E-1,1.480602900E0
1.757287698E0,-5.135269165E-1,-1.526390553E0,-7.144924998E-1,1.761839251E0
1.765498006E0,-1.139931679E0,-1.804396629E0,-5.095290542E-1,2.194290611E0
1.773707236E0,-1.644885540E0,-2.029545307E0,-3.494705558E-1,2.635684401E0
1.781917544E0,-2.045096636E0,-2.158289433E0,-2.365424633E-1,2.982714512E0
1.790126890E0,-2.159980774E0,-2.192487240E0,-1.831538081E-1,3.083190321E0
1.798337659E0,-2.083516598E0,-2.221626282E0,-1.891531944E-1,3.051629676E0
1.806547813E0,-1.842750788E0,-2.258187771E0,-2.018642426E-1,2.921624830E0
1.814757736E0,-1.517335415E0,-2.284842014E0,-1.643269658E-1,2.747692331E0
1.822968313E0,-1.203355789E0,-2.277440548E0,-1.085838079E-1,2.578098339E0
1.831178005E0,-8.904378414E-1,-2.256752968E0,-3.514540195E-2,2.426324114E0
1.839388044E0,-7.448985577E-1,-2.319499016E0,-2.648150921E-2,2.436319112E0
1.847597852E0,-7.103660107E-1,-2.424463272E0,-9.111201763E-2,2.528031532E0
1.855809852E0,-7.375385761E-1,-2.524869442E0,-2.141289711E-1,2.639086976E0
1.864018775E0,-8.262944221E-1,-2.569530487E0,-3.244699240E-1,2.718552947E0
1.872229813E0,-9.585289955E-1,-2.475457668E0,-3.165841103E-1,2.673367540E0
1.880441813E0,-9.156126976E-1,-2.436924934E0,-3.173625469E-1,2.622530979E0
1.888652044E0,-7.845134735E-1,-2.403419495E0,-2.191321850E-1,2.537696903E0
1.896863005E0,-5.758600235E-1,-2.315214157E0,-1.232624054E-4,2.385755934E0
1.905072967E0,-2.804822922E-1,-2.302065849E0,2.634875774E-1,2.334010110E0
1.913283313E0,-6.447887421E-2,-2.302847862E0,6.310473680E-1,2.388616039E0
1.921493121E0,4.378843307E-2,-2.236650944E0,1.120543361E0,2.502027637E0
1.929702082E0,1.220967770E-1,-2.263914108E0,1.351526499E0,2.639476954E0
1.937910428E0,2.885558605E-1,-2.181210995E0,1.495006442E0,2.660073335E0
1.946118774E0,4.298880100E-1,-1.947998524E0,1.502838612E0,2.497604020E0
1.954327967E0,4.945414066E-1,-1.362907887E0,1.366608143E0,1.992412338E0
1.962538236E0,5.984978676E-1,-9.225177765E-2,1.181865692E0,1.327974624E0
1.970748197E0,8.477153778E-1,1.791691780E0,8.913494349E-1,2.173311899E0
1.978959197E0,1.362615108E0,3.885985374E0,5.346980095E-1,4.152529858E0
1.987169159E0,2.031615257E0,5.938494682E0,1.933557987E-1,6.279376252E0
1.995383813E0,2.696404219E0,7.904242516E0,1.723220348E-1,8.353283207E0
2.003594351E0,3.214048624E0,9.096793175E0,3.785349131E-1,9.655311663E0
2.011804697E0,3.339947939E0,9.885108948E0,5.224282742E-1,1.044717964E1
2.020014620E0,3.295673132E0,1.048284817E1,5.776327848E-1,1.100387326E1
2.028224851E0,3.520561934E0,1.106714249E1,2.439664602E-1,1.161617488E1
2.036435043E0,3.809927225E0,1.169583321E1,-2.268627882E-1,1.230282596E1
2.044645851E0,3.927866459E0,1.262917995E1,-4.642935991E-1,1.323404284E1
2.052855505E0,4.192106247E0,1.372001266E1,-5.270295143E-1,1.435584419E1
2.061066235E0,4.699108601E0,1.460230923E1,-5.528446436E-1,1.534974572E1
2.069276389E0,4.740236282E0,1.504964352E1,-5.554178953E-1,1.578828993E1
2.077487505E0,4.214073181E0,1.506099129E1,-6.140252352E-1,1.565148230E1
2.085698197E0,3.136167526E0,1.447383499E1,-6.685689688E-1,1.482479108E1
2.093908351E0,1.838193417E0,1.338966370E1,-8.541622162E-1,1.354221703E1
2.102117812E0,5.700321198E-1,1.194546413E1,-1.087101698E0,1.200836542E1
2.110328581E0,-1.115970612E-1,1.014943314E1,-1.236638069E0,1.022510247E1
2.118539274E0,-3.850126266E-2,8.118356705E0,-1.013737798E0,8.181495111E0
2.126750081E0,5.067837238E-1,6.028820992E0,-2.452889681E-1,6.055054002E0
2.134961697E0,1.238641500E0,4.194531441E0,6.190483570E-1,4.417187753E0
2.143173158E0,1.790955544E0,2.033877373E0,1.372949600E0,3.037954827E0
2.151384235E0,2.357716322E0,-1.478557587E-1,2.040684462E0,3.121711174E0
2.159595197E0,2.668975830E0,-2.321705818E0,2.509364128E0,4.337125571E0
2.167805196E0,2.392895460E0,-4.306151390E0,2.789166451E0,5.661125150E0
2.176014773E0,1.676546097E0,-6.148463249E0,2.955595493E0,7.024952090E0
2.184225350E0,7.509942055E-1,-7.745110035E0,2.955074787E0,8.323652368E0
2.192435427E0,-5.517849922E-1,-9.105118752E0,3.018483400E0,9.608272279E0
2.200646196E0,-3.111762524E0,-1.008725357E1,2.901257038E0,1.094774146E1
2.208855312E0,-3.328917742E0,-1.085329056E1,2.602309704E0,1.164678604E1
2.217065696E0,-4.621671677E0,-1.123577499E1,3.207166433E0,1.256536531E1
2.225275965E0,-5.403611183E0,-1.134726143E1,3.348415375E0,1.300658454E1
2.233486812E0,-5.330919266E0,-1.156774902E1,3.325335741E0,1.316394225E1
2.241701235E0,-4.541622162E0,-1.187998772E1,3.179131031E0,1.310981747E1
2.249913004E0,-4.174334526E0,-1.213684177E1,3.171128988E0,1.322059212E1
2.258124658E0,-4.020731926E0,-1.231260872E1,3.023979902E0,1.330079220E1
2.266336888E0,-3.807064772E0,-1.242725372E1,2.707869768E0,1.327640523E1
2.274547619E0,-3.514060020E0,-1.248848343E1,2.220177650E0,1.316206766E1
2.282758658E0,-3.350705147E0,-1.239240837E1,1.612499237E0,1.293828288E1
2.290970658E0,-3.601140976E0,-1.196630001E1,1.183054805E0,1.255229744E1
2.299182811E0,-4.125410080E0,-1.140401459E1,1.021807194E0,1.217023611E1
2.307394157E0,-4.388465881E0,-1.068031502E1,6.963167191E-1,1.156774043E1
2.315606196E0,-4.276619434E0,-1.006686211E1,2.387794852E-1,1.094021033E1
2.323817273E0,-3.982301474E0,-9.418445587E0,-1.647412926E-1,1.022707104E1
2.332028773E0,-3.750515223E0,-8.895413399E0,-3.391107619E-1,9.659696687E0
2.340239927E0,-3.576158762E0,-8.410517693E0,-3.842544556E-1,9.147314952E0
2.348451311E0,-3.265271664E0,-8.082405090E0,-2.423573136E-1,8.720436236E0
2.356662042E0,-2.721003294E0,-7.874773026E0,3.923293948E-2,8.331713410E0
2.364873465E0,-1.998460531E0,-7.688190937E0,3.670597076E-1,7.952160537E0
2.373084965E0,-1.389949560E0,-7.491737366E0,6.820826530E-1,7.650053940E0
2.381297042E0,-9.686408043E-1,-7.330054283E0,7.338166833E-1,7.430104153E0
2.389507465E0,-8.113398552E-1,-7.017809868E0,6.885522008E-1,7.098030138E0
2.397719349E0,-8.757679462E-1,-6.524732590E0,3.757252097E-1,6.593957408E0
2.405929849E0,-9.273345470E-1,-5.791780472E0,-3.011153936E-1,5.873273438E0
2.414141311E0,-1.033652782E0,-4.738658428E0,-1.501241565E0,5.077110203E0
2.422352119E0,-8.601195812E-1,-3.007635593E0,-3.068315029E0,4.381807238E0
2.430563042E0,-2.322530746E-2,-3.850460052E-1,-4.802586079E0,4.818052810E0
2.438772772E0,1.365368128E0,2.848277092E0,-6.147757530E0,6.911717237E0
2.446984003E0,3.020468235E0,6.446147919E0,-6.494597912E0,9.636174209E0
2.455245811E0,4.482229233E0,1.000867176E1,-5.700511456E0,1.235960032E1
2.463456811E0,5.279167175E0,1.258166409E1,-4.050074577E0,1.423274328E1
2.471667465E0,5.489899635E0,1.385184765E1,-1.926625252E0,1.502413279E1
2.479878349E0,5.346003056E0,1.411942577E1,1.342971087E0,1.515722614E1
2.488092080E0,5.097853184E0,1.342551708E1,3.708975792E0,1.483203012E1
2.496303772E0,5.394394875E0,1.214119244E1,4.382890701E0,1.398991711E1
2.504513464E0,5.282515049E0,1.131583309E1,3.801712513E0,1.305396728E1
2.512725234E0,4.540998459E0,1.163192749E1,1.779925585E0,1.261310982E1
2.520936849E0,4.072014809E0,1.240519714E1,-1.078424215E0,1.310088621E1
2.529146926E0,3.794589996E0,1.311847591E1,-3.037359238E0,1.398995621E1
2.537357541E0,3.412385464E0,1.363102436E1,-3.229547262E0,1.441801565E1
2.545569734E0,3.008109093E0,1.302901268E1,-2.311537266E0,1.357008092E1
2.553781387E0,1.366605282E0,1.169500732E1,-2.491669655E-1,1.177721913E1
2.561993695E0,-7.081058025E-1,9.758708954E0,1.950941563E0,9.976972850E0
2.570205233E0,-1.856270790E0,7.678190231E0,3.415309191E0,8.606084089E0
2.578416887E0,-1.849682808E0,5.715720177E0,3.802732229E0,7.109961746E0
2.586628272E0,-9.892561436E-1,3.902064323E0,3.189902067E0,5.136166752E0
2.594839079E0,3.875498772E-1,2.041093826E0,2.314442873E0,3.110129375E0
2.603049503E0,1.499800205E0,6.191291809E-1,1.859272957E0,2.467715042E0
2.611260656E0,2.578589916E0,-8.994646072E-1,1.655320168E0,3.193469491E0
2.619472464E0,2.940579891E0,-2.230175018E0,1.843354940E0,4.125366426E0
2.627685118E0,2.618424416E0,-3.292702198E0,2.291286469E0,4.790409989E0
2.635897695E0,1.809970856E0,-4.147517681E0,2.788164616E0,5.315238408E0
2.644110079E0,8.472576141E-1,-4.909168243E0,3.105725765E0,5.870546042E0
2.652322695E0,-2.504940033E-1,-5.467828751E0,3.263839722E0,6.372797519E0
2.660535464E0,-1.443103790E0,-5.638344765E0,3.221596003E0,6.652229779E0
2.668746848E0,-1.676599264E0,-5.806276321E0,2.756010532E0,6.642245394E0
2.676959887E0,-1.739524841E0,-5.840277672E0,2.147734165E0,6.461234557E0
2.685171310E0,-1.930944681E0,-5.752372742E0,1.738917351E0,6.312065674E0
2.693382925E0,-1.943893671E0,-5.617939949E0,1.501533389E0,6.131441461E0
2.701594194E0,-1.709392548E0,-5.501582146E0,1.406005859E0,5.930116480E0
2.709804694E0,-1.478619814E0,-5.417453289E0,1.374264479E0,5.781325069E0
2.718015848E0,-1.449236631E0,-5.251197815E0,1.366207361E0,5.616216508E0
2.726230848E0,-1.499842167E0,-5.002747536E0,1.227106810E0,5.364960443E0
2.734445771E0,-1.484932423E0,-4.734267235E0,8.450554609E-1,5.033133148E0
2.742657771E0,-1.375933170E0,-4.197773457E0,2.570348978E-1,4.424992771E0
2.750869887E0,-1.431915045E0,-3.318398476E0,-1.711639762E-1,3.618210365E0
2.759083271E0,-1.288060188E0,-2.070051670E0,-4.762909412E-1,2.484163043E0
2.767294579E0,-6.050088406E-1,-4.878921509E-1,-6.091629267E-1,9.874988199E-1
2.775508117E0,4.233379364E-1,1.091793060E0,-5.466377139E-1,1.292300230E0
2.783721386E0,1.377732754E0,2.681287766E0,-1.905487180E-1,3.020556312E0
2.791934463E0,2.022113085E0,3.958634377E0,3.313283920E-1,4.457522401E0
2.800148079E0,2.253894567E0,4.697353363E0,7.269572020E-1,5.260573744E0
2.808364271E0,2.341664553E0,5.034403801E0,1.001878977E0,5.642018787E0
2.816576040E0,2.333026409E0,4.821890831E0,9.658014774E-1,5.443015332E0
2.824788386E0,2.210250854E0,4.214624405E0,7.912420034E-1,4.824347792E0
2.833001617E0,1.943258047E0,3.502532005E0,6.338086128E-1,4.055329289E0
2.841215309E0,1.609602690E0,2.713846207E0,5.836648941E-1,3.208807685E0
2.849429002E0,1.219266653E0,1.942829132E0,6.136128902E-1,2.374387708E0
2.857641655E0,7.577486038E-1,1.265441895E0,7.233285904E-1,1.642781295E0
2.865855155E0,2.169897556E-1,9.196662903E-1,9.531455040E-1,1.342146412E0
2.874068001E0,-1.353852749E-1,4.912662506E-1,1.113159895E0,1.224253509E0
2.882280001E0,-3.340911865E-1,-4.446125031E-2,1.155792236E0,1.203930819E0
2.890495309E0,-7.478499413E-1,-5.537958145E-1,1.217903614E0,1.532729119E0
2.898706848E0,-1.089231491E0,-1.160285473E0,1.016565800E0,1.888410349E0
2.906918348E0,-1.396222353E0,-1.540921211E0,7.151243687E-1,2.198926534E0
2.915131924E0,-1.504950285E0,-1.841173649E0,3.941817284E-1,2.410430460E0
2.923346001E0,-1.540089130E0,-2.117592335E0,6.114006042E-2,2.619123886E0
2.931559809E0,-1.484036207E0,-2.290263653E0,-2.009092569E-1,2.736427524E0
2.939773924E0,-1.383724451E0,-2.411541462E0,-4.483714104E-1,2.816249723E0
2.947987463E0,-1.282127857E0,-2.480139732E0,-6.762614250E-1,2.872677227E0
2.956201232E0,-1.092320681E0,-2.491150856E0,-8.467780352E-1,2.848864703E0
2.964414001E0,-8.628444672E-1,-2.412949562E0,-1.031001091E0,2.762207344E0
2.972628155E0,-5.676891804E-1,-2.253411293E0,-1.126897335E0,2.582640328E0
2.980844809E0,-2.629742622E-1,-2.072476864E0,-1.085635662E0,2.354340800E0
2.989056001E0,-1.123216152E-1,-1.897359371E0,-8.050305843E-1,2.064137343E0
2.997268309E0,-1.289486885E-2,-1.829385757E0,-6.636924744E-1,1.946100261E0
3.005480578E0,1.223630905E-1,-1.905419827E0,-4.892513752E-1,1.971031291E0
3.013693193E0,2.052855492E-1,-2.052217007E0,-2.290716171E-1,2.075141105E0
3.021905001E0,4.393711090E-1,-2.244630337E0,1.115710735E-1,2.289947690E0
3.030116886E0,4.742045403E-1,-2.436306000E0,5.442187786E-1,2.540990151E0
3.038330039E0,1.847391129E-1,-2.713419914E0,8.703777790E-1,2.855579389E0
3.046543347E0,-2.718756199E-1,-3.028544903E0,1.084657431E0,3.228386954E0
3.054760155E0,-5.672869682E-1,-3.312801838E0,1.048032284E0,3.520630936E0
3.062976155E0,-8.061175346E-1,-3.519266605E0,8.207399845E-1,3.702523064E0
3.071188770E0,-1.053333044E0,-3.575910568E0,7.029364109E-1,3.793516376E0
3.079402155E0,-1.277376652E0,-3.485489368E0,6.377305984E-1,3.766567079E0
3.087614616E0,-1.153017998E0,-3.052032471E0,5.817904472E-1,3.314035732E0
3.095827347E0,-8.209469318E-1,-2.195755005E0,5.575990677E-1,2.409607982E0
3.104040308E0,-2.695090771E-1,-7.031955719E-1,4.054608345E-1,8.552880470E-1
3.112252308E0,5.569405556E-1,1.541474342E0,1.255749464E-1,1.643805036E0
3.120463347E0,1.395048141E0,4.244234085E0,-4.905627966E-1,4.494478184E0
3.128674462E0,2.104871511E0,6.748804092E0,-8.645210862E-1,7.122095019E0
3.136888231E0,2.888534069E0,9.681276321E0,-1.144130230E0,1.016758449E1
3.145099385E0,3.575780153E0,1.205147171E1,-1.254702091E0,1.263322807E1
3.153310462E0,3.633576393E0,1.378455544E1,-9.164413214E-1,1.428484199E1
3.161520577E0,3.281792879E0,1.507007885E1,-1.667137146E-1,1.542417695E1
3.169729923E0,3.239529610E0,1.569494534E1,6.951789856E-1,1.604085830E1
3.177941654E0,3.715111256E0,1.580978012E1,1.796231270E0,1.633945060E1
3.186152270E0,4.328411102E0,1.561587048E1,2.923707962E0,1.646628743E1
3.194363462E0,4.712882042E0,1.537466049E1,3.444768190E0,1.644560337E1
3.202574577E0,4.626970768E0,1.516710091E1,2.987560272E0,1.613614963E1
3.210786423E0,3.904786587E0,1.497532558E1,1.642028570E0,1.556290437E1
3.219003192E0,2.839417934E0,1.441598988E1,9.896969795E-2,1.469329280E1
3.227217923E0,1.564534187E0,1.333661747E1,-9.918919802E-1,1.346465679E1
3.235430077E0,-3.741312027E-2,1.184632015E1,-1.362315774E0,1.192445408E1
3.243641846E0,-1.450142622E0,9.945029259E0,-1.241781354E0,1.012662538E1
3.251852731E0,-1.999074697E0,7.728852272E0,-9.849723577E-1,8.043732196E0
3.260064615E0,-1.665537357E0,5.617051125E0,-9.393950701E-1,5.933611137E0
3.268277423E0,-1.057924509E0,3.124662399E0,-8.564213514E-1,3.408251298E0
3.276490500E0,-5.369191170E-1,7.035331726E-1,-5.659875870E-1,1.050515593E0
3.284703115E0,-2.320735455E-1,-1.679068089E0,-3.934714794E-1,1.740099877E0
3.292915654E0,1.896901131E-1,-4.019545555E0,-2.310074568E-1,4.030644273E0
3.301131423E0,7.179584503E-1,-6.006631374E0,-1.060233116E-1,6.050316169E0
3.309343192E0,9.185948372E-1,-7.739603996E0,2.230989933E-1,7.797118676E0
3.317554961E0,5.826544762E-1,-9.195282936E0,9.148094654E-1,9.259027534E0
3.325765384E0,-7.199494839E-1,-1.036569500E1,1.890060782E0,1.056116896E1
3.333977731E0,-2.160863638E0,-1.115625668E1,2.439142704E0,1.162242710E1
3.342189500E0,-3.684363604E0,-1.170333004E1,2.688995838E0,1.256077895E1
3.350400615E0,-4.618602276E0,-1.197098923E1,2.520642757E0,1.307630338E1
3.358613000E0,-4.984711647E0,-1.205690002E1,2.158679008E0,1.322407212E1
3.366825423E0,-5.051488876E0,-1.225185966E1,1.998336434E0,1.340219958E1
3.375038461E0,-4.541254997E0,-1.252128601E1,1.964877725E0,1.346351903E1
3.383253692E0,-3.669369459E0,-1.269193649E1,2.072462559E0,1.337328027E1
3.391465500E0,-2.792543888E0,-1.272982216E1,2.233021259E0,1.322244522E1
3.399678538E0,-2.282006264E0,-1.270677376E1,2.345082760E0,1.312132101E1
3.407890153E0,-2.008199215E0,-1.263843822E1,2.379534721E0,1.301634243E1
3.416102192E0,-1.953010201E0,-1.227967453E1,2.238265991E0,1.263386283E1
3.424313153E0,-1.762824059E0,-1.174208069E1,1.946853042E0,1.203221693E1
3.432524769E0,-1.540259838E0,-1.116692257E1,1.537500858E0,1.137701494E1
3.440736692E0,-1.497658253E0,-1.059272861E1,1.131928563E0,1.075779448E1
3.448947653E0,-1.180932164E0,-1.008361244E1,7.233513594E-1,1.017826497E1
3.457158461E0,-6.251723766E-1,-9.667321205E0,3.533508778E-1,9.693956706E0
3.465372730E0,-4.297943115E-1,-9.357377052E0,2.163411379E-1,9.369740228E0
3.473586268E0,-4.014799595E-1,-9.123266220E0,1.792807579E-1,9.133855389E0
3.481798115E0,-4.792256355E-1,-8.901456833E0,1.805506945E-1,8.916175722E0
3.490010499E0,-5.806362629E-1,-8.612730026E0,1.586151123E-2,8.632294513E0
3.498224268E0,-6.631336212E-1,-8.168590546E0,-2.771686316E-1,8.200148788E0
3.506437153E0,-8.312516212E-1,-7.492135048E0,-5.392620564E-1,7.557371924E0
3.514649884E0,-9.507945776E-1,-6.510551453E0,-5.709098577E-1,6.604334078E0
3.522862768E0,-9.625293016E-1,-5.108199120E0,-5.120234489E-1,5.223248885E0
3.531075076E0,-7.898383141E-1,-3.450279236E0,-5.778944492E-1,3.586395595E0
3.539288691E0,-2.562339306E-1,-1.266271114E0,-1.035740137E0,1.655855064E0
3.547504768E0,7.608997822E-1,1.174295425E0,-1.751766443E0,2.242013358E0
3.555717114E0,2.017137527E0,4.096021652E0,-2.446356058E0,5.179854742E0
3.563928614E0,3.572537661E0,7.095461845E0,-2.904531002E0,8.458422103E0
3.572139422E0,5.161495209E0,9.969302177E0,-2.631233931E0,1.153045579E1
3.580351230E0,6.396624565E0,1.175774956E1,-1.740946293E0,1.349786555E1
3.588562806E0,6.804504395E0,1.202079010E1,-6.295778751E-1,1.382740189E1
3.596775806E0,6.480422020E0,1.139953518E1,1.630263329E-1,1.311380377E1
3.604988306E0,5.421420574E0,1.026928043E1,5.683588982E-1,1.162639039E1
3.613200922E0,4.105919361E0,9.581084251E0,2.255685329E-1,1.042624719E1
3.621413960E0,2.628512859E0,9.742628098E0,-4.767360687E-1,1.010223537E1
3.629628691E0,1.735426188E0,1.098053551E1,-1.821978807E0,1.126514407E1
3.637839922E0,1.871887684E0,1.256640625E1,-3.207181692E0,1.310360805E1
3.646049691E0,2.313540936E0,1.407325077E1,-3.325465679E0,1.464471170E1
3.654259729E0,2.278251410E0,1.528140354E1,-2.005287886E0,1.557988778E1
3.662471114E0,1.836581469E0,1.530757713E1,-5.449144840E-1,1.542698548E1
3.670681960E0,6.466991901E-1,1.371816635E1,8.912482262E-1,1.376229019E1
3.678892306E0,-9.462933540E-1,1.091334057E1,1.683871508E0,1.108295523E1
3.687102921E0,-1.697263479E0,7.740184784E0,1.192248344E0,8.013277727E0
3.695313883E0,-1.318055868E0,4.940297127E0,-6.610631943E-3,5.113105776E0
3.703524460E0,1.506798267E-1,2.660194397E0,-9.727880955E-1,2.836486439E0
3.711738498E0,1.917881727E0,8.918771744E-1,-1.125666499E0,2.396005067E0
3.719952960E0,3.150368452E0,-4.035644531E-1,-5.260831118E-1,3.219386447E0
3.728162921E0,3.455831528E0,-1.132775307E0,4.582934380E-1,3.665512832E0
3.736373883E0,3.101196051E0,-1.582553387E0,1.719554543E0,3.883137906E0
3.744585190E0,2.208744526E0,-1.877726078E0,2.827042103E0,4.049268410E0
3.752797806E0,7.806675434E-1,-2.199441433E0,3.603502274E0,4.293275331E0
3.761009537E0,-8.784196377E-1,-2.681151390E0,3.829803228E0,4.756846288E0
3.769220344E0,-2.515285492E0,-3.318597317E0,3.493500948E0,5.435466689E0
3.777431075E0,-3.551109076E0,-3.923227787E0,2.706552505E0,5.943695685E0
3.785641113E0,-3.816246033E0,-4.525572777E0,1.702192545E0,6.159707964E0
3.793854921E0,-3.503174305E0,-4.969876766E0,1.106270671E0,6.180270227E0
3.802065344E0,-2.801858425E0,-5.521255493E0,8.420739174E-1,6.248500727E0
3.810275383E0,-2.066187382E0,-5.910512447E0,1.023954868E0,6.344428363E0
3.818486075E0,-1.525064945E0,-6.040718555E0,1.484827995E0,6.404749638E0
3.826696267E0,-1.224517822E0,-5.951388359E0,1.841082573E0,6.348862287E0
3.834908113E0,-1.124398708E0,-5.631807327E0,1.789341688E0,6.015253104E0
3.843119229E0,-1.176445007E0,-5.162218094E0,1.355122447E0,5.465242479E0
3.851330805E0,-1.374012232E0,-4.513128757E0,7.252073288E-1,4.773066778E0
3.859543075E0,-1.514933109E0,-3.715905666E0,2.566538453E-1,4.021050664E0
3.867756152E0,-1.465065718E0,-2.724700928E0,-2.359973788E-1,3.102596891E0
3.875971690E0,-1.255050421E0,-1.501161098E0,-5.346058607E-1,2.028408151E0
3.884184536E0,-7.899882793E-1,2.098083496E-5,-6.462886930E-1,1.020671620E0
3.892396844E0,-1.572251320E-2,1.583725929E0,-4.779496193E-1,1.654349073E0
3.900608421E0,7.967889309E-1,3.009694099E0,-3.264087439E-1,3.130443074E0
3.908820305E0,1.691579342E0,4.059160233E0,-1.274479628E-1,4.399371029E0
3.917031921E0,2.428291082E0,4.681731224E0,1.789511442E-1,5.277047313E0
3.925244651E0,2.784096479E0,4.937206268E0,4.841058254E-1,5.688721947E0
3.933456959E0,2.906460285E0,4.858147621E0,8.490304947E-1,5.724505435E0
3.941668228E0,2.778110027E0,4.433576584E0,9.536045790E-1,5.318257077E0
3.949880036E0,2.313187838E0,3.791736603E0,8.629169464E-1,4.524680110E0
3.958094036E0,1.705393314E0,2.959766388E0,5.547586679E-1,3.460684991E0
3.966309267E0,1.095517874E0,2.034540176E0,1.132925749E-1,2.313514285E0
3.974521613E0,3.417179585E-1,1.409018517E0,-2.227139473E-1,1.466869403E0
3.982732343E0,-1.672315598E-1,9.239883423E-1,-4.618065357E-1,1.046415848E0
3.990943228E0,-4.838879108E-1,5.812692642E-1,-5.611312389E-1,9.417482334E-1
3.999155728E0,-7.320346832E-1,2.815437317E-1,-5.728139877E-1,9.712144536E-1
4.007367228E0,-8.847861290E-1,-1.810169220E-2,-4.841618538E-1,1.008755107E0
4.015578805E0,-1.041235924E0,-3.316516876E-1,-3.268014193E-1,1.140598202E0
4.023790997E0,-1.165393591E0,-6.212921143E-1,-1.558153629E-1,1.329821244E0
4.032001882E0,-1.289283276E0,-8.514890671E-1,-6.381511688E-3,1.545097317E0
4.040215766E0,-1.237761974E0,-1.053233624E0,3.071272373E-2,1.625515008E0
4.048425766E0,-9.142560959E-1,-1.368323803E0,-5.104374886E-2,1.646444564E0
4.056636535E0,-5.637550354E-1,-1.656815052E0,-1.598705053E-1,1.757388527E0
4.064847574E0,-2.203881741E-1,-1.947026253E0,-2.340523005E-1,1.973388623E0
4.073058112E0,-1.455307007E-3,-2.243402958E0,-2.231832147E-1,2.254477699E0
4.081267612E0,4.832363129E-2,-2.554549694E0,-1.739404202E-1,2.560920651E0
4.089478689E0,-2.440507412E-1,-2.789245129E0,-1.222186089E-1,2.802567848E0
4.097689112E0,-8.326408863E-1,-2.889589787E0,-1.595110893E-1,3.011389010E0
4.105899228E0,-1.304915190E0,-2.882306099E0,-3.898578882E-1,3.187864689E0
4.114109420E0,-1.517947674E0,-2.850927353E0,-5.106191039E-1,3.269966939E0
4.122323535E0,-1.554517984E0,-2.831982136E0,-5.583640933E-1,3.278478220E0
4.130534227E0,-1.450771570E0,-2.815592289E0,-4.548563361E-1,3.199873806E0
4.138745804E0,-1.205215693E0,-2.770689964E0,-2.197724581E-1,3.029450062E0
4.146955497E0,-8.637733459E-1,-2.664529800E0,1.307818890E-1,2.804091181E0
4.155166650E0,-4.348058701E-1,-2.644239902E0,4.626107216E-1,2.719387704E0
4.163377843E0,-2.088348866E-1,-2.680348396E0,7.557661533E-1,2.792680077E0
4.171588112E0,-5.252790451E-2,-2.796955109E0,9.503622055E-1,2.954472099E0
4.179800227E0,1.091072559E-1,-3.010091305E0,9.262148142E-1,3.151258152E0
4.188011689E0,7.625794411E-2,-3.262920856E0,7.927004099E-1,3.358696433E0
4.196224112E0,-2.303709984E-1,-3.502742767E0,5.949864388E-1,3.560377305E0
4.204438689E0,-4.183807373E-1,-3.585715771E0,4.158368111E-1,3.633912531E0
4.212653381E0,-7.388632298E-1,-3.523182392E0,4.545388222E-1,3.628407169E0
4.220865227E0,-1.048976898E0,-3.304898262E0,7.069654465E-1,3.538715190E0
4.229076227E0,-1.301750660E0,-2.975486755E0,9.839358330E-1,3.393553585E0
4.237286842E0,-1.464177608E0,-2.371533394E0,1.235708833E0,3.048764180E0
4.245497881E0,-1.355260611E0,-1.269366264E0,1.356579185E0,2.299636736E0
4.253710073E0,-9.877028465E-1,-1.584453583E-1,1.334773421E0,1.668017365E0
4.261922227E0,-4.002337456E-1,1.224718094E0,1.276554942E0,1.813756869E0
4.270134381E0,3.531823158E-1,2.929178238E0,1.240242004E0,3.200472329E0
4.278346996E0,1.454673767E0,4.941044807E0,1.163776159E0,5.280565737E0
4.286562111E0,2.593750238E0,7.228175163E0,1.087008953E0,7.756007024E0
4.294772919E0,3.769546986E0,9.610660553E0,9.623363018E-1,1.036823861E1
4.302984111E0,5.095249176E0,1.194706917E1,1.123587132E0,1.303673555E1
4.311193919E0,6.065999985E0,1.366901779E1,1.351889849E0,1.501552561E1
4.319403534E0,6.303568840E0,1.453948402E1,1.624112129E0,1.593013861E1
4.327613034E0,6.447956562E0,1.517264652E1,1.813540459E0,1.658536329E1
4.335823381E0,6.760023117E0,1.551324749E1,1.557100296E0,1.699362591E1
4.344034227E0,6.532716274E0,1.572357941E1,1.319648266E0,1.707772827E1
4.352246304E0,6.006273746E0,1.595830250E1,1.319144011E0,1.710213097E1
4.360457111E0,5.390438557E0,1.594694424E1,1.331110954E0,1.688590284E1
4.368671688E0,4.721548557E0,1.559301472E1,1.449524403E0,1.635653538E1
4.376882188E0,3.567432880E0,1.483801174E1,1.302742004E0,1.531634116E1
4.385092457E0,2.141561985E0,1.377185059E1,1.049062014E0,1.397679103E1
4.393301611E0,3.277606964E-1,1.244882870E1,4.916396141E-1,1.246284368E1
4.401511073E0,-1.071801662E0,1.096207523E1,-1.567811966E-1,1.101546334E1
4.409720534E0,-1.735695839E0,9.301999092E0,-5.057998896E-1,9.476057233E0
4.417932188E0,-1.678638697E0,7.974149704E0,-4.306397438E-1,8.160290556E0
4.426142188E0,-1.119379044E0,6.890077591E0,1.198428869E-1,6.981442614E0
4.434353496E0,-1.979820728E-1,5.640527725E0,8.648020029E-1,5.709871489E0
4.442564034E0,1.015364170E0,3.368968964E0,1.701929808E0,3.908641880E0
4.450777957E0,1.686615229E0,8.589639664E-1,2.298831463E0,2.977770327E0
4.458990957E0,1.653957605E0,-1.964415550E0,2.819975853E0,3.814022552E0
4.467200303E0,1.439331770E0,-4.743649006E0,2.868549824E0,5.727343182E0
4.475410149E0,1.051263571E0,-7.192398548E0,2.757530928E0,7.774299247E0
4.483619572E0,3.803710938E-1,-9.043973923E0,2.920264959E0,9.511366564E0
4.491830188E0,-7.030494213E-1,-1.027343178E1,3.542145252E0,1.088964976E1
4.500041111E0,-1.726086140E0,-1.113521385E1,4.444880486E0,1.211318800E1
4.508252841E0,-2.758813381E0,-1.167993164E1,5.499425888E0,1.320134612E1
4.516464880E0,-3.522182465E0,-1.189487076E1,6.569047928E0,1.403731136E1
4.524674341E0,-4.542191505E0,-1.210738659E1,7.559863567E0,1.497904706E1
4.532888687E0,-4.454291344E0,-1.223824883E1,7.989777565E0,1.527913581E1
4.541098649E0,-4.272472382E0,-1.282711124E1,8.996755600E0,1.623977877E1
4.549308418E0,-4.699571133E0,-1.307735825E1,9.405726433E0,1.678007620E1
4.557519918E0,-4.931302547E0,-1.335478210E1,9.328154564E0,1.702005927E1
4.565731649E0,-5.099874020E0,-1.334508610E1,8.413215637E0,1.657957283E1
4.573942572E0,-5.032234669E0,-1.329843330E1,7.132164001E0,1.590721463E1
4.582155572E0,-4.965982914E0,-1.316900444E1,6.203955650E0,1.538092097E1
4.590365456E0,-4.824688911E0,-1.292553139E1,5.397948265E0,1.481502043E1
4.598576226E0,-4.593034267E0,-1.250786972E1,4.849466801E0,1.417956618E1
4.606788264E0,-4.238614082E0,-1.204874611E1,4.387813568E0,1.350522270E1
4.615002841E0,-3.578458309E0,-1.163553524E1,3.968289375E0,1.280384180E1
4.623213687E0,-3.037468672E0,-1.115386391E1,3.535671234E0,1.208866689E1
4.631424918E0,-3.194413185E0,-1.013434982E1,3.468156338E0,1.117754134E1
4.639636918E0,-3.334486485E0,-8.825430870E0,3.651516438E0,1.011635322E1
4.647848725E0,-2.940691948E0,-8.100364685E0,3.729717731E0,9.390120953E0
4.656061110E0,-2.035266161E0,-7.574385643E0,3.631393909E0,8.642953658E0
4.664271418E0,-1.243181944E0,-7.104028702E0,3.211438894E0,7.894685865E0
4.672483072E0,-1.061725378E0,-6.572027206E0,2.586652756E0,7.142098771E0
4.680695418E0,-1.245870829E0,-5.836311340E0,1.949708104E0,6.278223146E0
4.688906148E0,-1.389706850E0,-4.762261391E0,1.179671526E0,5.099219900E0
4.697120687E0,-1.303549290E0,-3.626896381E0,-2.084136009E-3,3.854039758E0
4.705334610E0,-1.204574585E0,-2.285655022E0,-1.481321573E0,2.978176021E0
4.713547033E0,-7.499904633E-1,-6.006650925E-1,-2.949880123E0,3.102430819E0
4.721758379E0,6.550645828E-1,1.718145370E0,-4.644137383E0,4.994911926E0
4.729970264E0,2.838845730E0,4.707224846E0,-5.641856194E0,7.877026859E0
4.738182764E0,4.935915947E0,7.874281883E0,-5.740127087E0,1.092321566E1
4.746394687E0,6.038048267E0,1.063029861E1,-4.516806126E0,1.303314287E1
4.754606494E0,5.824353695E0,1.206984138E1,-2.404991627E0,1.361573177E1
4.762818687E0,4.334419250E0,1.281086731E1,-2.617746592E-2,1.352428175E1
4.771031187E0,2.998196363E0,1.251054859E1,9.861863852E-1,1.290254126E1
4.779247417E0,2.619676590E0,1.179719925E1,6.588243246E-1,1.210250656E1
4.787458994E0,2.541522980E0,1.126830292E1,-7.301231623E-1,1.157441444E1
4.795670533E0,2.694699526E0,1.124854565E1,-2.823164225E0,1.190636136E1
4.803882725E0,3.398434877E0,1.158286190E1,-4.881226540E0,1.302069207E1
4.812095609E0,4.368624687E0,1.204758835E1,-5.716432571E0,1.403235077E1
4.820309802E0,4.892463207E0,1.281775475E1,-4.788328171E0,1.453131514E1
4.828522225E0,5.060986519E0,1.285663795E1,-2.799739361E0,1.409770423E1
4.836737340E0,4.180072784E0,1.231225777E1,1.951556206E-1,1.300395269E1
4.844951379E0,2.682144165E0,1.137777710E1,2.777907848E0,1.201517711E1
4.853164225E0,1.665590763E0,9.405742645E0,4.813713074E0,1.069644898E1
4.861379840E0,9.674620628E-1,7.147806168E0,5.497390747E0,9.069091513E0
4.869593378E0,8.920521736E-1,4.828259468E0,4.798423767E0,6.865327175E0
4.877807417E0,1.424189568E0,2.619920731E0,3.212626934E0,4.383294694E0
4.886021609E0,2.134171486E0,7.768096924E-1,1.772272110E0,2.880810591E0
4.894235032E0,2.498210907E0,-6.949191093E-1,1.128242016E0,2.827879126E0
4.902448571E0,2.438253880E0,-2.059466839E0,1.113391161E0,3.380255245E0
4.910661186E0,1.982810020E0,-3.043240070E0,1.583022118E0,3.962171719E0
4.918873417E0,1.297778606E0,-3.926280975E0,2.145527601E0,4.658669370E0
4.927085724E0,-7.171964645E-2,-4.607536316E0,2.776201725E0,5.379761205E0
4.935299147E0,-9.607996941E-1,-5.032655716E0,2.619156361E0,5.754193223E0
4.943517109E0,-1.457300663E0,-5.486140251E0,2.723309278E0,6.295861617E0
4.951734494E0,-2.077004671E0,-5.589140892E0,2.140038013E0,6.334998580E0
4.959948109E0,-1.942929268E0,-5.655349731E0,1.270532489E0,6.113281241E0
4.968160032E0,-1.482871771E0,-5.630187988E0,5.066276789E-1,5.844193450E0
4.976373609E0,-1.082810640E0,-5.599586487E0,1.225084066E-1,5.704634608E0
4.984586647E0,-9.527196884E-1,-5.529496193E0,1.210632324E-1,5.612277546E0
4.992800493E0,-1.100653410E0,-5.387985706E0,2.493728399E-1,5.504908238E0
5.001015532E0,-1.331144333E0,-5.105759621E0,3.440825939E-1,5.287638355E0
5.009228647E0,-1.608779192E0,-4.570319653E0,2.950168848E-1,4.854176261E0
5.017441147E0,-2.026124239E0,-3.586883545E0,9.943068027E-2,4.120776560E0
5.025658416E0,-2.299916744E0,-2.162999153E0,-1.304068565E-1,3.159934859E0
5.033873916E0,-1.951358557E0,-8.188457489E-1,-5.755673647E-1,2.193076918E0
5.042088070E0,-1.282416821E0,4.762201309E-1,-9.394553304E-1,1.659504394E0
5.050301916E0,-7.718873024E-1,1.677708626E0,-9.510948658E-1,2.077281320E0
5.058516532E0,-1.414990425E-1,2.959281921E0,-8.152800798E-1,3.072792391E0
5.066729878E0,4.976806641E-1,3.893690109E0,-5.240756273E-1,3.960197466E0
5.074942493E0,8.600878716E-1,4.497700691E0,-2.665824890E-1,4.586952025E0
5.083155224E0,1.058939457E0,4.830190659E0,-5.185258389E-2,4.945177779E0
5.091367608E0,1.217843533E0,4.816013336E0,4.112637043E-2,4.967778045E0
5.099580878E0,1.474737644E0,4.333547592E0,4.890346527E-2,4.577868216E0
5.107797108E0,1.853732347E0,3.510825157E0,5.865013599E-2,3.970599040E0
5.116010685E0,2.030096292E0,2.782145500E0,1.204705238E-1,3.446177257E0
5.124223570E0,1.880246639E0,2.041426659E0,2.626404762E-1,2.787782317E0
5.132437147E0,1.676802397E0,1.221810341E0,2.639665604E-1,2.091450485E0
5.140650070E0,1.427386284E0,4.337730408E-1,1.918201447E-1,1.504122875E0
5.148864070E0,7.928082943E-1,-1.109313965E-1,2.159130573E-1,8.291376331E-1
5.157078031E0,1.118972301E-1,-5.974664688E-1,2.012058496E-1,6.402897511E-1
5.165290300E0,-4.028642178E-1,-1.018470287E0,6.166732311E-2,1.096988679E0
5.173503262E0,-8.375923634E-1,-1.330297470E0,-1.689887047E-1,1.581078590E0
5.181716916E0,-1.070378304E0,-1.627355099E0,-3.605921268E-1,1.980914186E0
5.189932954E0,-1.239143133E0,-1.992950916E0,-5.999233723E-1,2.422238038E0
5.198148531E0,-1.246256113E0,-2.207573891E0,-7.614763975E-1,2.646957326E0
5.206360031E0,-1.192552090E0,-2.261986256E0,-8.139501214E-1,2.683519537E0
5.214573608E0,-1.253080368E0,-2.310768604E0,-8.326486349E-1,2.757383851E0
5.222787108E0,-1.348327160E0,-2.280010223E0,-7.939784527E-1,2.765291039E0
5.230999569E0,-1.372258186E0,-2.235082626E0,-8.394663930E-1,2.753795690E0
5.239213685E0,-1.400887966E0,-2.171414375E0,-8.474877477E-1,2.719515208E0
5.247427416E0,-1.490276098E0,-2.076812267E0,-9.124858379E-1,2.714166990E0
5.255642031E0,-1.543082952E0,-2.063604355E0,-9.686855674E-1,2.752802147E0
5.263855762E0,-1.500942469E0,-2.033288956E0,-9.876326919E-1,2.713394665E0
5.272072146E0,-1.415273190E0,-1.952210903E0,-8.639934659E-1,2.561368837E0
5.280287146E0,-1.346184969E0,-1.942812920E0,-6.308148503E-1,2.446357167E0
5.288499377E0,-1.353044748E0,-1.985840321E0,-3.366085291E-1,2.426437135E0
5.296713800E0,-1.302382469E0,-2.084112644E0,-1.882119179E-1,2.464781803E0
5.304927877E0,-1.175952911E0,-2.232969284E0,-1.661491394E-1,2.529154525E0
5.313142108E0,-1.192278862E0,-2.341291428E0,-6.384515762E-2,2.628164880E0
5.321356608E0,-1.058967352E0,-2.569756031E0,2.705409527E-1,2.792534748E0
5.329571108E0,-7.658591270E-1,-2.879955769E0,5.241805315E-1,3.025797525E0
5.337785954E0,-6.650667191E-1,-3.109781265E0,7.276655436E-1,3.262292201E0
5.345999607E0,-8.054292202E-1,-2.966245651E0,1.017277718E0,3.237620028E0
5.354217069E0,-7.222616673E-1,-2.732769012E0,1.125939131E0,3.042602064E0
5.362430761E0,-5.243337154E-1,-2.341499805E0,1.096486092E0,2.638148770E0
5.370643184E0,-9.851837158E-2,-1.681568623E0,9.166365862E-1,1.917707364E0
5.378857146E0,4.339466095E-1,-8.750743866E-1,5.923358202E-1,1.142333824E0
5.387071492E0,9.205815792E-1,3.992414474E-1,1.812987328E-1,1.019673187E0
5.395284530E0,1.643140793E0,2.129337311E0,-3.532054424E-1,2.712700340E0
5.403499030E0,2.284540176E0,4.438588142E0,-6.154040694E-1,5.029802251E0
5.411712530E0,2.829280615E0,6.918008804E0,-6.061776876E-1,7.498741628E0
5.419926530E0,3.355298758E0,9.223809242E0,-2.760196924E-1,9.819005732E0
5.428139761E0,3.867575407E0,1.142240524E1,7.164764404E-2,1.205962746E1
5.436355184E0,4.311565876E0,1.324004364E1,3.550493717E-1,1.392890577E1
5.444571107E0,4.520823479E0,1.458288574E1,6.653975248E-1,1.528205338E1
5.452783184E0,4.661773682E0,1.538383484E1,8.223718405E-1,1.609567655E1
5.460994607E0,4.970561981E0,1.595786285E1,7.520325184E-1,1.673097206E1
5.469206261E0,5.256512642E0,1.644606400E1,3.405773640E-1,1.726904569E1
5.477418376E0,5.276898384E0,1.681340790E1,-2.542643547E-1,1.762387563E1
5.485630068E0,5.054591179E0,1.667404938E1,-1.005871415E0,1.745235205E1
5.493842530E0,4.745607853E0,1.599066448E1,-1.597014189E0,1.675627043E1
5.502054607E0,4.385184288E0,1.486736202E1,-1.694837928E0,1.559297183E1
5.510266953E0,3.654525280E0,1.331258965E1,-1.129891038E0,1.385125452E1
5.518483645E0,2.862821579E0,1.170048714E1,-3.574801683E-1,1.205093103E1
5.526695799E0,2.025392056E0,9.425990105E0,5.012844801E-1,9.654159133E0
5.534908261E0,1.404309034E0,6.705024719E0,9.605569839E-1,6.917521960E0
5.543118837E0,9.463105202E-1,3.885804176E0,1.196917295E0,4.174636357E0
5.551330068E0,3.540437222E-1,1.321407318E0,1.384868026E0,1.946618531E0
5.559541453E0,-1.679210663E-1,-1.103659153E0,1.453841567E0,1.833007450E0
5.567753876E0,-4.546537399E-1,-3.412937641E0,1.578892112E0,3.787842878E0
5.575966337E0,-7.062861919E-1,-5.419603348E0,1.940585852E0,5.799725345E0
5.584178876E0,-9.421176910E-1,-6.975747108E0,2.458359241E0,7.456015265E0
5.592391260E0,-1.402499437E0,-8.502032280E0,3.248634815E0,9.208973109E0
5.600606645E0,-1.983287096E0,-9.827486038E0,3.979697943E0,1.078660768E1
5.608817414E0,-2.780334473E0,-1.088678551E1,4.731196404E0,1.219166018E1
5.617029299E0,-3.442712545E0,-1.175357437E1,5.304810047E0,1.334690188E1
5.625240222E0,-4.050241947E0,-1.232963943E1,5.698610783E0,1.417387150E1
5.633452183E0,-4.379409313E0,-1.280096626E1,5.729220390E0,1.469244464E1
5.641663491E0,-4.677069187E0,-1.298484325E1,5.557234287E0,1.487830580E1
5.649874260E0,-4.836984158E0,-1.296259689E1,5.220860481E0,1.478792474E1
5.658085683E0,-4.803398609E0,-1.294557190E1,4.331104279E0,1.447131419E1
5.666296299E0,-4.790591240E0,-1.272825050E1,3.400537014E0,1.401862252E1
5.674507683E0,-4.702439785E0,-1.234720421E1,2.471982956E0,1.344161789E1
5.682721875E0,-4.584924698E0,-1.191751862E1,1.700405598E0,1.288177642E1
5.690935529E0,-4.490914345E0,-1.145316029E1,1.099312901E0,1.235118136E1
5.699146337E0,-4.411219597E0,-1.096708965E1,7.160735726E-1,1.184266335E1
5.707356721E0,-4.201182365E0,-1.051636791E1,6.205343008E-1,1.134147213E1
5.715568183E0,-3.878788471E0,-1.020497894E1,7.192711830E-1,1.094092986E1
5.723778029E0,-3.488905430E0,-9.670287132E0,9.352758527E-1,1.032287049E1
5.731988991E0,-3.148808956E0,-9.053699493E0,1.259612083E0,9.668045043E0
5.740199106E0,-2.987226009E0,-8.477416992E0,1.531196475E0,9.117822149E0
5.748409106E0,-2.892822742E0,-8.018367767E0,1.635771036E0,8.679769119E0
5.756620914E0,-2.740505695E0,-7.607234955E0,1.687375546E0,8.260001898E0
5.764837144E0,-2.660531521E0,-7.263707161E0,1.628886461E0,7.905260324E0
5.773049798E0,-2.741761208E0,-6.906563759E0,1.466407537E0,7.574181708E0
5.781261683E0,-2.863043785E0,-6.611069679E0,1.248108387E0,7.311705448E0
5.789472606E0,-2.871889114E0,-6.232552528E0,8.962126970E-1,6.920668703E0
5.797685375E0,-2.676607609E0,-5.561238766E0,2.770684659E-1,6.178055668E0
5.805898106E0,-2.238428593E0,-4.469700813E0,-6.479669809E-1,5.040699270E0
5.814109913E0,-1.404098511E0,-2.955778599E0,-1.649520755E0,3.664565250E0
5.822321259E0,-2.759635448E-1,-1.110249043E0,-2.709390163E0,2.941020889E0
5.830533413E0,9.802069664E-1,1.029290199E0,-3.795169592E0,4.052598702E0
5.838745644E0,2.243576527E0,3.693232536E0,-4.745080471E0,6.417896141E0
5.846959759E0,3.233341217E0,6.303222656E0,-5.240878105E0,8.812032376E0
5.855171336E0,4.036077499E0,9.453837395E0,-5.247585773E0,1.154132226E1
5.863382413E0,4.349468231E0,1.201025105E1,-4.529048443E0,1.355272238E1
5.871594875E0,4.033929825E0,1.329778576E1,-2.939535379E0,1.420368136E1
5.879808182E0,3.155180216E0,1.351510811E1,-9.013316631E-1,1.390775712E1
5.888019490E0,2.524065018E0,1.304014015E1,5.268447399E-1,1.329261918E1
5.896232336E0,2.836907387E0,1.251473331E1,3.410363197E-1,1.283677916E1
5.904444644E0,3.728068829E0,1.223714066E1,-1.350947022E0,1.286355963E1
5.912656759E0,4.498220444E0,1.210663986E1,-2.993719101E0,1.325771737E1
5.920870374E0,4.818799019E0,1.191026306E1,-4.196957588E0,1.351627327E1
5.929084913E0,4.168968201E0,1.177170563E1,-4.333522320E0,1.321865216E1
5.937300567E0,2.738709211E0,1.163054180E1,-3.361227989E0,1.241240848E1
5.945511528E0,1.297463179E0,1.081610966E1,-1.988797188E0,1.107370548E1
5.953723990E0,5.032634735E-1,8.950529099E0,-9.020309448E-1,9.009933690E0
5.961936682E0,8.355689049E-2,6.775280952E0,-1.027292013E-1,6.776574874E0
5.970146913E0,1.122844219E-1,4.877299309E0,2.618082762E-1,4.885611519E0
5.978358451E0,5.920155048E-1,3.284135818E0,2.463803291E-1,3.346152073E0
5.986568720E0,1.137355089E0,1.595376015E0,2.730523348E-1,1.978221121E0
5.994779643E0,1.451488018E0,2.585296631E-1,6.448848248E-1,1.609202129E0
6.002990682E0,1.398565769E0,-7.639760971E-1,1.326413274E0,2.073407307E0
6.011205797E0,1.010342598E0,-1.605961800E0,1.926869392E0,2.704206191E0
6.019416413E0,2.279047966E-1,-2.327900887E0,2.417150021E0,3.363581032E0
6.027626143E0,-4.894361496E-1,-2.986182690E0,2.655453444E0,4.025949303E0
6.035837566E0,-1.003589869E0,-3.480511665E0,2.698986292E0,4.517264779E0
6.044049797E0,-1.161361933E0,-3.801913261E0,2.647707701E0,4.776364942E0
6.052262066E0,-9.516038895E-1,-4.115678787E0,2.565738916E0,4.942406097E0
6.060475720E0,-6.044700146E-1,-4.375310898E0,2.603295565E0,5.126975448E0
6.068687105E0,-1.328601837E-1,-4.704282761E0,2.713399172E0,5.432353375E0
6.076901028E0,3.254492283E-1,-4.817845345E0,2.909783125E0,5.637764521E0
6.085113143E0,5.881061554E-1,-4.755301952E0,2.969958782E0,5.637323893E0
6.093330374E0,4.766256809E-1,-4.463108063E0,2.969552755E0,5.381890856E0
6.101545797E0,2.090508938E-1,-4.195045471E0,2.784810781E0,5.039571397E0
6.109759297E0,-2.247607708E-1,-3.961751938E0,2.572380543E0,4.728967908E0
6.117972566E0,-7.033691406E-1,-3.577515125E0,2.092632294E0,4.203861622E0
6.126185297E0,-1.007370710E0,-3.009871006E0,1.543243766E0,3.529266289E0
6.134398451E0,-1.284313917E0,-2.211783409E0,8.758958578E-1,2.703449952E0
6.142610989E0,-1.428929567E0,-1.208596230E0,2.426979840E-1,1.887179606E0
6.150824758E0,-1.381404161E0,-8.291435242E-2,-2.140876800E-1,1.400352021E0
6.159039258E0,-1.080524683E0,1.144436836E0,-4.987118542E-1,1.651055049E0
6.167253220E0,-4.286000729E-1,2.127064705E0,-5.725167990E-1,2.244076150E0
6.175470566E0,2.665634155E-1,2.864167213E0,-5.590779781E-1,2.930371660E0
6.183689143E0,7.509796619E-1,3.605736732E0,-3.627757132E-1,3.700934214E0
6.191904643E0,1.214836836E0,4.142572403E0,-4.527267814E-2,4.317265832E0
6.200120220E0,1.614591360E0,4.358413696E0,3.427723646E-1,4.660490114E0
6.208334450E0,1.799787521E0,4.241436005E0,7.103389502E-1,4.661930494E0
6.216548796E0,1.605548382E0,3.816540718E0,9.577341676E-1,4.249826278E0
6.224765181E0,1.155151606E0,3.227554321E0,1.079482555E0,3.593990083E0
6.232979373E0,7.407667637E-1,2.340540886E0,6.640293598E-1,2.543187376E0
6.241192796E0,2.873451710E-1,1.582534790E0,2.718664408E-1,1.631224991E0
6.249405642E0,-8.759975433E-3,8.066043854E-1,8.170008659E-2,8.107788082E-1
6.257621873E0,-4.471223354E-1,8.156299591E-2,4.333585501E-2,4.565620456E-1
6.265835873E0,-8.937330246E-1,-4.787645340E-1,1.367284656E-1,1.023068361E0
6.274051335E0,-9.997475147E-1,-1.052268028E0,1.595300436E-1,1.460209893E0
6.282265181E0,-7.802660465E-1,-1.771138668E0,9.792470932E-2,1.937869070E0
6.290480027E0,-6.106541157E-1,-2.317869186E0,1.616810560E-1,2.402406456E0
6.298693835E0,-5.157160759E-1,-2.661784649E0,2.637239695E-1,2.724079830E0
6.306906065E0,-2.902336121E-1,-2.944877625E0,2.749599218E-1,2.971892113E0
6.315118488E0,-5.279421806E-2,-3.161216736E0,2.352361083E-1,3.170396585E0
6.323332488E0,2.175235748E-2,-3.381126404E0,2.366440296E-1,3.389467410E0
6.331546373E0,-3.298354149E-2,-3.578310490E0,2.330487072E-1,3.586043164E0
6.339763142E0,-1.385204792E-1,-3.659217834E0,1.270967424E-1,3.664043759E0
6.347975834E0,-2.866115570E-1,-3.697493076E0,-5.254963040E-2,3.708957090E0
6.356188911E0,-4.673247337E-1,-3.608634472E0,-2.119196951E-1,3.644934172E0
6.364402142E0,-6.366105080E-1,-3.540318489E0,-1.757409275E-1,3.601390400E0
6.372615450E0,-6.140599251E-1,-3.468041897E0,-9.000444412E-2,3.523135676E0
6.380830257E0,-3.668055534E-1,-3.454025269E0,6.186234951E-2,3.473998247E0
6.389044873E0,-1.920166016E-1,-3.465677261E0,3.253455162E-1,3.486206959E0
6.397258950E0,-2.456336021E-1,-3.541873932E0,6.342058778E-1,3.606580640E0
6.405472719E0,-4.667856693E-1,-3.565152645E0,8.547476530E-1,3.695780810E0
6.413686257E0,-6.440870762E-1,-3.698153496E0,1.004899263E0,3.886001797E0
6.421905257E0,-7.975249290E-1,-3.947854042E0,1.046308517E0,4.161292956E0
6.430123257E0,-8.994743824E-1,-4.191837788E0,9.891626239E-1,4.399886464E0
6.438338296E0,-9.686248302E-1,-4.233611584E0,8.013566136E-1,4.416319002E0
6.446551603E0,-9.218893051E-1,-3.993345261E0,4.730432034E-1,4.125585550E0
6.454767411E0,-8.974311352E-1,-3.372363567E0,8.283203840E-2,3.490713368E0
6.462980411E0,-6.521639824E-1,-2.315358639E0,-2.403591871E-1,2.417431700E0
6.471195257E0,-1.713380814E-1,-7.569885254E-1,-6.632100344E-1,1.020899562E0
6.479410142E0,4.742376804E-1,1.306917191E0,-1.132081985E0,1.792914817E0
6.487625757E0,1.096017599E0,3.879046440E0,-1.498093009E0,4.300295167E0
6.495842372E0,2.135822058E0,6.955333710E0,-1.841201544E0,7.505226579E0
6.504062334E0,3.490805626E0,1.051153851E1,-1.989563704E0,1.125328971E1
6.512276718E0,4.624762535E0,1.342498398E1,-2.215855598E0,1.437110432E1
6.520490872E0,5.163829803E0,1.623441696E1,-2.193774462E0,1.717655608E1
6.528704526E0,5.165403366E0,1.820264435E1,-1.123820543E0,1.895469931E1
6.536919834E0,4.959652901E0,1.918011856E1,5.179723501E-1,1.981775467E1
6.545133603E0,5.169217110E0,1.928164291E1,1.659868360E0,2.003141837E1
6.553347949E0,5.613692284E0,1.906749344E1,2.089875221E0,1.998625592E1
6.561562218E0,5.717361450E0,1.896911240E1,1.984066010E0,1.991110155E1
6.569775834E0,5.273868084E0,1.870125961E1,1.084658980E0,1.946091675E1
6.577990372E0,4.187816620E0,1.790575027E1,-2.847460508E-1,1.839116041E1
6.586207064E0,2.949044704E0,1.662292862E1,-1.296848059E0,1.693223067E1
6.594420487E0,1.486331463E0,1.502501011E1,-1.893955112E0,1.521667427E1
6.602634603E0,5.002970695E-1,1.324546146E1,-1.518083096E0,1.334155624E1
6.610847449E0,4.816827774E-1,1.072383976E1,-5.014955401E-1,1.074636009E1
6.619061103E0,1.015112877E0,7.868437767E0,8.302487135E-1,7.976971855E0
6.627273987E0,1.551635981E0,5.226811409E0,1.986154556E0,5.802752937E0
6.635488218E0,2.298634529E0,2.747463226E0,2.413547754E0,4.319431402E0
6.643701910E0,2.868644238E0,5.888309479E-1,2.359544039E0,3.760756535E0
6.651915718E0,2.720010519E0,-1.208457947E0,2.479610443E0,3.873925113E0
6.660130410E0,2.570392847E0,-3.012061596E0,2.754096746E0,4.823326999E0
6.668347718E0,1.933844566E0,-4.966374874E0,3.353050232E0,6.296632438E0
6.676565295E0,3.763499260E-1,-6.804244995E0,4.255171776E0,8.034044813E0
6.684779218E0,-1.782505512E0,-8.688875198E0,4.919088364E0,1.014254941E1
6.692993025E0,-4.002655506E0,-1.023338509E1,5.348166466E0,1.222073263E1
6.701207218E0,-5.430147171E0,-1.142809296E1,5.642841339E0,1.385386103E1
6.709419256E0,-6.020946503E0,-1.224554348E1,5.923515320E0,1.487592571E1
6.717632564E0,-6.051666737E0,-1.255020523E1,6.271971703E0,1.527965807E1
6.725844910E0,-5.536110878E0,-1.277192116E1,6.607270241E0,1.540865061E1
6.734058679E0,-4.975295067E0,-1.283892059E1,6.982098579E0,1.543830119E1
6.742272756E0,-4.612918854E0,-1.261790848E1,7.333024025E0,1.530568117E1
6.750490294E0,-4.415480137E0,-1.239351368E1,7.581488132E0,1.518468335E1
6.758703294E0,-4.216808796E0,-1.230194759E1,7.410532951E0,1.496781179E1
6.766916333E0,-4.020619392E0,-1.222738552E1,6.884105206E0,1.459675448E1
6.775128987E0,-4.125796318E0,-1.199656677E1,6.235296249E0,1.413572527E1
6.783341563E0,-4.194928646E0,-1.174506092E1,5.668497086E0,1.369947961E1
6.791555448E0,-4.063106537E0,-1.157610893E1,5.024667263E0,1.325754177E1
6.799770679E0,-3.786935091E0,-1.126127529E1,4.518095016E0,1.271103383E1
6.807985563E0,-3.698151588E0,-1.081141758E1,4.117500305E0,1.214565289E1
6.816199640E0,-3.537691355E0,-1.017333221E1,3.770191669E0,1.141167357E1
6.824414448E0,-3.095236301E0,-9.588488579E0,3.219595671E0,1.057758939E1
6.832631717E0,-2.678179741E0,-8.976106644E0,2.703811646E0,9.749550483E0
6.840844563E0,-2.616422176E0,-8.240572929E0,2.226031542E0,8.927929415E0
6.849057409E0,-2.715761423E0,-7.584401608E0,1.755781889E0,8.245075979E0
6.857271063E0,-2.842238903E0,-6.779660225E0,1.333494902E0,7.471299981E0
6.865484486E0,-2.807162285E0,-6.149925232E0,8.182259798E-1,6.809642737E0
6.873697986E0,-2.715019226E0,-5.497561932E0,5.680816174E-1,6.157697079E0
6.881912371E0,-2.394621372E0,-4.904111862E0,4.117255211E-1,5.473028648E0
6.890125525E0,-1.847139359E0,-4.416111946E0,1.884903312E-1,4.790563342E0
6.898339602E0,-1.451315165E0,-3.782958508E0,-2.448092699E-1,4.059189864E0
6.906553871E0,-1.083181143E0,-3.128170967E0,-1.018836737E0,3.463634404E0
6.914771140E0,-7.049918175E-1,-2.147747517E0,-1.835976362E0,2.912154196E0
6.922988525E0,3.764023781E-1,-6.285724640E-1,-3.097286224E0,3.182760445E0
6.931200909E0,1.530824184E0,1.348906517E0,-4.271378040E0,4.733671074E0
6.939413563E0,2.160746098E0,3.929723740E0,-4.840641975E0,6.598739812E0
6.947625486E0,2.663930655E0,6.304069519E0,-4.942654610E0,8.442017154E0
6.955838640E0,2.995349646E0,8.274353027E0,-4.722526550E0,9.986956220E0
6.964052986E0,2.927644014E0,9.701130867E0,-4.185835361E0,1.096377021E1
6.972267563E0,2.440596342E0,1.061386967E1,-3.090041876E0,1.132073755E1
6.980481794E0,2.234653711E0,1.105383968E1,-2.322698116E0,1.151416413E1
6.988693601E0,2.599352837E0,1.131307888E1,-2.337875128E0,1.184094798E1
6.996911101E0,3.434925556E0,1.152617264E1,-3.752234459E0,1.259883458E1
7.005124178E0,4.407534122E0,1.137357712E1,-5.497856617E0,1.337950077E1
7.013339024E0,5.364992619E0,1.098550510E1,-6.462802887E0,1.382867634E1
7.021553332E0,5.402920723E0,1.095817184E1,-5.907974243E0,1.357119163E1
7.029767563E0,4.735058784E0,1.111133671E1,-4.284836769E0,1.281570955E1
7.037981447E0,3.638034344E0,1.068392372E1,-1.697858691E0,1.141333624E1
7.046195447E0,3.000202894E0,1.009581089E1,9.350683689E-1,1.057359767E1
7.054407601E0,3.116901159E0,8.853360176E0,2.852349281E0,9.809839737E0
7.062620639E0,3.155390501E0,7.452982903E0,4.576819420E0,9.297887898E0
7.070833332E0,3.136434793E0,5.918259621E0,5.185334206E0,8.470579140E0
7.079050255E0,3.144555569E0,4.431332588E0,4.483365059E0,7.044536925E0
7.087261562E0,3.208618164E0,2.980979919E0,2.967087269E0,5.290092500E0
7.095473485E0,3.302721977E0,1.649127007E0,1.901274204E0,4.152401226E0
7.103686716E0,2.903676987E0,3.970022202E-1,1.532233238E0,3.307066601E0
7.111900024E0,1.642657280E0,-6.948738098E-1,1.609936237E0,2.402720799E0
7.120112985E0,3.231287003E-1,-1.459696770E0,1.703099251E0,2.266202523E0
7.128324716E0,-8.595633507E-1,-2.257138252E0,1.648907185E0,2.924451598E0
7.136535639E0,-1.412270546E0,-2.820096493E0,1.425718904E0,3.461231965E0
7.144746101E0,-1.728430271E0,-3.294613361E0,1.181269050E0,3.903504191E0
7.152957293E0,-1.977705359E0,-3.545769215E0,1.074083447E0,4.199696782E0
7.161173101E0,-1.880010366E0,-3.772365570E0,1.154655695E0,4.370172851E0
7.169388754E0,-1.142900467E0,-4.195707321E0,1.203000307E0,4.511916571E0
7.177602562E0,-6.556155682E-1,-4.476222038E0,1.420014381E0,4.741606938E0
7.185814754E0,-6.305096149E-1,-4.629941463E0,1.686068177E0,4.967567436E0
7.194026447E0,-7.553703785E-1,-4.757520199E0,1.811766505E0,5.146560086E0
7.202239062E0,-8.931553364E-1,-4.657989025E0,1.594572663E0,5.003723633E0
7.210452254E0,-1.015596390E0,-4.247251511E0,1.116745114E0,4.507516065E0
7.218664677E0,-1.160446167E0,-3.684010983E0,5.008274913E-1,3.894791445E0
7.226877908E0,-1.295182705E0,-3.100955009E0,-3.430867195E-2,3.360743563E0
7.235091985E0,-1.251177073E0,-2.304376602E0,-2.901886702E-1,2.638144245E0
7.243308908E0,-8.951807022E-1,-1.304730892E0,-3.246563673E-1,1.615262501E0
7.251520292E0,-4.596049786E-1,-3.293657303E-1,-2.624066472E-1,6.233584596E-1
7.259734254E0,1.139745712E-1,8.701477051E-1,-2.567821741E-2,8.779559228E-1
7.267946946E0,8.239119053E-1,2.054163933E0,2.035111189E-1,2.222574423E0
7.276162023E0,1.574862719E0,2.857521057E0,3.690768480E-1,3.283570754E0
7.284375562E0,1.921832085E0,3.407535553E0,6.332228184E-1,3.963042801E0
7.292588677E0,1.889476776E0,3.601078033E0,9.648425579E-1,4.179570152E0
7.300802446E0,1.776684999E0,3.430678368E0,1.102434754E0,4.017651806E0
7.309015177E0,1.555792093E0,3.054252625E0,1.012387633E0,3.574056078E0
7.317228754E0,1.409144402E0,2.543404579E0,7.903379202E-1,3.013175870E0
7.325445677E0,1.192540884E0,1.804533005E0,5.139403343E-1,2.223202148E0
7.333659523E0,7.271432877E-1,1.079440117E0,3.169481754E-1,1.339546368E0
7.341873715E0,1.655862331E-1,4.247188568E-1,2.767053843E-1,5.332642662E-1
7.350086715E0,-3.286776543E-1,-3.022022247E-1,2.429753542E-1,5.083229365E-1
7.358300638E0,-7.695143223E-1,-9.522905350E-1,6.782090664E-2,1.226217448E0
7.366513754E0,-1.274443150E0,-1.416956425E0,-3.026151657E-2,1.906013277E0
7.374728715E0,-1.709154129E0,-1.793777943E0,-1.318256855E-1,2.481174149E0
7.382941330E0,-1.933764100E0,-1.984187603E0,-1.751728058E-1,2.776171744E0
7.391154369E0,-1.886345625E0,-2.213045597E0,-2.926042080E-1,2.922582395E0
7.399368330E0,-1.709755659E0,-2.505335331E0,-3.596961498E-1,3.054398608E0
7.407585484E0,-1.666363478E0,-2.673045158E0,-3.240238428E-1,3.166532664E0
7.415800369E0,-1.680445433E0,-2.714564323E0,-2.065436840E-1,3.199283765E0
7.424011946E0,-1.548774958E0,-2.807384491E0,-2.462128401E-1,3.215700905E0
7.432223061E0,-1.473525286E0,-2.861116409E0,-3.303140402E-1,3.235177157E0
7.440435138E0,-1.587069988E0,-2.834907532E0,-3.738783598E-1,3.270363418E0
7.448646022E0,-1.700563431E0,-2.809263229E0,-4.299554229E-1,3.311908444E0
7.456858599E0,-1.660631418E0,-2.764164448E0,-4.187580347E-1,3.251716484E0
7.465070369E0,-1.559972048E0,-2.673016548E0,-4.903568625E-1,3.133525189E0
7.473283715E0,-1.449212074E0,-2.569155693E0,-5.325168371E-1,2.997390664E0
7.481495253E0,-1.326868296E0,-2.399694920E0,-5.035379529E-1,2.787950080E0
7.489711099E0,-1.212677240E0,-2.442451000E0,-2.242934704E-1,2.736139715E0
7.497924176E0,-1.056312084E0,-2.729311466E0,1.469112635E-1,2.930276304E0
7.506136715E0,-9.135007858E-1,-3.070118904E0,3.649544716E-1,3.223865000E0
7.514350830E0,-1.009290457E0,-3.166687489E0,3.394999504E-1,3.340933566E0
7.522565215E0,-1.116610289E0,-3.078374863E0,2.580991983E-1,3.284786984E0
7.530778176E0,-1.156249762E0,-2.823729992E0,1.025717258E-1,3.053012535E0
7.538992945E0,-1.099101543E0,-2.380667686E0,-9.077548981E-3,2.622152787E0
7.547205984E0,-1.054862499E0,-1.585213184E0,-7.172727585E-2,1.905460714E0
7.555418984E0,-9.694476128E-1,-6.760387421E-1,-1.026957035E-1,1.186340365E0
7.563631791E0,-7.934508324E-1,5.660514832E-1,-9.276187420E-2,9.790726583E-1
7.571847214E0,-3.708109856E-1,2.120867729E0,1.842296124E-2,2.153118696E0
7.580060407E0,6.287531853E-1,3.531511307E0,8.743047714E-3,3.587057167E0
7.588272253E0,1.494592190E0,5.408972740E0,1.294956207E-1,5.613159630E0
7.596485137E0,2.372962713E0,7.368789673E0,4.906947613E-1,7.756983604E0
7.604696753E0,3.342500925E0,8.983625412E0,8.729178905E-1,9.624958370E0
7.612909599E0,4.174834251E0,1.019777107E1,1.000173926E0,1.106454354E1
7.621121868E0,4.838757992E0,1.109772682E1,1.000177622E0,1.214798233E1
7.629335099E0,5.377269745E0,1.178188705E1,8.843331337E-1,1.298113776E1
7.637549637E0,6.002016544E0,1.264771366E1,4.604374170E-1,1.400717195E1
7.645762214E0,6.411890030E0,1.374307346E1,-8.794450760E-2,1.516549162E1
7.653980637E0,6.478317738E0,1.506516933E1,-4.488776922E-1,1.640516440E1
7.662197829E0,6.238456249E0,1.582771969E1,-6.469953060E-1,1.702508883E1
7.670411022E0,5.487645149E0,1.596084118E1,-5.381293297E-1,1.688645266E1
7.678625406E0,4.239725113E0,1.571827793E1,-3.333125114E-1,1.628344642E1
7.686839291E0,3.041388988E0,1.506422615E1,-2.615380287E-1,1.537040529E1
7.695052560E0,2.044544935E0,1.381623173E1,-3.190486431E-1,1.397033340E1
7.703266637E0,1.030175686E0,1.220565891E1,-1.472663879E-1,1.224994118E1
7.711479791E0,2.484142780E-1,1.037286472E1,2.646107674E-1,1.037921245E1
7.719693252E0,3.357386589E-2,8.492363930E0,6.656706333E-1,8.518479307E0
7.727905983E0,7.628631592E-2,6.228890419E0,1.220720291E0,6.347838489E0
7.736123521E0,5.711085796E-1,3.731745720E0,1.292898655E0,3.990448353E0
7.744338060E0,1.229264021E0,1.307743073E0,1.220187664E0,2.170285675E0
7.752552752E0,1.687854052E0,-8.940744400E-1,1.294340849E0,2.307279488E0
7.760768021E0,1.881353378E0,-3.035874367E0,1.567348480E0,3.900333955E0
7.768981291E0,1.732851982E0,-4.972856045E0,1.884604454E0,5.593192933E0
7.777195444E0,1.326428175E0,-6.661062241E0,2.200680733E0,7.139478802E0
7.785408175E0,7.496109009E-1,-7.794305801E0,2.467178822E0,8.209755829E0
7.793619252E0,2.083849907E-1,-8.908369064E0,2.834121227E0,9.350652748E0
7.801831290E0,-3.191108704E-1,-9.893854141E0,3.117429733E0,1.037827296E1
7.810043521E0,-1.135830402E0,-1.065772915E1,3.646231651E0,1.132132088E1
7.818260752E0,-2.368255854E0,-1.110947609E1,4.146585464E0,1.209228125E1
7.826475406E0,-3.664282799E0,-1.137753582E1,4.255467415E0,1.268795857E1
7.834689406E0,-4.922189713E0,-1.151561260E1,3.898885250E0,1.311634825E1
7.842903136E0,-5.713561058E0,-1.146432495E1,3.072998285E0,1.317265520E1
7.851116367E0,-6.023844719E0,-1.145819092E1,2.360229969E0,1.315855348E1
7.859330521E0,-6.036543846E0,-1.150092316E1,1.441999793E0,1.306868235E1
7.867543598E0,-5.835691452E0,-1.144690800E1,6.755862832E-1,1.286636756E1
7.875756752E0,-5.033769608E0,-1.163356209E1,9.801175445E-2,1.267628532E1
7.883968405E0,-4.000909805E0,-1.180828094E1,8.259297907E-2,1.246794288E1
7.892181521E0,-3.184368849E0,-1.179523754E1,4.849393964E-1,1.222714193E1
7.900395482E0,-2.745476246E0,-1.159258556E1,9.624474645E-1,1.195207032E1
7.908610905E0,-2.569063663E0,-1.122544384E1,1.261675358E0,1.158458036E1
7.916824482E0,-2.620350361E0,-1.083553123E1,1.342083812E0,1.122836418E1
7.925036828E0,-2.994781017E0,-1.030458260E1,1.289640903E0,1.080815939E1
7.933249982E0,-3.632957935E0,-9.647061348E0,1.109141946E0,1.036794926E1
7.941463828E0,-3.964933634E0,-9.039566040E0,6.951298118E-1,9.895335182E0
7.949676405E0,-3.993216038E0,-8.580645561E0,2.019770443E-1,9.466469632E0
7.957889136E0,-3.915979147E0,-8.142627716E0,-1.639754623E-1,9.036822824E0
7.966101136E0,-3.795747995E0,-7.583136559E0,-2.856139541E-1,8.484882924E0
7.974314059E0,-3.358089924E0,-7.057366848E0,-2.533084750E-1,7.819677739E0
7.982531290E0,-2.799018145E0,-6.503163338E0,-1.715054214E-1,7.082023022E0
7.990744751E0,-2.018770695E0,-5.763084412E0,-4.395820200E-2,6.106595564E0
7.998958097E0,-1.309344769E0,-4.820002556E0,-2.571560740E-1,5.001293593E0
8.007170251E0,-6.718530655E-1,-3.590445995E0,-8.308084011E-1,3.746055470E0
8.015383943E0,-7.164764404E-2,-2.025240421E0,-1.552711725E0,2.552968047E0
8.023597828E0,4.776554108E-1,-8.220100403E-2,-2.230823040E0,2.282867305E0
8.031811636E0,1.305377722E0,2.324427605E0,-2.877612591E0,3.922706834E0
8.040023866E0,2.233462095E0,5.188358307E0,-3.380562305E0,6.582979292E0
8.048236443E0,3.160398960E0,7.892722130E0,-3.658365250E0,9.255637228E0
8.056448289E0,3.726375103E0,1.053112125E1,-3.639181376E0,1.174878834E1
8.064663212E0,3.687691927E0,1.210569191E1,-3.005292892E0,1.300686871E1
8.072875097E0,3.300367832E0,1.285994816E1,-1.647726536E0,1.337855363E1
8.081088828E0,3.035161734E0,1.296756458E1,-1.128985882E-1,1.331850908E1
8.089300751E0,3.362943888E0,1.285556793E1,7.754081488E-1,1.331075791E1
8.097512712E0,4.323297501E0,1.301551628E1,2.581546307E-1,1.371718663E1
8.105723712E0,5.506401062E0,1.355009365E1,-1.576963425E0,1.471095864E1
8.113934020E0,6.298927307E0,1.384177303E1,-3.499969482E0,1.560515787E1
8.122144981E0,6.509796143E0,1.375180817E1,-5.085934639E0,1.604233165E1
8.130356328E0,6.122209549E0,1.339591217E1,-5.311709404E0,1.565714436E1
8.138567828E0,4.718121052E0,1.270597744E1,-3.719406605E0,1.405476839E1
8.146782443E0,2.778315067E0,1.119754887E1,-1.196380496E0,1.159894226E1
8.154997135E0,1.027458191E0,9.086002350E0,9.058353901E-1,9.188669479E0
8.163209404E0,2.091338634E-1,6.858840942E0,1.797277212E0,7.093492893E0
8.171422212E0,7.479319572E-1,4.578616142E0,1.628900290E0,4.916954763E0
8.179635827E0,1.711017132E0,2.692391396E0,1.482721806E0,3.517813953E0
8.187848366E0,2.290140867E0,6.858472824E-1,1.607151747E0,2.880636809E0
8.196062597E0,2.657000542E0,-1.042012215E0,2.042708874E0,3.509715213E0
8.204274173E0,2.569660425E0,-2.480595589E0,2.681038618E0,4.465924008E0
8.212485943E0,2.057974339E0,-3.612563610E0,3.419292450E0,5.383069299E0
8.220697173E0,1.130518913E0,-4.570603848E0,4.072823048E0,6.225462242E0
8.228910866E0,-1.305890083E-2,-5.349180222E0,4.523269653E0,7.005274294E0
8.237122481E0,-1.154471397E0,-6.122458458E0,4.531594753E0,7.704067288E0
8.245334750E0,-2.171648502E0,-6.540716648E0,4.252034664E0,8.097952227E0
8.253547827E0,-2.547909260E0,-6.940149307E0,3.541773796E0,8.197662815E0
8.261760442E0,-2.367121458E0,-7.384572983E0,2.194925308E0,8.059334913E0
8.269972904E0,-2.249600410E0,-7.384801865E0,1.111524343E0,7.799454273E0
8.278185596E0,-2.260494232E0,-6.927127838E0,6.783605218E-1,7.318135504E0
8.286399173E0,-2.178650379E0,-6.321473122E0,6.390004158E-1,6.716834182E0
8.294612481E0,-2.058625937E0,-5.790229321E0,8.251472712E-1,6.200448722E0
8.302826096E0,-2.059822321E0,-5.029934883E0,9.196833372E-1,5.512615565E0
8.311042288E0,-1.893063545E0,-4.014151573E0,8.566792011E-1,4.520066558E0
8.319255558E0,-1.843139648E0,-2.733181953E0,6.758531332E-1,3.365148557E0
8.327468711E0,-1.860018253E0,-1.126890182E0,4.568663239E-1,2.222223262E0
8.335681865E0,-1.767757893E0,2.024402618E-1,2.132357359E-1,1.792043388E0
8.343893865E0,-1.427693844E0,1.231310844E0,-8.933484554E-3,1.885342387E0
8.352107211E0,-1.073331594E0,2.129365921E0,-1.136452556E-1,2.387290343E0
8.360321173E0,-7.445254326E-1,2.910920143E0,-2.249163389E-1,3.013031955E0
8.368533981E0,-4.446902275E-1,3.589324951E0,-3.719123006E-1,3.635838523E0
8.376747404E0,-8.273696899E-2,4.095498085E0,-5.989317298E-1,4.139887581E0
8.384960634E0,3.107347488E-1,4.272854805E0,-7.727211714E-1,4.353268000E0
8.393178057E0,6.383171082E-1,4.223340988E0,-7.508177757E-1,4.336794342E0
8.401394519E0,7.403063774E-1,3.969065666E0,-5.824649930E-1,4.079313823E0
8.409605596E0,7.131237984E-1,3.544518471E0,-3.521522284E-1,3.632653016E0
8.417818826E0,7.340712547E-1,2.930922508E0,-2.457215786E-1,3.031426471E0
8.426030788E0,7.489557266E-1,2.159588814E0,-3.443318605E-1,2.311562882E0
8.434242442E0,6.590552330E-1,1.372114182E0,-5.729655027E-1,1.626450305E0
8.442455057E0,5.045351982E-1,5.477256775E-1,-8.590992689E-1,1.136930402E0
8.450667173E0,3.633451462E-2,-1.009263992E-1,-9.010241628E-1,9.073868397E-1
8.458879942E0,-4.943583012E-1,-7.440929413E-1,-8.663070202E-1,1.244408409E0
8.467093249E0,-7.403941154E-1,-1.271275043E0,-7.831031084E-1,1.666605580E0
8.475310096E0,-7.354173660E-1,-1.749666691E0,-6.124676466E-1,1.994314130E0
8.483523788E0,-4.684917927E-1,-2.321602345E0,-5.370525122E-1,2.428527827E0
8.491735903E0,-3.312053680E-1,-2.787684917E0,-4.060980082E-1,2.836511905E0
8.499948711E0,-3.523824215E-1,-3.049339294E0,-2.375447750E-1,3.078810001E0
8.508161903E0,-3.877632618E-1,-3.228006363E0,-1.401274204E-1,3.254231264E0
8.516376480E0,-4.343516827E-1,-3.348169804E0,-1.532157660E-1,3.379700799E0
8.524590172E0,-5.708875656E-1,-3.385590553E0,-2.280641794E-1,3.440951798E0
8.532804518E0,-7.771210670E-1,-3.312298775E0,-2.486521006E-1,3.411314731E0
8.541018864E0,-9.124619961E-1,-3.275161266E0,-1.814590693E-1,3.404731356E0
8.549232980E0,-9.676678181E-1,-3.358662128E0,-7.101225853E-2,3.496002723E0
8.557451903E0,-1.099119663E0,-3.368363857E0,8.423662186E-2,3.544155036E0
8.565666249E0,-1.095932961E0,-3.446715832E0,2.039103508E-1,3.622498932E0
8.573881018E0,-8.236770630E-1,-3.582255840E0,2.750515938E-2,3.675834238E0
8.582094826E0,-5.438506603E-1,-3.615091324E0,-1.810157299E-1,3.660249379E0
8.590308595E0,-3.512361050E-1,-3.503254890E0,-2.774658203E-1,3.531734547E0
8.598520364E0,-2.041621208E-1,-3.314951420E0,-2.299253941E-1,3.329181697E0
8.606731710E0,-9.063053131E-2,-2.957670212E0,-2.744579315E-2,2.959185740E0
8.614943710E0,-1.492333412E-1,-2.516388893E0,8.305239677E-2,2.522177899E0
8.623156172E0,-2.586052418E-1,-1.806020260E0,8.325982094E-2,1.826340069E0
8.631367287E0,-2.092022896E-1,-8.065381050E-1,-8.321619034E-2,8.373734216E-1
8.639582556E0,1.327610016E-2,5.813074112E-1,-3.174824715E-1,6.624874948E-1
8.647798133E0,2.435197830E-1,2.055190086E0,-4.009350538E-1,2.108045800E0
8.656010518E0,7.394390106E-1,3.937329292E0,-3.566548824E-1,4.022006304E0
8.664224210E0,1.447227478E0,5.615358353E0,-3.182616234E-1,5.807581877E0
8.672435633E0,2.199378490E0,7.195644379E0,-1.835389137E-1,7.526503192E0
8.680647402E0,2.826267242E0,8.679735184E0,-1.052994728E-1,9.128892450E0
8.688859518E0,3.339078426E0,1.000100994E1,4.881858826E-3,1.054370278E1
8.697070672E0,3.900011539E0,1.122645473E1,6.093096733E-2,1.188474184E1
8.705282402E0,4.602290630E0,1.217905140E1,6.149744987E-2,1.301976013E1
8.713495210E0,5.159835339E0,1.287449646E1,2.439508438E-1,1.387213292E1
8.721711710E0,5.366742134E0,1.367889214E1,8.180472851E-1,1.471676638E1
8.729925056E0,5.479986191E0,1.431371117E1,1.233503103E0,1.537641395E1
8.738138671E0,5.294644833E0,1.475450039E1,1.294211149E0,1.572906635E1
8.746351671E0,4.864962578E0,1.497267628E1,9.140422344E-1,1.576972952E1
8.754564094E0,4.142824650E0,1.492244911E1,2.745318413E-1,1.548928182E1
8.762776441E0,3.293112755E0,1.447235394E1,-3.489201069E-1,1.484639233E1
8.770988441E0,2.829649448E0,1.350743008E1,-6.336598396E-1,1.381517673E1
8.779200671E0,2.768734455E0,1.243340397E1,-5.298917294E-1,1.274896898E1
8.787412940E0,2.994705200E0,1.086204529E1,1.008226871E-1,1.126776164E1
8.795625287E0,3.210171700E0,8.967381477E0,1.036947012E0,9.580938994E0
8.803841133E0,3.425851822E0,6.734760284E0,1.683338404E0,7.741258617E0
8.812053940E0,3.543107510E0,4.347725868E0,2.145188332E0,6.004845046E0
8.820267056E0,3.724476099E0,1.810848236E0,2.134136438E0,4.658908873E0
8.828479286E0,3.655250788E0,-5.746707916E-1,2.080583811E0,4.244989262E0
8.836692402E0,3.265597105E0,-2.806159973E0,2.091909885E0,4.786934846E0
8.844905594E0,2.439697266E0,-4.539028645E0,2.231821060E0,5.615685980E0
8.853119633E0,1.284846067E0,-6.351101875E0,2.445101976E0,6.925738092E0
8.861333017E0,-3.350884914E-1,-7.836351871E0,2.690024614E0,8.291979702E0
8.869547594E0,-2.073469162E0,-8.913056374E0,2.881029606E0,9.593861573E0
8.877761709E0,-3.730182171E0,-9.674996376E0,2.920918465E0,1.077272382E1
8.885977902E0,-5.004279137E0,-1.021131134E1,2.814384937E0,1.171471090E1
8.894193709E0,-5.744595051E0,-1.060822201E1,2.607355595E0,1.234232756E1
8.902406440E0,-6.121026993E0,-1.079409981E1,2.377666473E0,1.263458982E1
8.910617248E0,-6.102013588E0,-1.098557377E1,2.090130806E0,1.273915412E1
8.918830671E0,-5.906448364E0,-1.118705177E1,2.010947466E0,1.280937818E1
8.927042248E0,-5.778530598E0,-1.135736275E1,2.001396418E0,1.289909656E1
8.935254940E0,-5.609097481E0,-1.139687824E1,2.008436918E0,1.286019545E1
8.943467555E0,-5.363950253E0,-1.137118149E1,1.959419012E0,1.272458461E1
8.951679748E0,-5.143190384E0,-1.118212700E1,1.918126702E0,1.245678857E1
8.959892786E0,-4.819571018E0,-1.086275387E1,1.778232455E0,1.201623057E1
8.968110363E0,-4.498602867E0,-1.042277431E1,1.622983098E0,1.146759462E1
8.976323132E0,-4.222219467E0,-9.993538857E0,1.513130784E0,1.095388154E1
8.984534747E0,-3.923834324E0,-9.622833252E0,1.452103734E0,1.049304536E1
8.992745940E0,-3.628739357E0,-9.328110695E0,1.449947238E0,1.011354268E1
9.000958901E0,-3.478390217E0,-9.073428154E0,1.352837801E0,9.811038023E0
9.009170863E0,-3.484262466E0,-8.821915627E0,1.201868296E0,9.560897848E0
9.017383209E0,-3.571814060E0,-8.476763725E0,1.109984517E0,9.265281677E0
9.025594516E0,-3.624304533E0,-8.251977921E0,1.032395482E0,9.071745333E0
9.033806516E0,-3.533842564E0,-8.203903198E0,9.429583549E-1,8.982273733E0
9.042018824E0,-3.386754036E0,-8.253480911E0,9.183898568E-1,8.968471998E0
9.050234632E0,-3.407698631E0,-8.271617889E0,1.016197205E0,9.003595350E0
9.058446593E0,-3.573540688E0,-8.303359032E0,1.082360744E0,9.104255545E0
9.066658786E0,-3.882410526E0,-8.350736618E0,9.643063545E-1,9.259470844E0
9.074870439E0,-3.992428780E0,-8.352235794E0,7.785347700E-1,9.290072481E0
9.083082824E0,-4.033734798E0,-8.074877739E0,4.902954400E-1,9.039638076E0
9.091295555E0,-3.888336897E0,-7.288698673E0,-1.059316695E-1,8.261689518E0
9.099508939E0,-3.097820759E0,-5.846949577E0,-1.234327793E0,6.731038398E0
9.107720093E0,-1.701219082E0,-3.583848000E0,-2.803397655E0,4.857689910E0
9.115932516E0,2.847337723E-2,-5.080022812E-1,-4.109749794E0,4.141125502E0
9.124144478E0,3.047526836E0,3.994017601E0,-5.251451015E0,7.267553521E0
9.132361631E0,6.501238346E0,8.605913162E0,-5.636864662E0,1.216971999E1
9.140577862E0,8.877079010E0,1.271572495E1,-4.662926674E0,1.619367401E1
9.148790747E0,9.416467667E0,1.541232777E1,-2.751341343E0,1.826963573E1
9.157004785E0,8.441024780E0,1.667799759E1,4.123601913E-1,1.869696617E1
9.165218901E0,7.163064957E0,1.647950363E1,3.741721869E0,1.835440062E1
9.173432477E0,6.864733696E0,1.505966854E1,6.038284302E0,1.761757823E1
9.181647170E0,6.746763229E0,1.348966122E1,6.174799919E0,1.629778905E1
9.189861708E0,6.384418964E0,1.192409039E1,4.151375294E0,1.414845058E1
9.198077054E0,5.455759048E0,1.079039478E1,7.568902969E-1,1.211490030E1
9.206290516E0,4.150019169E0,1.021093464E1,-2.423220873E0,1.128529329E1
9.214507670E0,2.741624355E0,1.038569260E1,-4.981940269E0,1.184055926E1
9.222723285E0,1.671186924E0,1.093200111E1,-6.460141182E0,1.280761251E1
9.230938285E0,1.585273743E-1,1.115832901E1,-6.186717033E0,1.275965928E1
9.239152016E0,-1.914522886E0,1.037667084E1,-4.315427303E0,1.140015826E1
9.247367093E0,-3.202759743E0,8.844625473E0,-1.875198245E0,9.591738017E0
9.255582900E0,-3.301496983E0,6.895660400E0,1.014678001E0,7.712300962E0
9.263797285E0,-1.801636934E0,5.165504456E0,2.998919010E0,6.238737625E0
9.272011554E0,6.642937660E-1,2.995550156E0,3.740634441E0,4.838073270E0
9.280226400E0,2.996245861E0,5.822420120E-1,3.596563816E0,4.717177790E0
9.288440939E0,4.525451660E0,-1.716205120E0,3.182465315E0,5.792508802E0
9.296659708E0,4.920527458E0,-3.474253178E0,3.018966913E0,6.737669243E0
9.304875323E0,4.207145691E0,-4.574227810E0,3.102597237E0,6.946203606E0
9.313092515E0,2.481625080E0,-5.163884163E0,3.301555634E0,6.612445258E0
9.321309631E0,6.525659561E-1,-5.547472954E0,3.354164600E0,6.515421603E0
9.329526169E0,-1.305731773E0,-5.702085495E0,2.997185707E0,6.572810405E0
9.337741938E0,-2.631328106E0,-5.609351158E0,2.073888302E0,6.533737116E0
9.345959246E0,-3.081148148E0,-5.365264416E0,9.191296101E-1,6.254944876E0
9.354174477E0,-2.930176497E0,-5.144351959E0,-2.009015083E-1,5.923736388E0
9.362388861E0,-2.626336575E0,-4.729492188E0,-4.071345329E-1,5.425080523E0
9.370602669E0,-1.967258692E0,-4.257015228E0,8.996832371E-2,4.690456237E0
9.378820977E0,-1.119864941E0,-3.931576252E0,6.038393974E-1,4.132313072E0
9.387037515E0,-6.435465813E-1,-3.695807934E0,1.019361854E0,3.887447373E0
9.395252015E0,-3.441414833E-1,-3.317195415E0,1.347565532E0,3.596964227E0
9.403466477E0,-3.442115784E-1,-2.802374840E0,1.248197317E0,3.087034644E0
9.411680823E0,-5.828766823E-1,-2.271692276E0,7.448720932E-1,2.460724580E0
9.419896477E0,-1.001520157E0,-1.611488819E0,6.481814384E-2,1.898457329E0
9.428112015E0,-1.437377691E0,-8.793611526E-1,-5.289993286E-1,1.766117480E0
9.436327053E0,-1.702705860E0,-9.656238556E-2,-8.425365686E-1,1.902209087E0
9.444541976E0,-1.778782129E0,6.252107620E-1,-9.106146097E-1,2.093841763E0
9.452755823E0,-1.640871048E0,1.179348946E0,-7.961145043E-1,2.171893192E0
9.460975053E0,-1.250542402E0,1.668390274E0,-5.823828578E-1,2.164844613E0
9.469190053E0,-6.717791557E-1,2.076114655E0,-4.172611833E-1,2.221631425E0
9.477406476E0,-1.380124092E-1,2.364071846E0,-3.528676033E-1,2.394242816E0
9.485620092E0,2.686696053E-1,2.497793198E0,-4.225406647E-1,2.547487945E0
9.493833553E0,6.052122116E-1,2.486090660E0,-5.029383898E-1,2.607657112E0
9.502047399E0,8.003520966E-1,2.356158257E0,-5.158587694E-1,2.541290121E0
9.510260361E0,8.991889954E-1,2.223086357E0,-5.374455452E-1,2.457539728E0
9.518475092E0,1.017910004E0,2.044902802E0,-6.085052490E-1,2.363905007E0
9.526687091E0,1.152844429E0,1.835330963E0,-7.008481026E-1,2.277867003E0
9.534900130E0,1.157960892E0,1.608448982E0,-6.674097776E-1,2.091271710E0
9.543115745E0,9.842519760E-1,1.388504982E0,-5.141904354E-1,1.777945399E0
9.551328822E0,8.285055161E-1,1.143931389E0,-4.058835506E-1,1.469606025E0
9.559542361E0,5.671701431E-1,8.227720261E-1,-3.113089800E-1,1.046684795E0
9.567756207E0,1.214962006E-1,4.726715088E-1,-2.613888979E-1,5.536278876E-1
9.575970668E0,-2.351164818E-1,-1.075744629E-3,-3.521462679E-1,4.234240324E-1
9.584183553E0,-3.337631226E-1,-3.558845520E-1,-4.840861559E-1,6.873070949E-1
9.592396476E0,-3.572473526E-1,-7.622523308E-1,-5.870270729E-1,1.026282160E0
9.600609553E0,-4.093909264E-1,-1.196564198E0,-5.245373249E-1,1.369126077E0
9.608821860E0,-5.457305908E-1,-1.580747604E0,-3.903942108E-1,1.717263086E0
9.617035168E0,-6.301283836E-1,-1.946237087E0,-2.723270655E-1,2.063749648E0
9.625252053E0,-7.594764233E-1,-2.214399338E0,-2.365424633E-1,2.352938844E0
9.633468206E0,-9.091241360E-1,-2.334970951E0,-2.777166367E-1,2.521055844E0
9.641680206E0,-9.563140869E-1,-2.335344315E0,-4.268366098E-1,2.559406023E0
9.649892360E0,-8.510892391E-1,-2.447566986E0,-4.757362604E-1,2.634627494E0
9.658106245E0,-8.355286121E-1,-2.668965816E0,-4.825420380E-1,2.838015752E0
9.666320052E0,-9.399218559E-1,-2.728388786E0,-3.718264103E-1,2.909607077E0
9.674534783E0,-8.397307396E-1,-2.771671772E0,-3.547898531E-1,2.917736788E0
9.682748822E0,-4.971675873E-1,-2.803817749E0,-4.001623392E-1,2.875534642E0
9.690962475E0,-2.838726044E-1,-2.789813995E0,-3.093268871E-1,2.821228262E0
9.699176552E0,-2.837610245E-1,-2.871398926E0,-1.656992435E-1,2.890139849E0
9.707392168E0,-3.143401146E-1,-3.031702995E0,4.181361198E-2,3.048242303E0
9.715604668E0,-2.524533272E-1,-3.220323086E0,1.000517607E-1,3.231752437E0
9.723817706E0,-2.304725647E-1,-3.449450970E0,7.124412060E-2,3.457875839E0
9.732031283E0,-3.173604012E-1,-3.553924561E0,2.131628990E-2,3.568130013E0
9.740243321E0,-5.284059048E-1,-3.454005241E0,7.573306561E-2,3.495010802E0
9.748454321E0,-7.726597786E-1,-3.167368889E0,1.852037907E-1,3.265505972E0
9.756666014E0,-8.114547729E-1,-2.707639694E0,3.791451454E-1,2.851933134E0
9.764877129E0,-5.564539433E-1,-2.039249420E0,6.351509094E-1,2.207169197E0
9.773088744E0,-2.030038834E-1,-1.190875530E0,9.794845581E-1,1.555244387E0
9.781301398E0,1.485166550E-1,-3.045234680E-1,1.285187364E0,1.329096798E0
9.789515937E0,6.052532196E-1,5.570936203E-1,1.550214887E0,1.754950414E0
9.797727321E0,1.223303795E0,1.757658005E0,1.509888053E0,2.620228190E0
9.805939475E0,1.841975212E0,3.243165970E0,1.085758805E0,3.884568235E0
9.814151398E0,2.639766693E0,5.256735802E0,4.909805059E-1,5.902770649E0
9.822363052E0,3.510134220E0,7.661719322E0,1.215568781E-1,8.428390196E0
9.830574821E0,4.262813568E0,9.781103134E0,-3.591883183E-2,1.066971641E1
9.838787513E0,4.719851017E0,1.162248325E1,-9.071803093E-2,1.254461400E1
9.846999590E0,4.862454891E0,1.329511738E1,-7.224583626E-2,1.415658268E1
9.855209783E0,4.955494404E0,1.455314445E1,-1.225106716E-1,1.537419745E1
9.863421013E0,5.156288624E0,1.588392735E1,-2.361650467E-1,1.670156383E1
9.871634667E0,5.437613010E0,1.694004440E1,-3.899730444E-1,1.779564044E1
9.879848821E0,5.733021259E0,1.739090538E1,-5.857026577E-1,1.832086707E1
9.888058667E0,5.721567154E0,1.712093353E1,-5.425982475E-1,1.805982028E1
9.896269552E0,5.199976921E0,1.624146652E1,-3.577711582E-1,1.705734431E1
9.904480898E0,4.390619278E0,1.492127705E1,-2.255172729E-1,1.555547828E1
9.912693590E0,3.504269123E0,1.347986412E1,-1.921496391E-1,1.392923402E1
9.920905705E0,2.856424332E0,1.200273323E1,7.144188881E-2,1.233814690E1
9.929117667E0,2.210841179E0,1.001666164E1,6.466412544E-1,1.027810654E1
9.937331590E0,1.872915745E0,7.712442398E0,1.032281160E0,8.003448352E0
9.945544359E0,1.827940464E0,5.165460587E0,1.106260300E0,5.589916034E0
9.953761513E0,1.769404411E0,2.681575775E0,1.135966301E0,3.407647289E0
9.961973205E0,1.638479233E0,3.310632706E-1,1.056424975E0,1.977435413E0
9.970184936E0,1.442806244E0,-1.787052155E0,1.013352990E0,2.510404259E0
9.978397051E0,1.005480766E0,-3.597668648E0,1.198582530E0,3.923112457E0
9.986609090E0,4.369373322E-1,-4.794885635E0,1.679607749E0,5.099306294E0
9.994821205E0,-3.517620564E-1,-6.101174355E0,2.317305326E0,6.535898486E0
1.000303420E1,-1.391935587E0,-7.209734440E0,3.159869194E0,7.993905722E0
1.001124632E1,-2.378012896E0,-8.361906052E0,3.668823957E0,9.435925359E0
1.001945767E1,-3.206015110E0,-9.348186493E0,3.876830339E0,1.061588136E1
1.002766874E1,-3.762925386E0,-9.880752563E0,4.033433914E0,1.131624796E1
1.003588282E1,-4.002843857E0,-1.054124069E1,4.082151413E0,1.199185033E1
1.004409382E1,-4.727070332E0,-1.127044582E1,4.325045109E0,1.296434179E1
1.005230536E1,-5.384913445E0,-1.195520592E1,4.436289787E0,1.384214248E1
1.006051832E1,-5.722681999E0,-1.273602200E1,4.467858791E0,1.466005142E1
1.006873001E1,-5.617364883E0,-1.333653831E1,4.482690334E0,1.514967178E1
1.007694178E1,-5.138641834E0,-1.361635590E1,4.434755325E0,1.521439590E1
1.008515328E1,-4.396956444E0,-1.384430885E1,4.072527409E0,1.508587396E1
1.009336528E1,-4.007685661E0,-1.378463364E1,3.842091084E0,1.486066394E1
1.010157674E1,-3.731878757E0,-1.351910973E1,3.623084068E0,1.448516431E1
1.010978886E1,-3.579263687E0,-1.312377357E1,3.412709236E0,1.402466205E1
1.011800659E1,-3.567236900E0,-1.259152794E1,3.230085373E0,1.347980736E1
1.012622317E1,-3.656886101E0,-1.187602711E1,3.279225588E0,1.285169857E1
1.013443624E1,-3.705189705E0,-1.115843773E1,3.184775829E0,1.218121342E1
1.014264947E1,-3.718342066E0,-1.050847530E1,3.028292179E0,1.155095989E1
1.015086105E1,-3.923430443E0,-9.760768890E0,2.786360264E0,1.088254195E1
1.015907347E1,-4.070220947E0,-9.147036552E0,2.481223583E0,1.031462296E1
1.016728651E1,-3.956835747E0,-8.579292297E0,2.218353271E0,9.704735787E0
1.017549878E1,-3.618651390E0,-7.815384865E0,2.015023947E0,8.845066420E0
1.018371105E1,-3.079560757E0,-7.151547432E0,1.960788131E0,8.029509027E0
1.019192351E1,-2.126809597E0,-6.350402355E0,1.940377951E0,6.972517173E0
1.020014074E1,-1.260960579E0,-5.355930805E0,1.542747855E0,5.714550491E0
1.020835440E1,-5.863349438E-1,-4.108989239E0,7.916711569E-1,4.225437782E0
1.021656832E1,-7.333374023E-2,-2.462642670E0,-2.988052964E-1,2.481787936E0
1.022478101E1,5.429778099E-1,-4.693708420E-1,-1.585255265E0,1.740163252E0
1.023299401E1,1.260318279E0,2.062739372E0,-3.019297600E0,3.867745322E0
1.024120624E1,2.257895470E0,5.142064095E0,-4.219487667E0,7.024456654E0
1.024942074E1,3.453689575E0,7.765024185E0,-4.613995075E0,9.670187321E0
1.025763447E1,4.667623997E0,1.051150322E1,-4.302460670E0,1.227964094E1
1.026584786E1,5.070266247E0,1.290794182E1,-3.215383291E0,1.423591414E1
1.027406170E1,4.967339993E0,1.396519661E1,-1.668720603E0,1.491595828E1
1.028227951E1,4.242546558E0,1.365734100E1,-2.151274681E-2,1.430114077E1
1.029049324E1,3.128848076E0,1.273245716E1,9.996696711E-1,1.314931538E1
1.029870955E1,2.310714245E0,1.191529751E1,3.607884645E-1,1.214264730E1
1.030692455E1,2.056111336E0,1.157335854E1,-1.911417961E0,1.190897730E1
1.031513970E1,2.117291451E0,1.166138840E1,-4.234947205E0,1.258593184E1
1.032335463E1,2.365053177E0,1.176400566E1,-6.177031040E0,1.349596303E1
1.033156855E1,2.623107433E0,1.160268402E1,-6.414428234E0,1.351472747E1
1.033978366E1,2.601942062E0,1.100623608E1,-4.528466702E0,1.218254266E1
1.034799913E1,2.023626328E0,1.003924751E1,-1.530611038E0,1.035491788E1
1.035621359E1,9.516396523E-1,8.569272995E0,1.177349567E0,8.701965852E0
1.036443263E1,2.185606956E-1,6.840334892E0,2.643731117E0,7.336706648E0
1.037265251E1,2.895202637E-1,4.963281631E0,2.681937933E0,5.648962525E0
1.038086955E1,7.142972946E-1,3.458951950E0,2.052951336E0,4.085239088E0
1.038908347E1,1.274536610E0,1.818805695E0,1.283370495E0,2.565060925E0
1.039729932E1,1.940696239E0,2.920989990E-1,7.590038776E-1,2.104212586E0
1.040551420E1,2.286053181E0,-1.014495373E0,7.070738077E-1,2.599075485E0
1.041372882E1,2.228314877E0,-2.091000557E0,9.546482563E-1,3.201409660E0
1.042194366E1,1.788500786E0,-2.990011692E0,1.260531306E0,3.705110545E0
1.043015855E1,1.061536789E0,-3.636663437E0,1.525715232E0,4.084114136E0
1.043837390E1,1.179804802E-1,-4.024574280E0,1.629869103E0,4.343684015E0
1.044659186E1,-7.214326859E-1,-4.226138115E0,1.498111010E0,4.541480495E0
1.045480813E1,-1.095317841E0,-4.333067417E0,1.277983427E0,4.648487502E0
1.046302347E1,-1.141837597E0,-4.443415165E0,9.832576513E-1,4.691964091E0
1.047123828E1,-9.505062103E-1,-4.589806557E0,7.704230547E-1,4.750088206E0
1.047945286E1,-6.867363453E-1,-4.560353756E0,7.349767685E-1,4.669970454E0
1.048766613E1,-7.200896740E-1,-4.313945293E0,8.671761751E-1,4.458771989E0
1.049588113E1,-8.049638271E-1,-3.952504635E0,8.556061983E-1,4.123387154E0
1.050409478E1,-8.880786896E-1,-3.427532673E0,6.665960550E-1,3.602917468E0
1.051230913E1,-9.863576889E-1,-2.813226700E0,3.340780735E-1,2.999792345E0
1.052052443E1,-1.062359810E0,-2.305330276E0,-8.974790573E-3,2.538353127E0
1.052874140E1,-1.112776518E0,-1.653851986E0,-4.171408415E-1,2.036542278E0
1.053695601E1,-9.574108124E-1,-1.002433777E0,-6.126572490E-1,1.515538797E0
1.054516913E1,-7.005264759E-1,-3.252353668E-1,-6.195431948E-1,9.901258291E-1
1.055338232E1,-4.389553070E-1,3.915491104E-1,-4.715824723E-1,7.539114640E-1
1.056159613E1,-8.086633682E-2,1.058618546E0,-3.194617033E-1,1.108723757E0
1.056980997E1,3.703403473E-1,1.682232857E0,-1.994560957E-1,1.734024824E0
1.057802586E1,8.755912781E-1,2.158511162E0,-2.732638121E-1,2.345315252E0
1.058624001E1,1.138375282E0,2.414801598E0,-3.570584059E-1,2.693446815E0
1.059445274E1,1.240718842E0,2.501045227E0,-4.147434235E-1,2.822520607E0
1.060266528E1,1.137186050E0,2.394060135E0,-4.081194401E-1,2.681655742E0
1.061088266E1,1.072970867E0,2.154973984E0,-4.897102118E-1,2.456622772E0
1.061910016E1,1.041642666E0,1.695677757E0,-5.624604225E-1,2.068019397E0
1.062731401E1,1.005437374E0,1.146061897E0,-5.103098154E-1,1.607724570E0
1.063552913E1,9.168300629E-1,5.558462143E-1,-3.482124805E-1,1.127295130E0
1.064374224E1,9.629187584E-1,2.055740356E-2,-3.559404612E-1,1.026805120E0
1.065195678E1,6.558651924E-1,-4.224367142E-1,-3.515973091E-1,8.557059050E-1
1.066017259E1,2.207598686E-1,-8.852190971E-1,-2.009930611E-1,9.342087455E-1
1.066838670E1,-2.381930351E-1,-1.340281010E0,-7.508563995E-2,1.363351371E0
1.067660090E1,-8.365783691E-1,-1.750952244E0,7.635581493E-2,1.942042054E0
1.068481528E1,-1.396056414E0,-2.099400997E0,1.066669226E-1,2.523457130E0
1.069303359E1,-1.523247480E0,-2.458909035E0,6.264770031E-2,2.893171489E0
1.070124774E1,-1.329109192E0,-2.854324818E0,1.713442802E-2,3.148649710E0
1.070946090E1,-1.124685049E0,-3.348694801E0,9.878301620E-2,3.533897482E0
1.071767462E1,-1.167994499E0,-3.740150452E0,3.017544746E-1,3.929884517E0
1.072588836E1,-1.292726040E0,-4.070128918E0,4.524294138E-1,4.294389642E0
1.073410347E1,-1.350038528E0,-4.341289520E0,5.487399101E-1,4.579357402E0
1.074231751E1,-1.299196720E0,-4.510626316E0,5.383968353E-1,4.724778623E0
1.075053128E1,-1.233445168E0,-4.568378925E0,5.320156813E-1,4.761776315E0
1.075874539E1,-1.216385841E0,-4.537846565E0,5.582478046E-1,4.731097819E0
1.076695851E1,-1.299669743E0,-4.495045662E0,6.606265306E-1,4.725569210E0
1.077517686E1,-1.250528336E0,-4.331307411E0,7.383209467E-1,4.568277884E0
1.078339216E1,-1.033948660E0,-3.983911991E0,7.814794779E-1,4.189428930E0
1.079160755E1,-8.516888618E-1,-3.466734886E0,6.930584908E-1,3.636475596E0
1.079982309E1,-5.346968174E-1,-2.628172874E0,4.852168560E-1,2.725551090E0
1.080803786E1,-1.549053192E-1,-1.362196445E0,3.572288752E-1,1.416752372E0
1.081625270E1,3.044347763E-1,1.761837006E-1,1.763076782E-1,3.934534620E-1
1.082446874E1,8.839502335E-1,1.736221313E0,-1.222562790E-2,1.948327983E0
1.083268424E1,1.389648438E0,3.503147125E0,-1.079376936E-1,3.770253719E0
1.084090032E1,2.257782936E0,5.854971886E0,-6.560707092E-2,6.275554466E0
1.084911555E1,3.237607479E0,8.522082329E0,1.846169233E-1,9.118227504E0
1.085733512E1,3.964389324E0,1.076066494E1,5.109282732E-1,1.147908273E1
1.086555259E1,4.545511246E0,1.285712147E1,9.848109484E-1,1.367249420E1
1.087376636E1,4.983324528E0,1.433852863E1,1.364999771E0,1.524106791E1
1.088197989E1,5.225419521E0,1.519637585E1,1.763086677E0,1.616611650E1
1.089019309E1,5.221499920E0,1.555943871E1,1.976186633E0,1.653074432E1
1.089840605E1,5.229679108E0,1.553917217E1,1.624317765E0,1.647585578E1
1.090661882E1,5.010829926E0,1.540923882E1,6.484555006E-1,1.621645929E1
1.091483220E1,4.647567749E0,1.516971397E1,-5.224788189E-1,1.587429029E1
1.092304501E1,4.291475296E0,1.485802364E1,-1.452459812E0,1.553342417E1
1.093125797E1,3.760295868E0,1.437670135E1,-2.259893179E0,1.503118372E1
1.093947336E1,3.117816925E0,1.381311321E1,-2.462572575E0,1.437313963E1
1.094768555E1,2.415534019E0,1.293105412E1,-1.915777087E0,1.329350093E1
1.095589878E1,1.684103489E0,1.186402798E1,-1.027585983E0,1.202694048E1
1.096411220E1,1.356345654E0,1.048347378E1,-5.168402195E-2,1.057097759E1
1.097232559E1,1.187473297E0,8.761335373E0,7.724323273E-1,8.875119270E0
1.098053762E1,1.209747791E0,6.684331894E0,1.271425247E0,6.910883066E0
1.098875147E1,1.393207550E0,4.789385796E0,1.445266128E0,5.193075944E0
1.099696593E1,1.636476517E0,2.488536835E0,1.653977156E0,3.406833045E0
1.100517870E1,1.696680069E0,1.729812622E-1,1.902825594E0,2.555267308E0
1.101339193E1,1.629544258E0,-2.202854156E0,2.074752331E0,3.436943142E0
1.102160855E1,1.570327759E0,-4.412559986E0,2.295497894E0,5.215929973E0
1.102982193E1,1.605799675E0,-6.434141159E0,2.662645102E0,7.146078924E0
1.103803470E1,1.186961174E0,-8.071598053E0,3.284863472E0,8.794879191E0
1.104624751E1,4.556598663E-1,-9.427456856E0,4.138038635E0,1.030572329E1
1.105446109E1,-4.664092064E-1,-1.051602173E1,4.680688858E0,1.152011713E1
1.106267416E1,-1.424412966E0,-1.171620178E1,4.897878170E0,1.277840158E1
1.107088647E1,-2.770233393E0,-1.248231602E1,4.898804665E0,1.369235894E1
1.107909951E1,-3.843986273E0,-1.275329494E1,4.669938564E0,1.411492432E1
1.108731312E1,-4.401118755E0,-1.284550571E1,4.237410545E0,1.422436331E1
1.109552682E1,-4.874880791E0,-1.272611809E1,3.640625238E0,1.410576820E1
1.110374305E1,-5.164824486E0,-1.242856121E1,2.987173319E0,1.378650609E1
1.111195989E1,-5.461350918E0,-1.219052315E1,2.840652943E0,1.365666568E1
1.112022332E1,-5.611058235E0,-1.193695545E1,2.402814865E0,1.340702798E1
1.112843601E1,-5.539818764E0,-1.167908287E1,2.018576622E0,1.308301266E1
1.113664755E1,-5.428960323E0,-1.119138527E1,1.539133787E0,1.253354089E1
1.114486043E1,-5.296936989E0,-1.054509735E1,1.111891866E0,1.185297107E1
1.115307332E1,-5.225622654E0,-9.914668083E0,9.792831540E-1,1.125018981E1
1.116128635E1,-5.073989391E0,-9.352363586E0,1.072911024E0,1.069407364E1
1.116949962E1,-4.724830627E0,-8.954421997E0,1.274312258E0,1.020438972E1
1.117771316E1,-4.363103390E0,-8.604229927E0,1.429128647E0,9.752530570E0
1.118592993E1,-4.155621529E0,-8.312533379E0,1.574105024E0,9.425773607E0
1.119414316E1,-4.092853069E0,-8.171399117E0,1.587091923E0,9.275886510E0
1.120235662E1,-4.081174850E0,-8.106379509E0,1.461742640E0,9.192718230E0
1.121056939E1,-4.114748001E0,-8.044993401E0,1.183123112E0,9.113333650E0
1.121878193E1,-4.143881321E0,-7.889910698E0,8.983312845E-1,8.957088942E0
1.122699293E1,-4.056610107E0,-7.665916920E0,7.191947103E-1,8.702850614E0
1.123520409E1,-3.785803795E0,-7.398237228E0,5.194101930E-1,8.326824810E0
1.124341532E1,-3.329262257E0,-7.122555733E0,2.467449903E-1,7.866108976E0
1.125162735E1,-2.955891371E0,-6.752423763E0,9.653627872E-2,7.371691782E0
1.125983970E1,-2.711238861E0,-6.177701950E0,-7.016968727E-2,6.746831948E0
1.126805493E1,-2.400697708E0,-5.143812180E0,-5.129013062E-1,5.699580772E0
1.127626828E1,-1.756129742E0,-3.860453129E0,-1.407505751E0,4.468574993E0
1.128448105E1,-9.538416862E-1,-2.125732422E0,-2.443603516E0,3.376351645E0
1.129269397E1,4.116153717E-2,3.971004486E-1,-3.813808203E0,3.834646795E0
1.130090624E1,1.800545216E0,3.717201233E0,-5.110971451E0,6.571269075E0
1.130911897E1,3.683269024E0,7.276059151E0,-5.624008179E0,9.906410826E0
1.131733205E1,4.813337326E0,1.055335999E1,-5.186468124E0,1.270594643E1
1.132554416E1,4.961899281E0,1.263287067E1,-4.561328888E0,1.431836538E1
1.133375666E1,4.294241905E0,1.406710148E1,-3.596275330E0,1.514123686E1
1.134197116E1,3.369379044E0,1.484477615E1,-2.200186491E0,1.538053688E1
1.135018839E1,2.888649464E0,1.536422253E1,-9.554238319E-1,1.566258166E1
1.135840432E1,2.935743809E0,1.528113937E1,-6.969362497E-1,1.557618478E1
1.136661697E1,4.185964108E0,1.496974945E1,-1.585820198E0,1.562467663E1
1.137482862E1,5.504961014E0,1.352908039E1,-3.106205940E0,1.493282047E1
1.138304135E1,6.405047417E0,1.149025345E1,-3.929966688E0,1.372935522E1
1.139125401E1,6.207403660E0,9.856240273E0,-3.960013866E0,1.230280628E1
1.139946647E1,5.060350418E0,8.427540779E0,-3.162994146E0,1.032642832E1
1.140767808E1,3.290942669E0,7.277644157E0,-2.158916473E0,8.273773533E0
1.141589132E1,1.567728519E0,6.297351837E0,-1.315547705E0,6.621561646E0
1.142410501E1,4.143147469E-1,5.318369865E0,-6.913485527E-1,5.379096351E0
1.143232047E1,9.914207458E-2,4.166077614E0,-1.048203111E-1,4.168575192E0
1.144053243E1,2.067127228E-1,2.808777809E0,4.783073664E-1,2.856701046E0
1.144874520E1,7.141995430E-1,1.229649544E0,1.098116398E0,1.796657622E0
1.145695847E1,1.218597889E0,-1.390056610E-1,1.675525546E0,2.076460750E0
1.146517074E1,1.394825935E0,-1.563312054E0,2.322943449E0,3.128186413E0
1.147338335E1,1.289344311E0,-2.623733044E0,2.907269001E0,4.122935469E0
1.148159643E1,1.005342484E0,-3.453413010E0,3.281947374E0,4.869081381E0
1.148980820E1,5.148053169E-1,-4.170900345E0,3.360751152E0,5.381085625E0
1.149801982E1,-1.617536545E-1,-4.688185215E0,3.101856709E0,5.623767411E0
1.150623028E1,-9.148256779E-1,-4.974718094E0,2.577463150E0,5.676974760E0
1.151444482E1,-1.464038610E0,-5.127551079E0,1.716892004E0,5.602044919E0
1.152265678E1,-1.825063944E0,-5.180218220E0,1.070487618E0,5.595664656E0
1.153086882E1,-1.863134623E0,-5.071950912E0,7.391571999E-1,5.453651075E0
1.153908128E1,-1.737559557E0,-4.802281857E0,7.148036361E-1,5.156740102E0
1.154729385E1,-1.484111786E0,-4.474308491E0,8.663094640E-1,4.792965298E0
1.155550666E1,-1.217029810E0,-4.018921852E0,9.447669387E-1,4.304123486E0
1.156371889E1,-9.629344940E-1,-3.250360489E0,8.757713437E-1,3.501294274E0
1.157193251E1,-8.351929188E-1,-2.287836075E0,7.446058393E-1,2.546797788E0
1.158014574E1,-7.225210667E-1,-1.342472553E0,5.880641937E-1,1.634040619E0
1.158835897E1,-6.452114582E-1,-5.548210144E-1,4.598060846E-1,9.672361755E-1
1.159657574E1,-5.566556454E-1,3.056669235E-1,3.931614459E-1,7.469094310E-1
1.160479104E1,-3.640737534E-1,1.119672775E0,2.638544440E-1,1.206580287E0
1.161300431E1,-6.365776062E-2,1.827682495E0,5.996674299E-2,1.829773654E0
1.162121674E1,1.898918152E-1,2.400709152E0,-1.692149043E-1,2.414145194E0
1.162942862E1,5.463833809E-1,2.821293831E0,-4.698246717E-1,2.911866910E0
1.163764158E1,9.434537888E-1,3.017591476E0,-8.210687041E-1,3.266514532E0
1.164585416E1,1.229540825E0,3.039367676E0,-1.096959949E0,3.457289059E0
1.165406778E1,1.374867439E0,2.951599121E0,-1.203593731E0,3.471431364E0
1.166228243E1,1.446353436E0,2.644251823E0,-1.105291605E0,3.210245395E0
1.167049593E1,1.432341099E0,2.084360123E0,-1.068495274E0,2.745512756E0
1.167871347E1,1.264984131E0,1.408296585E0,-9.248168468E-1,2.106838941E0
1.168692689E1,8.180394173E-1,1.114727974E0,-6.696035862E-1,1.536286401E0
1.169513901E1,3.947262764E-1,1.067848206E0,-2.401213050E-1,1.163514875E0
1.170335085E1,4.223222733E-1,7.582235336E-1,2.504920959E-2,8.682663718E-1
1.171156389E1,5.610032082E-1,2.640237808E-1,1.878221035E-1,6.478505221E-1
1.171977697E1,3.037462234E-1,-7.166862488E-2,3.404012918E-1,4.618129487E-1
1.172798858E1,8.278703690E-2,-3.655424118E-1,3.598620892E-1,5.195918317E-1
1.173620101E1,-2.464962006E-2,-8.843212128E-1,2.529202700E-1,9.201088382E-1
1.174441281E1,-1.030063629E-1,-1.285756111E0,2.233673334E-1,1.309072975E0
1.175262401E1,-1.769428253E-1,-1.652562618E0,2.045258284E-1,1.674545546E0
1.176083885E1,-2.956099510E-1,-1.983398914E0,7.388162613E-2,2.006667633E0
1.176905139E1,-5.462760925E-1,-2.249836922E0,7.805228233E-3,2.315220220E0
1.177726462E1,-8.000075817E-1,-2.355634689E0,-1.545790434E-1,2.492573289E0
1.178547778E1,-1.026246548E0,-2.386388779E0,-3.897879124E-1,2.626779016E0
1.179369031E1,-1.154919863E0,-2.376711369E0,-6.963481903E-1,2.732672249E0
1.180190304E1,-1.264078379E0,-2.469199657E0,-9.876732230E-1,2.944544021E0
1.181011443E1,-1.446623325E0,-2.396835804E0,-9.535149336E-1,2.957487387E0
1.181832639E1,-1.452914238E0,-2.317366123E0,-6.693558693E-1,2.815880468E0
1.182653770E1,-1.221388102E0,-2.357454300E0,-4.371237159E-1,2.690809695E0
1.183474804E1,-9.562797546E-1,-2.482567310E0,-3.528399467E-1,2.683674244E0
1.184296178E1,-7.806127071E-1,-2.607645512E0,-3.298612833E-1,2.741893466E0
1.185117654E1,-7.626178265E-1,-2.649588108E0,-1.927089691E-1,2.763881300E0
1.185938781E1,-8.954129219E-1,-2.537636757E0,6.754922867E-2,2.691826055E0
1.186759851E1,-9.058289528E-1,-2.558547020E0,2.854444981E-1,2.729133105E0
1.187580966E1,-9.112129211E-1,-2.768369675E0,3.334755898E-1,2.933493755E0
1.188402016E1,-1.077247858E0,-2.911201000E0,5.005187988E-1,3.144212664E0
1.189223008E1,-1.518741131E0,-3.033915520E0,7.769372463E-1,3.480639236E0
1.190044062E1,-1.895943165E0,-3.314716339E0,9.681816101E-1,3.939456882E0
1.190865128E1,-1.991492748E0,-3.699570179E0,8.663746119E-1,4.289926321E0
1.191686328E1,-1.991602898E0,-3.807276726E0,6.762490273E-1,4.349615031E0
1.192507716E1,-1.986318111E0,-3.512384415E0,6.402593851E-1,4.085613295E0
1.193328662E1,-1.702579737E0,-3.091424942E0,6.471991539E-1,3.588112690E0
1.194149650E1,-1.025615215E0,-2.272332191E0,5.316559076E-1,2.549124980E0
1.194970562E1,-1.831107140E-1,-7.648243904E-1,4.933561087E-1,9.283782266E-1
1.195791570E1,7.386202812E-1,1.249577522E0,3.475495577E-1,1.492579847E0
1.196612608E1,1.591439247E0,3.486046791E0,2.167803049E-1,3.838254135E0
1.197433877E1,2.359873295E0,6.009568214E0,2.161720991E-1,6.459925887E0
1.198255058E1,3.678706646E0,8.811067581E0,6.646704674E-2,9.548414129E0
1.199076227E1,4.826263428E0,1.151833630E1,-1.651763916E-3,1.248859049E1
1.199897570E1,6.028620243E0,1.450047684E1,-1.345856190E-1,1.570433710E1
1.200719216E1,6.998459339E0,1.707778168E1,-4.717254639E-2,1.845619910E1
1.201540524E1,7.322053909E0,1.904297256E1,7.945795059E-1,2.041760598E1
1.202361850E1,6.934398174E0,2.024245453E1,2.247936249E0,2.151501942E1
1.203183250E1,6.330461979E0,2.052501488E1,3.714220047E0,2.179785345E1
1.204004489E1,5.981037617E0,1.977061844E1,4.289178848E0,2.109614229E1
1.204825654E1,5.289545059E0,1.831695557E1,3.697293997E0,1.942061099E1
1.205646962E1,4.445900917E0,1.660248756E1,2.347281933E0,1.734699861E1
1.206468127E1,2.828210354E0,1.450819969E1,5.722212791E-1,1.479236524E1
1.207289431E1,1.200620174E0,1.257068920E1,-7.677382231E-1,1.265121092E1
1.208110804E1,-7.868957520E-2,1.063034630E1,-1.365339994E0,1.071795726E1
1.208932439E1,-8.226623535E-1,8.590950012E0,-1.335598588E0,8.732984544E0
1.209754074E1,-4.775819778E-1,6.393932343E0,-8.662167788E-1,6.469991256E0
1.210575324E1,8.315439224E-1,4.114208221E0,-5.722761154E-3,4.197404833E0
1.211396662E1,2.562417507E0,1.856249809E0,8.409512043E-1,3.273964838E0
1.212217893E1,3.907814026E0,-2.549076080E-2,1.443949580E0,4.166131375E0
1.213039062E1,5.038253307E0,-2.163651466E0,2.160457134E0,5.893467493E0
1.213860197E1,5.266603470E0,-4.127188683E0,2.827095985E0,7.263833027E0
1.214681481E1,4.699335575E0,-5.745716095E0,3.383950233E0,8.157703566E0
1.215502820E1,3.455809593E0,-6.999232292E0,3.696896076E0,8.637066239E0
1.216324181E1,1.641246796E0,-8.164247513E0,3.583709478E0,9.065958423E0
1.217145766E1,-3.809776306E-1,-9.201569557E0,3.056627989E0,9.703453042E0
1.217967216E1,-2.089365959E0,-1.008409214E1,2.287950754E0,1.054936411E1
1.218788531E1,-3.373285770E0,-1.066347313E1,1.673816562E0,1.130886281E1
1.219609866E1,-4.562126637E0,-1.101322365E1,1.222754836E0,1.198328936E1
1.220430981E1,-4.923225403E0,-1.121211624E1,9.387342334E-1,1.228132407E1
1.221252162E1,-4.599216461E0,-1.144339561E1,9.287936687E-1,1.236797287E1
1.222073431E1,-4.105953217E0,-1.153112793E1,1.566662192E0,1.234018612E1
1.222894608E1,-3.825504303E0,-1.146891975E1,2.507275820E0,1.234734933E1
1.223715812E1,-3.683791399E0,-1.143287659E1,3.097219229E0,1.240458597E1
1.224536927E1,-3.658455133E0,-1.132643700E1,3.392898083E0,1.237676155E1
1.225358389E1,-3.637198210E0,-1.124160385E1,3.295485973E0,1.226633995E1
1.226179558E1,-3.580841303E0,-1.109738350E1,2.958473921E0,1.203024991E1
1.227000658E1,-3.506258965E0,-1.104103947E1,2.420200348E0,1.183451622E1
1.227821920E1,-3.561838865E0,-1.096981239E1,1.908629656E0,1.169043828E1
1.228643150E1,-3.808606625E0,-1.073249054E1,1.560699224E0,1.149467788E1
1.229464412E1,-4.002779484E0,-1.046421051E1,1.122974157E0,1.125979645E1
1.230285716E1,-3.961973667E0,-1.021192932E1,6.734794378E-1,1.097425671E1
1.231106846E1,-3.758945942E0,-9.934347153E0,3.896934688E-1,1.062886584E1
1.231928193E1,-3.527731419E0,-9.643213272E0,2.243098468E-1,1.027067505E1
1.232749493E1,-3.283699036E0,-9.142572403E0,9.884911776E-2,9.714889636E0
1.233571243E1,-3.070189953E0,-8.688184738E0,1.143685728E-1,9.215405610E0
1.234392989E1,-2.805713654E0,-8.208042145E0,4.066242278E-2,8.674424384E0
1.235214354E1,-2.690655947E0,-7.637912750E0,-6.396710873E-3,8.097986263E0
1.236035716E1,-2.540806293E0,-6.992118835E0,1.933887601E-2,7.439475548E0
1.236856985E1,-2.433994770E0,-6.442790031E0,6.207257509E-2,6.887505131E0
1.237678435E1,-2.528119087E0,-5.810956478E0,8.186846972E-2,6.337610256E0
1.238499731E1,-2.686330795E0,-5.277924538E0,-3.291308880E-3,5.922235338E0
1.239321116E1,-2.782562971E0,-4.407967567E0,-2.644770145E-1,5.219461932E0
1.240142535E1,-2.595221519E0,-3.064877510E0,-8.824301958E-1,4.111852616E0
1.240963943E1,-1.887320757E0,-1.247858047E0,-2.031713486E0,3.040886225E0
1.241785666E1,-6.132278442E-1,1.166375160E0,-3.513096333E0,3.752109439E0
1.242607070E1,9.506430626E-1,4.581214905E0,-5.129953861E0,6.943174984E0
1.243428454E1,2.685959816E0,8.502221107E0,-6.088323593E0,1.079675081E1
1.244249912E1,3.865073204E0,1.214584351E1,-5.898446560E0,1.404464229E1
1.245071393E1,4.262316704E0,1.491832256E1,-4.970131397E0,1.629189669E1
1.245892946E1,3.900988102E0,1.630424690E1,-3.305535078E0,1.708720976E1
1.246714535E1,3.455582142E0,1.678585815E1,-1.214336872E0,1.718082349E1
1.247535808E1,3.839985847E0,1.630747604E1,-1.134811640E-1,1.675386953E1
1.248357170E1,4.504819870E0,1.556570053E1,-4.078375101E-1,1.620958872E1
1.249178377E1,4.689672470E0,1.499740982E1,-2.057459354E0,1.584766444E1
1.250000058E1,4.351386070E0,1.403232384E1,-4.242136002E0,1.529170987E1
1.250821412E1,3.715376377E0,1.281299400E1,-5.809249401E0,1.455074622E1
1.251642712E1,2.665153980E0,1.145692348E1,-6.111927986E0,1.325593472E1
1.252464012E1,1.687890530E0,1.038983917E1,-5.132853508E0,1.171084615E1
1.253285470E1,6.459875107E-1,9.109533310E0,-2.874990940E0,9.574260801E0
1.254106835E1,-2.534151077E-2,7.304410934E0,-6.968271136E-1,7.337617414E0
1.254928012E1,-6.533432007E-2,5.342164993E0,7.349711061E-1,5.392882153E0
1.255749316E1,3.438959122E-1,3.462032318E0,1.319918394E0,3.721037051E0
1.256570612E1,1.084780693E0,1.667422295E0,1.394202590E0,2.429165931E0
1.257391796E1,1.918976784E0,-9.707927704E-2,1.370357037E0,2.360037010E0
1.258213439E1,2.568133831E0,-1.766744614E0,1.565168619E0,3.488043966E0
1.259034935E1,2.714639187E0,-2.941516399E0,1.973328114E0,4.462713131E0
1.259856258E1,2.553458214E0,-3.992413998E0,2.655503511E0,5.432422782E0
1.260677496E1,1.976704597E0,-4.751008987E0,3.323472977E0,6.125758736E0
1.261498896E1,1.058798313E0,-5.183956146E0,3.805488348E0,6.517376524E0
1.262320316E1,9.849691391E-2,-5.447539330E0,3.734959364E0,6.605702676E0
1.263141681E1,-8.317003250E-1,-5.510201931E0,3.029725790E0,6.342971631E0
1.263963185E1,-1.637914658E0,-5.318482399E0,2.213183641E0,5.988923216E0
1.264784643E1,-1.950906992E0,-5.076788902E0,1.701753736E0,5.698753322E0
1.265605996E1,-1.979043961E0,-5.013391495E0,1.467945337E0,5.586194840E0
1.266427666E1,-1.939551592E0,-5.006769180E0,1.363068342E0,5.539634763E0
1.267249000E1,-1.988955021E0,-4.863856316E0,1.404352069E0,5.439232029E0
1.268070293E1,-2.023768425E0,-4.536937714E0,1.354409218E0,5.149161756E0
1.268891739E1,-1.837340117E0,-4.021533012E0,1.176660657E0,4.575267946E0
1.269713123E1,-1.716839552E0,-3.281665325E0,8.599339724E-1,3.802150943E0
1.270534350E1,-1.597936153E0,-2.331350327E0,5.518993139E-1,2.879789428E0
1.271355658E1,-1.440546036E0,-1.347241879E0,2.877718210E-1,1.993250155E0
1.272176973E1,-1.155341387E0,-5.388579369E-1,8.797120303E-2,1.277857789E0
1.272998293E1,-7.598543167E-1,3.373098373E-1,-1.297023445E-1,8.414150029E-1
1.273819743E1,-2.573533058E-1,1.223205566E0,-1.059230566E-1,1.254464936E0
1.274641392E1,2.549524307E-1,2.063387871E0,-2.373561263E-2,2.079214666E0
1.275462773E1,6.679978371E-1,2.852717400E0,1.823657751E-2,2.929940314E0
1.276284100E1,9.798693657E-1,3.481861115E0,-2.920079231E-2,3.617230084E0
1.277105462E1,1.322299957E0,3.724541664E0,-1.263452768E-1,3.954320538E0
1.277926727E1,1.870036125E0,3.591079712E0,-2.508358955E-1,4.056575804E0
1.278748096E1,2.226585388E0,3.307495117E0,-3.271420002E-1,4.000528506E0
1.279569577E1,2.287802696E0,2.795992851E0,-3.063467145E-1,3.625667595E0
1.280391046E1,2.225526810E0,2.132563591E0,-2.645668387E-1,3.093669773E0
1.281212377E1,1.959783554E0,1.361808777E0,-2.969037890E-1,2.404875586E0
1.282033723E1,1.365790844E0,7.712097168E-1,-2.778491974E-1,1.592905908E0
1.282855296E1,6.208639145E-1,3.192968369E-1,-3.116658330E-1,7.645639684E-1
1.283677027E1,-1.398739815E-1,-1.654176712E-1,-3.634874821E-1,4.231440491E-1
1.284498439E1,-6.765928268E-1,-7.052197456E-1,-4.619289637E-1,1.080967673E0
1.285319777E1,-1.114369392E0,-1.239548683E0,-4.807708263E-1,1.734773953E0
1.286141173E1,-1.493212461E0,-1.782705307E0,-4.263024032E-1,2.364202911E0
1.286962554E1,-1.685608864E0,-2.293937683E0,-3.575142622E-1,2.869014427E0
1.287783977E1,-1.799375057E0,-2.831828117E0,-3.193213344E-1,3.370306692E0
1.288605323E1,-1.906555414E0,-3.258417130E0,-3.395608068E-1,3.790453440E0
1.289426558E1,-1.811866760E0,-3.524167538E0,-3.401268721E-1,3.977223187E0
1.290247839E1,-1.455701590E0,-3.613490582E0,-2.644821405E-1,3.904655184E0
1.291069454E1,-1.327995777E0,-3.712395668E0,-1.270343065E-1,3.944818386E0
1.291890904E1,-1.320916653E0,-3.813928127E0,6.001359224E-2,4.036640954E0
1.292712239E1,-1.323172092E0,-3.802748680E0,1.712054610E-1,4.030011566E0
1.293533516E1,-1.331575394E0,-3.757140160E0,9.647357464E-2,3.987292610E0
1.294354746E1,-1.453876257E0,-3.611230850E0,-4.765945673E-2,3.893201234E0
1.295176043E1,-1.536511183E0,-3.464613914E0,-8.193433285E-2,3.790927252E0
1.295997331E1,-1.470556974E0,-3.335772991E0,-1.619648933E-1,3.649130292E0
1.296818623E1,-1.387462139E0,-3.198632240E0,-1.117520332E-1,3.488378981E0
1.297639896E1,-1.296072006E0,-2.967392921E0,3.256881237E-2,3.238253252E0
1.298461031E1,-1.140461206E0,-2.786337852E0,1.622588038E-1,3.015071858E0
1.299282546E1,-1.112665415E0,-2.551246643E0,3.760093451E-1,2.808605844E0
1.300103977E1,-1.251448631E0,-2.020064831E0,6.761732101E-1,2.470626602E0
1.300925185E1,-1.168309212E0,-1.259016514E0,7.956788540E-1,1.892927319E0
1.301746458E1,-8.398251534E-1,-3.440971375E-1,7.818194628E-1,1.197894319E0
1.302567692E1,-4.487967491E-1,7.231159210E-1,8.135708570E-1,1.177375342E0
1.303388850E1,9.062957764E-2,1.974094391E0,7.436870337E-1,2.111476448E0
1.304210123E1,7.626047134E-1,3.398204803E0,5.754560232E-1,3.529944967E0
1.305031296E1,1.740780830E0,5.033278465E0,1.666254997E-1,5.328411965E0
1.305852669E1,2.754648685E0,6.515535355E0,-2.512704730E-1,7.078377440E0
1.306673873E1,3.986422539E0,8.394654274E0,-6.541647315E-1,9.316099856E0
1.307495416E1,5.125775814E0,1.009771633E1,-1.053617597E0,1.137310700E1
1.308317050E1,5.952451229E0,1.158856869E1,-1.437400699E0,1.310697221E1
1.309138142E1,6.502587795E0,1.280589485E1,-1.691287041E0,1.446150209E1
1.309959419E1,6.943006516E0,1.375912762E1,-1.680496216E0,1.550299970E1
1.310780550E1,7.317768097E0,1.457550812E1,-1.265416265E0,1.635837538E1
1.311601854E1,7.598820686E0,1.519821739E1,-8.536312580E-1,1.701342335E1
1.312423166E1,7.638239861E0,1.535124683E1,-7.841688991E-1,1.716445188E1
1.313244369E1,7.285264492E0,1.506727028E1,-9.823813438E-1,1.676492724E1
1.314065569E1,6.425504684E0,1.447264290E1,-1.345267892E0,1.589195547E1
1.314886719E1,5.206588745E0,1.368680382E1,-1.977741718E0,1.477662436E1
1.315708223E1,4.023568630E0,1.265408516E1,-2.561541080E0,1.352318263E1
1.316529362E1,3.150417805E0,1.119778824E1,-2.709658146E0,1.194394579E1
1.317350562E1,2.495433807E0,9.371022224E0,-2.256309986E0,9.956614996E0
1.318171727E1,1.949735641E0,7.477768898E0,-1.220622301E0,7.823580738E0
1.318992931E1,1.474255085E0,6.086405754E0,-1.595242023E-1,6.264440201E0
1.319814246E1,1.312913895E0,4.248230934E0,7.845026255E-1,4.515158174E0
1.320635458E1,1.416981697E0,2.249503136E0,1.370736480E0,2.991156964E0
1.321456769E1,1.393919468E0,1.559848785E-1,1.760243297E0,2.250733043E0
1.322277973E1,8.507323265E-1,-1.935861588E0,2.030672550E0,2.931712227E0
1.323099208E1,-8.250761032E-2,-3.898910522E0,2.147244453E0,4.451850122E0
1.323920831E1,-1.123515368E0,-5.771526337E0,2.312173843E0,6.318144579E0
1.324742158E1,-2.161580563E0,-7.465822220E0,2.529727936E0,8.173766291E0
1.325563412E1,-2.975121737E0,-8.690073013E0,2.866911650E0,9.622260687E0
1.326384546E1,-4.120400906E0,-9.837526321E0,3.284642220E0,1.115990601E1
1.327205731E1,-5.187635422E0,-1.050590992E1,3.608214140E0,1.225989045E1
1.328027112E1,-5.788425446E0,-1.084741879E1,3.671691179E0,1.283174499E1
1.328848438E1,-6.092140198E0,-1.097740173E1,3.635680914E0,1.307041303E1
1.329669758E1,-6.520681858E0,-1.095282745E1,3.606872320E0,1.324738650E1
1.330490969E1,-6.614682198E0,-1.099781609E1,3.418555021E0,1.328128374E1
1.331312119E1,-6.277084827E0,-1.108707619E1,3.008110523E0,1.309098091E1
1.332133739E1,-5.752852440E0,-1.114179611E1,2.540880680E0,1.279417861E1
1.332955200E1,-5.181088924E0,-1.108701038E1,2.130430222E0,1.242192475E1
1.333776427E1,-4.608888149E0,-1.088049793E1,1.986839533E0,1.198226258E1
1.334597619E1,-3.966780663E0,-1.068884850E1,1.909770846E0,1.156001971E1
1.335419012E1,-3.351637363E0,-1.048638439E1,1.832093716E0,1.116038969E1
1.336240208E1,-3.045818090E0,-1.022753716E1,1.731714249E0,1.081102948E1
1.337061431E1,-3.010460138E0,-9.943589211E0,1.601619124E0,1.051204169E1
1.337882788E1,-2.986651659E0,-9.519659042E0,1.367016912E0,1.007038885E1
1.338703988E1,-2.896412373E0,-9.060506821E0,9.597822428E-1,9.560500533E0
1.339525338E1,-2.763229370E0,-8.627388000E0,5.976495743E-1,9.078790959E0
1.340346950E1,-2.605266571E0,-8.365674973E0,4.062958360E-1,8.771374348E0
1.341168238E1,-2.530066967E0,-8.182119370E0,2.841047347E-1,8.569074147E0
1.341989531E1,-2.444492579E0,-7.959430218E0,2.686309218E-1,8.330680400E0
1.342810735E1,-2.473327637E0,-7.715467453E0,2.904219627E-1,8.107412197E0
1.343631942E1,-2.446630716E0,-7.572512150E0,3.106812835E-1,7.964010609E0
1.344453288E1,-2.319119453E0,-7.378509998E0,2.880231142E-1,7.739746905E0
1.345274623E1,-2.368720770E0,-7.112977982E0,3.122662306E-1,7.503519444E0
1.346095873E1,-2.671009064E0,-6.745316505E0,4.817565978E-1,7.270878461E0
1.346917085E1,-3.014845371E0,-6.205179214E0,5.233747363E-1,6.918631571E0
1.347738369E1,-3.034696102E0,-5.201241493E0,1.411453933E-1,6.023472049E0
1.348559815E1,-2.607446671E0,-3.926538467E0,-7.021177411E-1,4.765443505E0
1.349381015E1,-1.991951704E0,-2.361539364E0,-1.782400846E0,3.566748174E0
1.350202169E1,-1.050982237E0,-1.292610168E-1,-2.985340595E0,3.167574868E0
1.351023285E1,2.416138649E-1,2.879934311E0,-4.327112675E0,5.203489502E0
1.351844408E1,1.976619244E0,5.698877335E0,-5.378564835E0,8.081657391E0
1.352665558E1,3.280903339E0,8.811408043E0,-5.801954269E0,1.104843481E1
1.353486688E1,3.806803703E0,1.154878616E1,-5.079671383E0,1.317836400E1
1.354307808E1,3.659672737E0,1.364410782E1,-3.438938856E0,1.453895399E1
1.355129046E1,3.627182961E0,1.440698433E1,-1.495602131E0,1.493166030E1
1.355950381E1,3.959449768E0,1.382868290E1,2.936220169E-1,1.438735303E1
1.356771842E1,4.174693108E0,1.264277649E1,1.479293108E0,1.339612511E1
