"Time (s)","Linear Acceleration x (m/s^2)","Linear Acceleration y (m/s^2)","Linear Acceleration z (m/s^2)","Absolute acceleration (m/s^2)"
3.028646500E-2,-3.551726818E0,3.313754082E0,1.110614538E0,4.982890141E0
3.849631100E-2,-3.432285786E0,2.994343281E0,1.702979326E0,4.862799192E0
4.670715700E-2,-3.115465641E0,2.674906254E0,2.019391775E0,4.575936272E0
5.492577200E-2,-2.948657513E0,2.699708462E0,1.828258038E0,4.396081705E0
6.314361800E-2,-2.496733665E0,2.722013950E0,1.162990808E0,3.872413532E0
7.135384900E-2,-1.678742886E0,2.542293072E0,1.773946285E-1,3.051704539E0
7.956308000E-2,-7.910733223E-1,2.457263470E0,-9.688735008E-1,2.757291537E0
8.777308000E-2,-4.601526260E-1,3.056991100E0,-1.626407027E0,3.493155428E0
9.600938800E-2,-1.999044418E-2,3.088234901E0,-1.605179071E0,3.480545112E0
1.042196180E-1,7.526926994E-1,2.323705673E0,-2.144728184E0,3.250540469E0
1.124307720E-1,1.543373585E0,1.370801449E0,-2.469842434E0,3.218884944E0
1.206409640E-1,1.910627365E0,7.209334373E-1,-2.529418230E0,3.250876579E0
1.288508490E-1,2.010207653E0,3.007698059E-1,-2.240986347E0,3.025461468E0
1.370603870E-1,2.201796770E0,-1.880354881E-1,-1.349693775E0,2.589389822E0
1.452777720E-1,2.211935997E0,-4.443755150E-1,-6.785618067E-1,2.355966167E0
1.534873100E-1,1.617383003E0,-9.539504051E-1,-1.298883557E-1,1.882238067E0
1.616957720E-1,1.834045649E0,-1.099629402E0,1.006213427E-1,2.140801933E0
1.699070800E-1,1.770482063E0,-1.057750702E0,6.558058262E-1,2.164145227E0
1.781477720E-1,1.895615578E0,-1.552027702E0,3.539966345E-1,2.475371088E0
1.863562720E-1,2.260396481E0,-1.973189831E0,2.695204020E-1,3.012558979E0
1.945648100E-1,1.916991234E0,-1.558773041E0,5.742855072E-1,2.536618345E0
2.027742720E-1,7.872776985E-1,-1.145329475E0,1.064747572E-1,1.393887605E0
2.109846950E-1,3.843531609E-1,-1.190545082E0,-2.892693877E-1,1.284056745E0
2.192052720E-1,8.780207634E-1,-7.986450195E-1,-1.636410356E-1,1.198137186E0
2.274243870E-1,9.729270935E-1,-2.841663361E-1,3.347430825E-1,1.067422394E0
2.356335410E-1,5.423583984E-1,5.299081802E-1,9.033935070E-1,1.179438485E0
2.438436950E-1,3.634986877E-1,1.211973190E0,1.039148927E0,1.637327335E0
2.520529640E-1,2.838625908E-1,1.433397293E0,1.179752111E0,1.878036425E0
2.602890790E-1,2.433743477E-1,1.383911133E0,1.341103435E0,1.942421046E0
2.684992720E-1,7.158422470E-2,1.185368538E0,9.805171490E-1,1.540011932E0
2.767082330E-1,-6.938457489E-2,8.761959076E-1,7.064248323E-1,1.127638919E0
2.849161950E-1,-7.381343842E-2,7.848854065E-1,4.439250231E-1,9.047446884E-1
2.931259640E-1,-5.827140808E-2,7.700433731E-1,3.383677006E-1,8.431222060E-1
3.013358100E-1,-2.063179016E-1,7.018957138E-1,2.759765387E-1,7.819128593E-1
3.095529250E-1,-3.031153679E-1,6.558313370E-1,4.081636667E-1,8.298139838E-1
3.177614640E-1,-3.736591339E-1,7.353487015E-1,5.796506405E-1,1.008143703E0
3.259709250E-1,-2.146716118E-1,5.688734055E-1,7.145949602E-1,9.382679838E-1
3.341803480E-1,-1.368689537E-2,3.654327393E-1,1.029124141E0,1.092165242E0
3.424163100E-1,1.398124695E-1,2.680702209E-1,1.059588194E0,1.101878537E0
3.506264640E-1,2.225492001E-1,3.181076050E-2,1.060943723E0,1.084500647E0
3.588354250E-1,2.949869633E-1,-5.180835724E-2,8.402988911E-1,8.920782705E-1
3.670456170E-1,2.554061413E-1,-7.256507874E-3,3.376531601E-1,4.234319431E-1
3.752550400E-1,3.523976803E-1,5.865669250E-2,2.925395966E-4,3.572461591E-1
3.834735400E-1,4.491641521E-1,1.057291031E-1,-2.157536745E-1,5.093885814E-1
3.916937330E-1,4.035117626E-1,2.100095749E-1,-4.703861475E-1,6.543614383E-1
3.999023860E-1,4.801516533E-1,2.647991180E-1,-3.730672598E-1,6.632068783E-1
4.081118090E-1,4.647917747E-1,1.684503555E-1,-4.720064402E-1,6.835181020E-1
4.163218860E-1,5.836884975E-1,1.278648376E-1,-6.792660952E-1,9.046790077E-1
4.245644630E-1,7.850346565E-1,8.841800690E-2,-6.790837049E-1,1.041754210E0
4.327752710E-1,8.224804401E-1,1.741056442E-1,-7.512097359E-1,1.127432001E0
4.409850020E-1,7.111778259E-1,3.054876328E-1,-9.446195364E-1,1.221229979E0
4.491964630E-1,6.011002064E-1,4.831924438E-1,-1.029160619E0,1.286066863E0
4.574067710E-1,5.408024788E-1,7.734365463E-1,-8.822717667E-1,1.291926810E0
4.656163090E-1,6.212575436E-1,9.499444962E-1,-8.502736092E-1,1.418210383E0
4.738338090E-1,7.483003139E-1,1.046787262E0,-8.580354452E-1,1.546590365E0
4.820428090E-1,8.070666790E-1,1.207170486E0,-9.557347894E-1,1.738403347E0
4.902534630E-1,6.947405338E-1,1.388545990E0,-1.056605816E0,1.878068217E0
4.984651550E-1,6.243495941E-1,1.510700226E0,-1.021854401E0,1.927748429E0
5.067033860E-1,5.560898781E-1,1.503451347E0,-8.289127946E-1,1.804632463E0
5.149138860E-1,4.788863659E-1,1.570590019E0,-8.651131988E-1,1.855938040E0
5.231238470E-1,2.331705093E-1,1.550072670E0,-7.825263739E-1,1.751982104E0
5.313335010E-1,4.391288757E-2,1.467045784E0,-8.225818872E-1,1.682495954E0
5.395428470E-1,5.374574661E-2,1.241575241E0,-9.987255335E-1,1.594318154E0
5.477602320E-1,3.154091835E-1,8.981437683E-1,-9.099702239E-1,1.316886855E0
5.559780400E-1,4.663112164E-1,5.583105087E-1,-1.076520205E0,1.299250755E0
5.641873470E-1,6.127827168E-1,2.828149796E-1,-1.238583803E0,1.410523594E0
5.723967320E-1,8.368439674E-1,-2.046489716E-2,-1.312064290E0,1.556354503E0
5.806065400E-1,1.030662775E0,-2.682399750E-1,-1.344792485E0,1.715425681E0
5.888445400E-1,1.151952505E0,-4.002599716E-1,-1.409035325E0,1.863486830E0
5.970545010E-1,1.252059460E0,-4.604778290E-1,-1.240734577E0,1.821843850E0
6.052646160E-1,1.214885235E0,-4.774799347E-1,-1.131320477E0,1.727373510E0
6.134748470E-1,1.206214666E0,-4.990015030E-1,-1.067717791E0,1.686409678E0
6.216851550E-1,1.234141111E0,-4.459867477E-1,-9.080653191E-1,1.595804213E0
6.298950010E-1,1.325900078E0,-3.819646835E-1,-8.349480033E-1,1.612775931E0
6.381126160E-1,1.457223415E0,-2.040166855E-1,-8.393539190E-1,1.694000558E0
6.463230390E-1,1.507985115E0,5.647754669E-2,-9.181266427E-1,1.766398979E0
6.545340390E-1,1.482005119E0,3.007888794E-1,-1.132503271E0,1.889279435E0
6.627449240E-1,1.470896244E0,5.353221893E-1,-1.231575966E0,1.991704036E0
6.709886930E-1,1.494224072E0,7.414703369E-1,-1.224555254E0,2.069304087E0
6.791993080E-1,1.380490065E0,9.497699738E-1,-1.213322520E0,2.068808198E0
6.874098470E-1,1.257557392E0,1.188385963E0,-1.153786302E0,2.079647716E0
6.956204620E-1,1.185204506E0,1.339945793E0,-1.146623969E0,2.124831988E0
7.038301930E-1,1.125093937E0,1.567416191E0,-1.152799010E0,2.247571009E0
7.120490390E-1,1.064732313E0,1.716243744E0,-1.060513258E0,2.281191763E0
7.202663850E-1,1.186604023E0,1.732717514E0,-1.059062839E0,2.352010456E0
7.284765390E-1,1.250185490E0,1.690305710E0,-1.143157959E0,2.393095750E0
7.366852310E-1,1.239002228E0,1.789614677E0,-1.325727820E0,2.548607751E0
7.448942700E-1,1.121031046E0,1.942908287E0,-1.566576004E0,2.736012353E0
7.531314240E-1,1.058352232E0,1.996603012E0,-1.792155266E0,2.884155601E0
7.613413850E-1,1.036783457E0,1.917350769E0,-2.020726204E0,2.972286712E0
7.695507700E-1,1.034699678E0,1.825561523E0,-2.158170223E0,3.010145680E0
7.777593850E-1,9.662709236E-1,1.685554504E0,-2.102329254E0,2.862614500E0
7.859685770E-1,8.410625458E-1,1.407631874E0,-1.947490215E0,2.545885276E0
7.941761540E-1,9.344716072E-1,1.033424377E0,-1.683210611E0,2.185040295E0
8.023923460E-1,9.809451103E-1,5.939378738E-1,-1.455708504E0,1.853133227E0
8.106011930E-1,1.000067234E0,2.064495087E-1,-1.312306285E0,1.662799945E0
8.188103460E-1,1.026318073E0,-1.047220230E-1,-1.389976740E0,1.730991285E0
8.270198460E-1,1.096291780E0,-3.202056885E-1,-1.500169992E0,1.885443544E0
8.352564620E-1,1.163738489E0,-5.445847511E-1,-1.739172697E0,2.162309296E0
8.434673850E-1,1.258217573E0,-6.467628479E-1,-1.929495811E0,2.392565094E0
8.516766540E-1,1.262264013E0,-7.114915848E-1,-2.041581631E0,2.503514783E0
8.598858080E-1,1.260843515E0,-7.909655571E-1,-2.073688269E0,2.552554783E0
8.680972310E-1,1.220540762E0,-7.798962593E-1,-2.007994175E0,2.475883384E0
8.763148460E-1,1.119613409E0,-7.000002861E-1,-1.886973143E0,2.303085371E0
8.845333850E-1,9.719448090E-1,-5.397367477E-1,-1.737645864E0,2.062863451E0
8.927441920E-1,8.103532791E-1,-3.449411392E-1,-1.569737077E0,1.799925364E0
9.009540770E-1,6.988811493E-1,-1.925039291E-1,-1.483864307E0,1.651467804E0
9.091636150E-1,5.288209915E-1,2.983570099E-2,-1.377168417E0,1.475511660E0
9.174056150E-1,3.898339272E-1,3.046960831E-1,-1.255497456E0,1.349475474E0
9.256166920E-1,3.044352531E-1,4.877834320E-1,-1.159054518E0,1.293839586E0
9.338277310E-1,3.092064857E-1,5.925626755E-1,-1.110824227E0,1.296406433E0
9.420366540E-1,3.994178772E-1,5.593328476E-1,-1.009611130E0,1.221352737E0
9.502468840E-1,4.725942612E-1,5.009946823E-1,-9.816694856E-1,1.199173043E0
9.584558460E-1,5.101103783E-1,4.298439026E-1,-1.003872275E0,1.205295783E0
9.666751530E-1,5.116052628E-1,4.195957184E-1,-9.935095310E-1,1.193675710E0
9.748850000E-1,5.834321976E-1,3.721427917E-1,-1.049980760E0,1.257514605E0
9.830941920E-1,5.938816071E-1,3.349180222E-1,-1.084290743E0,1.280840294E0
9.913034610E-1,5.673832893E-1,3.584594727E-1,-1.131969929E0,1.315968431E0
9.995395380E-1,5.065021515E-1,3.542423248E-1,-1.185249686E0,1.336730666E0
1.007749346E0,4.636964798E-1,3.628587723E-1,-1.160601854E0,1.301413685E0
1.015959653E0,3.961992264E-1,3.449401855E-1,-1.051996469E0,1.175863143E0
1.024170999E0,3.527603149E-1,3.284654617E-1,-9.055901170E-1,1.025876630E0
1.032381884E0,2.786207199E-1,3.386583328E-1,-7.891021967E-1,9.027741959E-1
1.040601499E0,2.345299721E-1,3.359651566E-1,-6.447793841E-1,7.639485247E-1
1.048821269E0,1.490230560E-1,3.680992126E-1,-5.786676407E-1,7.018270014E-1
1.057032384E0,1.222820282E-1,4.658803940E-1,-6.400798559E-1,8.010615818E-1
1.065243845E0,6.357479095E-2,5.383968353E-1,-7.199190855E-1,9.012193939E-1
1.073454192E0,-4.357004166E-2,6.145105362E-1,-8.632903099E-1,1.060561977E0
1.081689653E0,-4.127359390E-2,6.510391235E-1,-9.600199461E-1,1.160686757E0
1.089900730E0,-1.204729080E-2,7.191944122E-1,-9.161381125E-1,1.164772416E0
1.098111845E0,2.717161179E-2,7.877397537E-1,-7.873393297E-1,1.114080534E0
1.106323499E0,2.057075500E-3,8.398227692E-1,-6.592234969E-1,1.067652628E0
1.114533884E0,-7.572412491E-2,8.680353165E-1,-5.475374460E-1,1.029085375E0
1.122745922E0,-1.426219940E-3,8.285503387E-1,-4.912027121E-1,9.632122312E-1
1.130966961E0,3.061723709E-2,6.828098297E-1,-4.203305840E-1,8.023992015E-1
1.139178384E0,4.700851440E-2,5.626516342E-1,-5.048652887E-1,7.574137718E-1
1.147391422E0,4.611492157E-2,4.781246185E-1,-4.945525825E-1,6.894287445E-1
1.155603499E0,3.525495529E-2,4.029941559E-1,-4.264639616E-1,5.878083974E-1
1.163846999E0,-1.390457153E-2,3.255138397E-1,-4.106175900E-1,5.241749728E-1
1.172060499E0,-4.145431519E-2,2.169866562E-1,-3.395990431E-1,4.051285960E-1
1.180273037E0,-2.345085144E-3,1.298322678E-1,-2.306652069E-1,2.647042781E-1
1.188485268E0,3.632116318E-2,5.681991577E-2,-2.677332163E-1,2.760956443E-1
1.196697499E0,9.174060822E-2,1.015567780E-2,-3.800640404E-1,3.911114314E-1
1.204918268E0,9.481763840E-2,-1.236152649E-2,-5.503101349E-1,5.585556700E-1
1.213137729E0,1.271228790E-1,4.682636261E-2,-6.322115660E-1,6.465635303E-1
1.221349114E0,1.219077110E-1,1.280050278E-1,-6.435173750E-1,6.673540208E-1
1.229561999E0,8.627653122E-2,2.071943283E-1,-6.251023412E-1,6.641732202E-1
1.237774191E0,7.708549500E-2,3.055744171E-1,-5.885285139E-1,6.675954685E-1
1.246012383E0,2.973222733E-2,4.590902328E-1,-5.415481329E-1,7.105787975E-1
1.254224460E0,-5.100250244E-2,6.509981155E-1,-4.181324840E-1,7.753931750E-1
1.262436075E0,-1.553206444E-1,8.359289169E-1,-3.707774282E-1,9.275653928E-1
1.270648498E0,-1.924242973E-1,1.025723457E0,-4.222603738E-1,1.125806175E0
1.278860152E0,-2.221221924E-1,1.112665176E0,-4.714931846E-1,1.228685430E0
1.287071768E0,-2.846050262E-1,1.168892860E0,-5.020277500E-1,1.303588279E0
1.295290498E0,-2.170224190E-1,1.217490196E0,-2.681584954E-1,1.265420913E0
1.303501306E0,-1.622138023E-1,1.196166039E0,-9.062631428E-2,1.210512139E0
1.311712575E0,-1.526002884E-1,1.131901741E0,-5.691080540E-2,1.143559023E0
1.319922344E0,-1.859698296E-1,1.079678535E0,6.826864928E-2,1.097702658E0
1.328160037E0,-5.965042114E-2,1.041410446E0,2.021314800E-1,1.062521071E0
1.336371498E0,2.041530609E-2,9.596128464E-1,2.744283676E-1,9.982908036E-1
1.344583267E0,1.006603241E-1,8.731651306E-1,2.346612811E-1,9.097338968E-1
1.352795537E0,8.779954910E-2,7.318315506E-1,1.855903864E-1,7.600855023E-1
1.361007152E0,1.565637589E-1,5.308141708E-1,1.786407232E-1,5.815396827E-1
1.369225960E0,2.146630287E-1,3.972015381E-1,1.402417123E-1,4.727758619E-1
1.377443729E0,3.314504623E-1,1.767663956E-1,8.006166667E-2,3.840776459E-1
1.385654767E0,3.739700317E-1,4.744529724E-3,6.319411844E-2,3.793014524E-1
1.393866729E0,4.309148788E-1,-1.096582413E-1,7.493644953E-4,4.446494397E-1
1.402078536E0,5.885734558E-1,-2.669181824E-1,-5.394113809E-2,6.485165189E-1
1.410322998E0,8.015689850E-1,-4.238476753E-1,-9.310060740E-2,9.114973465E-1
1.418535421E0,9.989433289E-1,-5.224370956E-1,-1.399874389E-1,1.135968651E0
1.426746844E0,1.066433430E0,-5.431513786E-1,-2.241802067E-1,1.217600281E0
1.434958959E0,1.112197876E0,-4.665784836E-1,-3.234025240E-1,1.248706847E0
1.443170229E0,1.135345459E0,-3.244581223E-1,-4.667147398E-1,1.269686982E0
1.451381959E0,1.116549015E0,-6.908035278E-2,-4.825190306E-1,1.218309654E0
1.459602421E0,1.056876659E0,2.219867706E-1,-3.469435573E-1,1.134299886E0
1.467814113E0,1.021261215E0,5.103578568E-1,-3.334165514E-1,1.189372191E0
1.476024613E0,1.014144897E0,8.148279190E-1,-2.892436385E-1,1.332702627E0
1.484234767E0,1.061163902E0,9.888648987E-1,-2.759063244E-1,1.476498193E0
1.492472421E0,1.160179138E0,1.056632042E0,-1.912272274E-1,1.580839890E0
1.500683690E0,1.234337807E0,1.042068481E0,-8.219575882E-2,1.617483442E0
1.508894267E0,1.233858109E0,9.840307236E-1,7.614362240E-2,1.580038021E0
1.517104536E0,1.190372944E0,9.548625946E-1,3.856149614E-1,1.573991493E0
1.525315574E0,1.081727505E0,8.585128784E-1,7.339096069E-1,1.563906029E0
1.533534074E0,9.169816971E-1,7.881040573E-1,9.817554355E-1,1.557500296E0
1.541752844E0,8.335995674E-1,6.613912582E-1,1.089656591E0,1.523048956E0
1.549964574E0,8.046917915E-1,5.402364731E-1,1.079728007E0,1.450929666E0
1.558176113E0,8.131794930E-1,4.746656418E-1,1.063457847E0,1.420391126E0
1.566388536E0,9.016518593E-1,4.403676987E-1,8.904366493E-1,1.341557756E0
1.574629959E0,9.825711250E-1,3.685302734E-1,6.149600148E-1,1.216320845E0
1.582842074E0,1.073847771E0,2.909860611E-1,3.844926357E-1,1.177139121E0
1.591053074E0,1.155370712E0,1.798839569E-1,2.514324188E-1,1.196017551E0
1.599265766E0,1.135408878E0,7.453250885E-2,1.717369109E-1,1.150739754E0
1.607477997E0,1.059910297E0,8.716583252E-3,1.871037036E-1,1.076333412E0
1.615689920E0,9.431529045E-1,-1.044654846E-2,3.291758299E-1,9.990011305E-1
1.623909920E0,7.874054909E-1,4.567813873E-2,4.381184578E-1,9.022425852E-1
1.632123536E0,7.084245682E-1,9.709739685E-2,4.812737107E-1,8.619267126E-1
1.640336112E0,6.237597466E-1,1.431722641E-1,5.058025718E-1,8.157271359E-1
1.648550766E0,5.968880653E-1,1.329059601E-1,4.278855026E-1,7.463413161E-1
1.656794805E0,6.459460258E-1,-1.376247406E-2,3.201820850E-1,7.210771398E-1
1.665007074E0,6.851630211E-1,-1.269426346E-1,2.057791948E-1,7.265726908E-1
1.673218074E0,7.796778679E-1,-2.470445633E-1,6.346097589E-2,8.203388869E-1
1.681430420E0,7.845311165E-1,-4.069561958E-1,-5.618159473E-2,8.855838693E-1
1.689642689E0,7.817988396E-1,-4.722304344E-1,-1.239954978E-1,9.217298369E-1
1.697863843E0,7.439050674E-1,-5.409836769E-1,-1.063333005E-1,9.259399866E-1
1.706083535E0,7.286295891E-1,-5.013961792E-1,-6.765958667E-2,8.870608921E-1
1.714295381E0,6.528530121E-1,-4.991812706E-1,3.152340651E-3,8.218326676E-1
1.722508381E0,6.929564476E-1,-5.160670280E-1,9.071198106E-2,8.687591607E-1
1.730720651E0,6.274747849E-1,-4.576272964E-1,1.975762546E-1,8.013636655E-1
1.738959189E0,4.924411774E-1,-3.381891251E-1,2.430506349E-1,6.449370578E-1
1.747172381E0,3.184781075E-1,-9.098720551E-2,2.864324152E-1,4.378932575E-1
1.755385266E0,1.268811226E-1,2.004032135E-1,2.937052846E-1,3.775222662E-1
1.763598843E0,-4.688978195E-2,4.396848679E-1,3.068029583E-1,5.381909418E-1
1.771812535E0,-2.078862190E-1,6.052246094E-1,3.553320467E-1,7.319660998E-1
1.780025266E0,-2.897324562E-1,7.421798706E-1,3.778569102E-1,8.817889210E-1
1.788245420E0,-3.333721161E-1,8.456630707E-1,4.516246915E-1,1.015011260E0
1.796457381E0,-3.054542542E-1,9.036092758E-1,5.398945808E-1,1.096037492E0
1.804668304E0,-2.754597664E-1,9.638586044E-1,5.850213766E-1,1.160668559E0
1.812880996E0,-3.076643944E-1,1.064918518E0,5.798369646E-1,1.250967520E0
1.821119343E0,-4.150695801E-1,1.226394653E0,5.231097341E-1,1.396413404E0
1.829330996E0,-4.336934090E-1,1.371212006E0,4.726681113E-1,1.513845263E0
1.837542150E0,-4.955797195E-1,1.456057549E0,3.696048856E-1,1.581869342E0
1.845755535E0,-5.790839195E-1,1.528871536E0,2.344388664E-1,1.651589520E0
1.853968573E0,-6.651916504E-1,1.558463097E0,6.230739504E-2,1.695632439E0
1.862191227E0,-6.594567299E-1,1.587195396E0,1.634615287E-2,1.718819246E0
1.870411996E0,-6.765298843E-1,1.505107880E0,2.933452465E-2,1.650425075E0
1.878623688E0,-6.563467979E-1,1.314731598E0,6.717501581E-2,1.470993806E0
1.886836265E0,-6.712536812E-1,1.152235985E0,1.687780768E-1,1.344141104E0
1.895049150E0,-8.164391518E-1,1.022741318E0,2.943663895E-1,1.341351655E0
1.903293073E0,-1.025296211E0,8.781003952E-1,3.671285510E-1,1.398955324E0
1.911505688E0,-1.037716389E0,7.824316025E-1,4.261600077E-1,1.367723243E0
1.919717034E0,-8.653945923E-1,7.957429886E-1,4.928635955E-1,1.274766343E0
1.927929150E0,-6.791319847E-1,8.758659363E-1,6.218012571E-1,1.270825792E0
1.936140804E0,-5.943069458E-1,1.047860146E0,6.082911491E-1,1.349529456E0
1.944352188E0,-6.197433472E-1,1.240351677E0,5.177680254E-1,1.480080345E0
1.952571727E0,-5.781102180E-1,1.386421204E0,3.955731392E-1,1.553336179E0
1.960782688E0,-5.437617302E-1,1.442924500E0,3.412854075E-1,1.579298471E0
1.968994919E0,-4.667353630E-1,1.349852562E0,3.521773815E-1,1.471044780E0
1.977206688E0,-4.469938278E-1,1.287123680E0,4.107473493E-1,1.423096706E0
1.985445880E0,-3.944869041E-1,1.031560898E0,5.298194289E-1,1.224927112E0
1.993656380E0,-3.202991486E-1,6.014194489E-1,6.422560215E-1,9.363704903E-1
2.001867957E0,-6.964969635E-2,3.924083710E-2,6.089531183E-1,6.141781694E-1
2.010078034E0,2.659268379E-1,-5.333442688E-1,5.025342107E-1,7.795600202E-1
2.018287957E0,6.321992874E-1,-1.094528675E0,3.328659534E-1,1.307084046E0
2.026506765E0,9.912590981E-1,-1.550852776E0,1.715910882E-1,1.848562261E0
2.034725226E0,1.236537695E0,-1.827410221E0,9.635269642E-3,2.206478286E0
2.042935419E0,1.448517799E0,-1.961537361E0,-8.333384991E-2,2.439831380E0
2.051146803E0,1.609188318E0,-2.009934902E0,-1.662616879E-1,2.580110134E0
2.059357111E0,1.779223919E0,-1.962388515E0,-2.078013271E-1,2.657026125E0
2.067595380E0,1.862742901E0,-1.696707726E0,-2.606692910E-1,2.533096267E0
2.075805995E0,1.862789631E0,-1.226750851E0,-3.073088825E-1,2.251519844E0
2.084017418E0,1.750529528E0,-6.458601952E-1,-4.634849727E-1,1.922578305E0
2.092229995E0,1.547210217E0,-4.464149475E-3,-5.876245499E-1,1.655047430E0
2.100442572E0,1.236767530E0,7.036247253E-1,-5.908336043E-1,1.540703095E0
2.108654303E0,8.443913460E-1,1.294310570E0,-6.173106432E-1,1.664124102E0
2.116873188E0,5.846147537E-1,1.693707466E0,-6.776914597E-1,1.915642218E0
2.125083995E0,3.879346848E-1,1.931426048E0,-7.338836193E-1,2.102257136E0
2.133296264E0,4.074063301E-1,1.916393280E0,-7.466551065E-1,2.096672833E0
2.141506995E0,5.348873138E-1,1.731263161E0,-6.769774556E-1,1.934340985E0
2.149749841E0,5.439381599E-1,1.436532021E0,-6.125535369E-1,1.653697313E0
2.157959803E0,5.763201714E-1,1.037261009E0,-5.744234324E-1,1.318338963E0
2.166171149E0,5.492682457E-1,6.560468674E-1,-4.238958359E-1,9.548721263E-1
2.174382841E0,5.089941025E-1,3.123035431E-1,-1.099950373E-1,6.072128191E-1
2.182594303E0,4.845333099E-1,6.827354431E-2,1.991331577E-1,5.282876298E-1
2.190816072E0,4.238142967E-1,-2.385587692E-1,4.864960909E-1,6.879006403E-1
2.199034418E0,3.128294945E-1,-4.666962624E-1,6.005047560E-1,8.223585932E-1
2.207245803E0,2.543673515E-1,-5.898904800E-1,6.411126852E-1,9.075786484E-1
2.215456533E0,3.963875771E-1,-7.016992569E-1,5.120329857E-1,9.548207878E-1
2.223667572E0,6.550054550E-1,-8.786373138E-1,2.496683002E-1,1.123997302E0
2.231905187E0,8.303761482E-1,-9.785466194E-1,-9.912528098E-2,1.287207775E0
2.240115879E0,9.618635178E-1,-1.005521774E0,-4.891147912E-1,1.474953811E0
2.248326533E0,1.047777653E0,-9.686875343E-1,-7.866986990E-1,1.629444197E0
2.256536302E0,1.064230919E0,-8.608441353E-1,-1.022697330E0,1.708669044E0
2.264747379E0,1.072995186E0,-6.966614723E-1,-1.092920661E0,1.682596638E0
2.272958533E0,1.021290779E0,-5.624241829E-1,-1.105467439E0,1.606677962E0
2.281178610E0,9.438171387E-1,-4.158210754E-1,-1.055847883E0,1.475978560E0
2.289390379E0,7.964167595E-1,-3.748602867E-1,-1.031623840E0,1.356114906E0
2.297602495E0,6.581377983E-1,-3.748993874E-1,-9.448241591E-1,1.210944922E0
2.305815495E0,4.826569557E-1,-3.494148254E-1,-8.253516555E-1,1.017965526E0
2.314055302E0,2.554597855E-1,-2.745418549E-1,-6.201131940E-1,7.246884195E-1
2.322268494E0,1.339807510E-1,-2.104759216E-1,-4.628472328E-1,5.258122442E-1
2.330482071E0,-4.066944122E-3,-2.315416336E-1,-3.238385618E-1,3.981199345E-1
2.338694802E0,-1.602334976E-1,-2.558212280E-1,-2.477335334E-1,3.905011883E-1
2.346908302E0,-3.294234276E-1,-2.711553574E-1,-1.998971403E-1,4.711728867E-1
2.355129802E0,-4.782791138E-1,-2.584981918E-1,-1.601458490E-1,5.667617831E-1
2.363350610E0,-5.850114822E-1,-2.440481186E-1,-1.604255438E-1,6.538610507E-1
2.371562840E0,-5.844030380E-1,-2.322444916E-1,-2.077975422E-1,6.623022220E-1
2.379773840E0,-6.072683334E-1,-2.057905197E-1,-2.963482141E-1,7.063616856E-1
2.387985456E0,-6.558265686E-1,-1.218662262E-1,-3.705804646E-1,7.630791217E-1
2.396229302E0,-7.681589127E-1,1.949977875E-2,-4.130491912E-1,8.723863770E-1
2.404439917E0,-9.150061607E-1,1.784839630E-1,-4.649573565E-1,1.041766837E0
2.412651494E0,-9.746346474E-1,3.213415146E-1,-5.041907430E-1,1.143407788E0
2.420863033E0,-1.033956528E0,3.481616974E-1,-4.575725198E-1,1.183070277E0
2.429076302E0,-1.052420139E0,3.511676788E-1,-3.797463477E-1,1.172652624E0
2.437288225E0,-1.120825291E0,4.573593140E-1,-2.193123102E-1,1.230253943E0
2.445508148E0,-1.249288082E0,5.802164078E-1,-4.581833631E-2,1.378213014E0
2.453721494E0,-1.398249626E0,6.400089264E-1,1.660860516E-2,1.537852167E0
2.461932763E0,-1.406093121E0,6.383810043E-1,4.615092650E-2,1.544913615E0
2.470145109E0,-1.325198174E0,5.228328705E-1,2.765519172E-2,1.424875159E0
2.478383648E0,-1.255594254E0,3.631172180E-1,-3.454933688E-2,1.307503231E0
2.486595648E0,-1.145886421E0,1.743001938E-1,-1.104053780E-1,1.164313358E0
2.494807763E0,-1.011646748E0,2.656364441E-2,-1.307400018E-1,1.020405663E0
2.503019686E0,-9.450678825E-1,-1.056575775E-1,-1.433613002E-1,9.617012471E-1
2.511231917E0,-8.837108612E-1,-1.982774734E-1,-1.544561088E-1,9.187576025E-1
2.519451609E0,-8.130397797E-1,-2.751092911E-1,-1.673816442E-1,8.744915209E-1
2.527670955E0,-7.560095787E-1,-3.511214256E-1,-2.075920701E-1,8.590292231E-1
2.535882340E0,-6.505389214E-1,-4.650068283E-1,-3.076598644E-1,8.567886733E-1
2.544094494E0,-5.225892067E-1,-5.183649063E-1,-4.049664140E-1,8.401187127E-1
2.552306186E0,-3.216252327E-1,-4.128818512E-1,-4.153670967E-1,6.681646791E-1
2.560543647E0,-2.523741722E-1,-1.286592484E-1,-2.453925312E-1,3.747844972E-1
2.568755686E0,-3.805346489E-1,3.470754623E-1,-1.991740763E-1,5.522121949E-1
2.576968878E0,-6.576371193E-1,9.648380280E-1,-2.931546867E-1,1.203884825E0
2.585180801E0,-9.239821434E-1,1.577828407E0,-4.539236426E-1,1.883967133E0
2.593392917E0,-1.088202000E0,2.019559860E0,-6.117512584E-1,2.374246243E0
2.601605147E0,-1.267909527E0,2.432491302E0,-8.193761110E-1,2.862863203E0
2.609825724E0,-1.355419159E0,2.701707840E0,-1.008615613E0,3.186485808E0
2.618037186E0,-1.491077900E0,2.704158783E0,-1.139029264E0,3.291378996E0
2.626249224E0,-1.493148804E0,2.394282341E0,-1.106603384E0,3.030949080E0
2.634461109E0,-1.301874161E0,1.705088615E0,-9.602224827E-1,2.350368212E0
2.642705993E0,-9.754605293E-1,8.148984909E-1,-6.557862163E-1,1.430258143E0
2.650919493E0,-6.782894135E-1,-8.024501801E-2,-2.353329062E-1,7.224246453E-1
2.659130993E0,-3.804869652E-1,-8.296399117E-1,2.359013408E-1,9.427206141E-1
2.667342109E0,-6.975936890E-2,-1.474687576E0,7.381710410E-1,1.650595742E0
2.675552916E0,1.457066536E-1,-1.832213879E0,1.101333976E0,2.142702651E0
2.683773185E0,2.871756554E-1,-1.905606747E0,1.286302090E0,2.316976477E0
2.691993108E0,3.324432373E-1,-1.680850506E0,1.292831302E0,2.146436513E0
2.700203993E0,4.725308418E-1,-1.265100479E0,1.114799857E0,1.751154859E0
2.708414455E0,6.488475800E-1,-7.021555901E-1,8.421849608E-1,1.274088365E0
2.716624801E0,8.218054771E-1,-1.919460297E-2,5.474228859E-1,9.876256837E-1
2.724861339E0,8.744897842E-1,6.140136719E-1,2.748676538E-1,1.103312013E0
2.733072493E0,8.081498146E-1,1.306817055E0,3.925853968E-2,1.537015995E0
2.741280608E0,8.281879425E-1,1.880125999E0,-7.578619570E-2,2.055848387E0
2.749489531E0,8.656907082E-1,2.264859200E0,-1.417094469E-1,2.428804060E0
2.757699839E0,8.690462112E-1,2.453029633E0,-9.441460669E-2,2.604133217E0
2.765910993E0,9.181914330E-1,2.407853127E0,3.067658842E-2,2.577163798E0
2.774130454E0,1.002149582E0,2.209899902E0,1.854027510E-1,2.433584916E0
2.782343531E0,1.166990757E0,1.833933353E0,4.081511796E-1,2.211733790E0
2.790556839E0,1.391215801E0,1.471426964E0,5.926409364E-1,2.109929381E0
2.798770070E0,1.557139397E0,1.016579151E0,7.326385975E-1,1.998718486E0
2.807009646E0,1.655315876E0,6.200909615E-1,8.226426840E-1,1.949698550E0
2.815223493E0,1.751332760E0,2.776684761E-1,8.495438099E-1,1.966212324E0
2.823437877E0,1.797734737E0,4.928731918E-2,8.703805804E-1,1.997959404E0
2.831651954E0,1.781001091E0,-9.561681747E-2,8.208245039E-1,1.963379823E0
2.839865377E0,1.785949707E0,-1.616101265E-1,7.163964510E-1,1.931051026E0
2.848088108E0,1.779572010E0,-1.961174011E-1,5.355570912E-1,1.868732183E0
2.856309800E0,1.759078503E0,-1.490612030E-1,3.718079329E-1,1.804111294E0
2.864523800E0,1.733938694E0,-1.090331078E-1,2.805944681E-1,1.759876379E0
2.872737377E0,1.790249825E0,-1.383152008E-1,2.402273864E-1,1.811583486E0
2.880951454E0,1.856709003E0,-1.790394783E-1,2.316238135E-1,1.879647054E0
2.889197415E0,1.844995499E0,-2.214436531E-1,1.916577220E-1,1.868094849E0
2.897408915E0,1.810740948E0,-2.555432320E-1,2.581850886E-1,1.846820149E0
2.905621992E0,1.775056362E0,-2.912569046E-1,3.267495036E-1,1.828228900E0
2.913835685E0,1.747627735E0,-3.309025764E-1,3.960813880E-1,1.822245780E0
2.922049069E0,1.689914703E0,-3.698668480E-1,4.605301917E-1,1.790167938E0
2.930261954E0,1.528095722E0,-4.078330994E-1,4.943746030E-1,1.657048769E0
2.938481838E0,1.392865658E0,-3.090896606E-1,5.737929940E-1,1.537806737E0
2.946695838E0,1.281306744E0,-1.051721573E-1,6.614280343E-1,1.445785322E0
2.954908607E0,1.123091221E0,1.050519943E-1,6.871791482E-1,1.320827390E0
2.963121415E0,9.819250107E-1,3.040847778E-1,6.627186537E-1,1.223045499E0
2.971361492E0,9.980893135E-1,4.456639290E-1,5.925029516E-1,1.243325526E0
2.979573107E0,1.003821850E0,5.894975662E-1,5.342559218E-1,1.280857165E0
2.987785223E0,1.112057686E0,7.239384651E-1,4.535749555E-1,1.402315741E0
2.995995607E0,1.191789627E0,8.447389603E-1,4.091840386E-1,1.517029335E0
3.004206338E0,1.260135651E0,9.737405777E-1,3.604728878E-1,1.632805339E0
3.012426107E0,1.236791134E0,1.162103653E0,3.618336618E-1,1.735240850E0
3.020644107E0,1.095083237E0,1.356890202E0,2.923743427E-1,1.768004828E0
3.028853723E0,9.857554436E-1,1.526934147E0,2.801595926E-1,1.838948363E0
3.037063799E0,8.234810829E-1,1.723197937E0,3.075321913E-1,1.934452965E0
3.045274184E0,6.519289017E-1,1.883881092E0,3.330430388E-1,2.021122690E0
3.053511992E0,5.448756218E-1,1.936800003E0,3.786678910E-1,2.047308738E0
3.061723069E0,4.634475708E-1,1.958092213E0,4.281149507E-1,2.057229004E0
3.069934453E0,3.684177399E-1,1.932956696E0,4.141939878E-1,2.010872914E0
3.078145492E0,2.139372826E-1,1.869282246E0,3.955523968E-1,1.922614619E0
3.086357030E0,1.210498810E-1,1.797340870E0,3.886632323E-1,1.842863637E0
3.094568107E0,5.918025970E-2,1.629509449E0,3.254939318E-1,1.662753634E0
3.102786491E0,-7.397651672E-3,1.492815495E0,3.114361763E-1,1.524973874E0
3.110998107E0,-1.269679070E-1,1.342075825E0,2.743301690E-1,1.375698154E0
3.119209530E0,-8.227634430E-2,1.066786289E0,2.136085629E-1,1.091068743E0
3.127419299E0,-1.906013489E-2,7.031660080E-1,1.281412244E-1,7.150006272E-1
3.135659914E0,5.695724487E-2,4.582161903E-1,1.156391874E-1,4.760027589E-1
3.143870837E0,1.409268379E-1,3.863220215E-1,1.617664397E-1,4.418975661E-1
3.152082299E0,1.610760689E-1,5.275707245E-1,3.584721088E-1,6.578591203E-1
3.160293722E0,6.190013885E-2,8.713908195E-1,5.594847798E-1,1.037389419E0
3.168507068E0,-2.436761856E-1,1.365145206E0,5.270762444E-1,1.483512348E0
3.176728953E0,-5.439348221E-1,1.819857121E0,4.309019446E-1,1.947670792E0
3.184948953E0,-7.662944794E-1,2.108156204E0,2.374351323E-1,2.255638547E0
3.193162260E0,-9.047126770E-1,2.213173866E0,-1.748216152E-2,2.391014265E0
3.201375068E0,-9.564671516E-1,2.064039230E0,-1.901411712E-1,2.282814277E0
3.209587953E0,-9.249782562E-1,1.607330322E0,-3.248579800E-1,1.882718313E0
3.217827414E0,-7.618174553E-1,8.816576004E-1,-3.299570978E-1,1.211015130E0
3.226039414E0,-5.163435936E-1,-1.911258698E-2,-2.169692516E-1,5.604031172E-1
3.234252106E0,-1.790122986E-1,-8.756518364E-1,-4.728284478E-2,8.950124072E-1
3.242462914E0,1.336407661E-1,-1.542334080E0,2.691460252E-1,1.571335054E0
3.250674914E0,3.250956535E-1,-1.911173820E0,5.584834814E-1,2.017467808E0
3.258888799E0,4.191946983E-1,-2.009291172E0,6.546431780E-1,2.154421709E0
3.267109491E0,4.397392273E-1,-1.858110428E0,6.481935978E-1,2.016457262E0
3.275321260E0,4.669799805E-1,-1.525240421E0,4.401166439E-1,1.654729980E0
3.283533145E0,4.128575325E-1,-1.057274818E0,9.353899956E-2,1.138872657E0
3.291747068E0,3.631634712E-1,-4.855179787E-1,-2.427414060E-1,6.530993834E-1
3.299983952E0,2.813525200E-1,9.866237640E-2,-5.732386112E-1,6.461393119E-1
3.308197068E0,2.022571564E-1,6.514301300E-1,-7.254220843E-1,9.957441298E-1
3.316409260E0,7.701301575E-2,1.042798042E0,-8.587068319E-1,1.353047000E0
3.324620952E0,-1.468753815E-2,1.233222961E0,-8.651348352E-1,1.506490252E0
3.332832914E0,4.538011551E-2,1.190505981E0,-7.529562712E-1,1.409364039E0
3.341053414E0,2.063379288E-1,9.285650253E-1,-5.762255192E-1,1.112134972E0
3.349274529E0,3.695168495E-1,5.571889877E-1,-3.902016878E-1,7.741186132E-1
3.357485414E0,5.431904793E-1,2.064056396E-1,-2.363876849E-1,6.273263285E-1
3.365696952E0,7.085561752E-1,-1.426911354E-1,-7.116992772E-2,7.262766499E-1
3.373909529E0,7.749481201E-1,-3.702116013E-1,7.089169323E-2,8.617580001E-1
3.382151183E0,8.488039970E-1,-5.544500351E-1,1.802244782E-1,1.029739739E0
3.390361529E0,8.437180519E-1,-6.429190636E-1,1.934238523E-1,1.078247588E0
3.398570529E0,9.001092911E-1,-6.649713516E-1,1.045189500E-1,1.123969682E0
3.406781221E0,9.120221138E-1,-6.162390709E-1,-2.144321799E-3,1.100699562E0
3.414992298E0,9.463167191E-1,-6.141562462E-1,-2.052802742E-1,1.146666132E0
3.423200952E0,1.000790596E0,-6.106767654E-1,-4.558727145E-1,1.257906141E0
3.431417490E0,1.010591030E0,-5.843758583E-1,-6.007450223E-1,1.312891449E0
3.439626375E0,1.050295830E0,-5.062389374E-1,-6.363674998E-1,1.328293185E0
3.447837144E0,1.027284622E0,-5.624508858E-1,-6.183409095E-1,1.324390492E0
3.456048452E0,9.082870483E-1,-5.780501366E-1,-5.810694695E-1,1.223425131E0
3.464286798E0,7.605633736E-1,-4.762687683E-1,-5.062102675E-1,1.030309381E0
3.472497182E0,6.292943954E-1,-3.842306137E-1,-4.430515468E-1,8.601972296E-1
3.480707298E0,4.300560951E-1,-2.736687660E-1,-4.480120540E-1,6.786439707E-1
3.488918682E0,2.079343796E-1,-1.544551849E-1,-5.043342710E-1,5.669622273E-1
3.497129913E0,1.055197716E-1,-1.231112480E-1,-5.566308498E-1,5.797660775E-1
3.505348144E0,1.103940010E-1,-2.182531357E-1,-6.079624295E-1,6.553163987E-1
3.513565605E0,3.654575348E-2,-3.244261742E-1,-6.813693047E-1,7.555475259E-1
3.521775644E0,-7.819652557E-3,-4.556417465E-1,-7.091714740E-1,8.429678094E-1
3.529985413E0,-5.789756775E-3,-6.118650436E-1,-6.559644938E-1,8.970517098E-1
3.538194644E0,3.482961655E-2,-7.558631897E-1,-6.336091757E-1,9.869158278E-1
3.546433490E0,7.178401947E-2,-8.607320786E-1,-5.848895907E-1,1.043124388E0
3.554645105E0,7.210969925E-2,-8.542823792E-1,-5.529743433E-1,1.020185677E0
3.562857297E0,9.762763977E-3,-7.554883957E-1,-5.582289100E-1,9.394027589E-1
3.571069990E0,-9.811639786E-2,-5.760798454E-1,-5.899769664E-1,8.304020934E-1
3.579280990E0,-2.314963341E-1,-3.202762604E-1,-5.741642118E-1,6.970164831E-1
3.587493067E0,-3.479290009E-1,-4.599094391E-2,-5.547749996E-1,6.564640560E-1
3.595712067E0,-4.713459015E-1,2.132596970E-1,-5.658864975E-1,7.667295385E-1
3.603923297E0,-6.400594711E-1,4.766483307E-1,-6.511611938E-1,1.029990611E0
3.612135874E0,-7.501020432E-1,7.145614624E-1,-6.771221161E-1,1.237637071E0
3.620347490E0,-8.141818047E-1,8.459024429E-1,-6.756532788E-1,1.354603376E0
3.628590797E0,-7.681226730E-1,9.158353806E-1,-5.983710289E-1,1.336717911E0
3.636801951E0,-7.215628624E-1,8.648242950E-1,-4.744307101E-1,1.222153233E0
3.645012643E0,-6.902399063E-1,7.198905945E-1,-3.494584560E-1,1.056785129E0
3.653223336E0,-6.400022507E-1,5.795965195E-1,-1.670367718E-1,8.794522667E-1
3.661433951E0,-6.203675270E-1,4.324522018E-1,6.814070046E-3,7.562520790E-1
3.669669143E0,-5.975022316E-1,2.642726898E-1,1.545785666E-1,6.713743401E-1
3.677887335E0,-5.906696320E-1,1.395864487E-1,2.580558956E-1,6.595209140E-1
3.686100489E0,-5.209803581E-1,-1.352500916E-2,3.313283324E-1,6.175612709E-1
3.694311989E0,-4.264636040E-1,-1.421742439E-1,2.989320755E-1,5.398565614E-1
3.702521874E0,-3.048076630E-1,-2.176728249E-1,1.989051998E-1,4.240901420E-1
3.710759374E0,-1.367969513E-1,-1.426281929E-1,1.002922654E-2,1.978807537E-1
3.718969951E0,1.517391205E-2,1.388206482E-1,-7.663492113E-2,1.592932237E-1
3.727179758E0,2.780437469E-2,6.347026825E-1,-1.113248169E-1,6.449913126E-1
3.735390143E0,-1.006789207E-1,1.225744247E0,-2.606245577E-1,1.257183505E0
3.743599874E0,-3.065724373E-1,1.861022949E0,-4.663903117E-1,1.942913534E0
3.751810681E0,-6.465048790E-1,2.628035545E0,-6.136565208E-1,2.775088055E0
3.760027835E0,-9.905014038E-1,3.202396393E0,-8.168511987E-1,3.450171238E0
3.768237989E0,-1.197827339E0,3.462425232E0,-9.539204836E-1,3.785913775E0
3.776446489E0,-1.335002422E0,3.363815308E0,-9.443047643E-1,3.740213414E0
3.784657027E0,-1.283240318E0,2.903641701E0,-8.408119678E-1,3.284022778E0
3.792892720E0,-1.132970333E0,2.089553833E0,-6.516472101E-1,2.464650296E0
3.801102181E0,-8.987140656E-1,1.148134232E0,-4.011904001E-1,1.512234414E0
3.809313489E0,-7.017788887E-1,3.064918518E-1,-4.868745804E-2,7.673339119E-1
3.817524489E0,-4.988331795E-1,-6.492571831E-1,3.714645505E-1,8.990858374E-1
3.825735527E0,-2.809362411E-1,-1.421194077E0,8.271069527E-1,1.668179752E0
3.833956450E0,-6.872844696E-2,-1.961824417E0,1.222392797E0,2.312514388E0
3.842175835E0,6.388807297E-2,-2.195237160E0,1.460886240E0,2.637676341E0
3.850387258E0,1.975898743E-1,-2.146625519E0,1.544292212E0,2.651769468E0
3.858598142E0,2.851457596E-1,-1.874400139E0,1.454844594E0,2.389823587E0
3.866811527E0,4.137773514E-1,-1.407973766E0,1.118794799E0,1.845346478E0
3.875053873E0,5.316748619E-1,-8.655443192E-1,7.859291434E-1,1.284340199E0
3.883265835E0,6.112437248E-1,-1.616725922E-1,5.121411681E-1,8.136617813E-1
3.891477604E0,6.723685265E-1,5.828485489E-1,2.466661930E-1,9.233829526E-1
3.899688296E0,7.266764641E-1,1.281588554E0,1.556678265E-1,1.481472368E0
3.907900065E0,7.196049690E-1,1.878183365E0,1.247910485E-1,2.015186559E0
3.916110950E0,7.490763664E-1,2.245567322E0,1.000710204E-1,2.369325264E0
3.924331219E0,7.770814896E-1,2.504476547E0,1.324135065E-1,2.625603122E0
3.932543681E0,7.713813782E-1,2.587220192E0,2.608738840E-1,2.712340822E0
3.940755104E0,7.645893097E-1,2.495723724E0,3.997241259E-1,2.640646341E0
3.948966950E0,8.386855125E-1,2.231194973E0,5.325573087E-1,2.442384426E0
3.957203411E0,1.035817623E0,1.797721863E0,7.499135137E-1,2.206148753E0
3.965413796E0,1.285165310E0,1.334707260E0,8.983452916E-1,2.059154586E0
3.973625373E0,1.474802494E0,9.475789070E-1,1.024862766E0,2.030589045E0
3.981835834E0,1.539327145E0,5.892605782E-1,1.087664843E0,1.974783760E0
3.990046488E0,1.559174538E0,3.872251511E-1,1.159052610E0,1.981002653E0
3.998264603E0,1.537793159E0,3.084435463E-1,1.230292320E0,1.993380148E0
4.006483142E0,1.485358715E0,3.245153427E-1,1.258179903E0,1.973478500E0
4.014694680E0,1.432810307E0,3.349218369E-1,1.247799873E0,1.929280315E0
4.022906065E0,1.465666771E0,3.490486145E-1,1.198251247E0,1.925050667E0
4.031117142E0,1.541472912E0,3.533029556E-1,1.032551527E0,1.888683238E0
4.039328257E0,1.699294567E0,3.125319481E-1,8.542559147E-1,1.927441675E0
4.047539565E0,1.850669384E0,2.700705528E-1,7.072410583E-1,1.999526241E0
4.055750142E0,1.981589556E0,2.597699165E-1,6.102712154E-1,2.089643159E0
4.063961719E0,2.123785257E0,2.461495399E-1,5.522744060E-1,2.208180345E0
4.072172642E0,2.217220306E0,2.602152824E-1,5.564233065E-1,2.300735703E0
4.080383065E0,2.206579208E0,3.089528084E-1,5.231804252E-1,2.288702995E0
4.088601257E0,2.117279768E0,4.204096794E-1,3.865449131E-1,2.192951181E0
4.096811565E0,2.036256552E0,5.909199715E-1,2.528969049E-1,2.135294828E0
4.105021988E0,2.014955282E0,6.903100014E-1,1.691004336E-1,2.136625293E0
4.113231718E0,2.038136244E0,7.107148170E-1,5.954933912E-2,2.159319574E0
4.121473334E0,2.012215376E0,6.831007004E-1,1.705692708E-2,2.125071346E0
4.129683757E0,1.985749960E0,6.581926346E-1,1.014583856E-1,2.094448436E0
4.137894026E0,1.946838856E0,6.743655205E-1,2.670914531E-1,2.077567864E0
4.146104795E0,1.851166725E0,6.630349159E-1,4.243465364E-1,2.011592286E0
4.154315757E0,1.739634991E0,6.866002083E-1,6.255372167E-1,1.972066570E0
4.162533987E0,1.526109695E0,8.169231415E-1,7.910399437E-1,1.903186384E0
4.170753218E0,1.322625637E0,9.770531654E-1,8.827075362E-1,1.866318316E0
4.178962949E0,1.152947426E0,1.121401310E0,9.152303934E-1,1.850533798E0
4.187173564E0,1.033137798E0,1.223140240E0,9.049170613E-1,1.839108655E0
4.195383680E0,9.293184280E-1,1.289219856E0,8.418003917E-1,1.798429448E0
4.203620757E0,8.205604553E-1,1.285347939E0,7.023316622E-1,1.678900994E0
4.211830872E0,7.084369659E-1,1.329703331E0,5.667542219E-1,1.609721787E0
4.220041103E0,4.846477509E-1,1.371393204E0,4.006818533E-1,1.508691058E0
4.228253564E0,2.949233055E-1,1.350158691E0,3.134238720E-1,1.417089543E0
4.236463603E0,2.181701660E-1,1.185130119E0,3.339215815E-1,1.250454015E0
4.244674179E0,1.624736786E-1,9.665412903E-1,4.125537872E-1,1.063390986E0
4.252892410E0,1.035909653E-1,7.970504761E-1,4.976373911E-1,9.453377822E-1
4.261103526E0,7.249355316E-2,5.855741501E-1,5.155971050E-1,7.835769108E-1
4.269313564E0,1.125874519E-1,4.416475296E-1,4.162637591E-1,6.172552081E-1
4.277524795E0,1.532378197E-1,3.891391754E-1,2.632432580E-1,4.941742002E-1
4.285763256E0,1.756300926E-1,3.325510025E-1,2.487608790E-2,3.769017358E-1
4.293975987E0,1.302013397E-1,3.010692596E-1,-1.546571851E-1,3.626484977E-1
4.302188718E0,8.868360519E-2,2.682733536E-1,-2.228676975E-1,3.598685658E-1
4.310402371E0,2.939701080E-3,2.627220154E-1,-2.228615582E-1,3.445268833E-1
4.318615371E0,-1.014895439E-1,2.903575897E-1,-9.777650237E-2,3.227505257E-1
4.326836102E0,-1.600480080E-1,3.269872665E-1,9.729133546E-2,3.768310514E-1
4.335057410E0,-1.577372551E-1,4.200239182E-1,3.463119864E-1,5.667743161E-1
4.343269641E0,-1.018428802E-1,6.006155014E-1,6.552441120E-1,8.946819542E-1
4.351482410E0,-5.739974976E-2,1.022529602E0,9.044716358E-1,1.366356637E0
4.359693910E0,-9.270477295E-2,1.535112381E0,1.088606596E0,1.884205010E0
4.367938179E0,-2.453584671E-1,2.061582565E0,1.014337540E0,2.310671784E0
4.376150410E0,-4.580955505E-1,2.508698463E0,7.805331349E-1,2.666955472E0
4.384362179E0,-5.960431099E-1,2.802306175E0,4.710091949E-1,2.903452591E0
4.392574679E0,-4.801168442E-1,2.852207184E0,2.421692014E-1,2.902454810E0
4.400786410E0,-3.771581650E-1,2.571515083E0,-4.609656334E-2,2.599435131E0
4.408998256E0,-2.757263184E-1,2.081859589E0,-2.971969247E-1,2.120964488E0
4.417219333E0,-8.764505386E-2,1.516496658E0,-3.128414154E-1,1.550907322E0
4.425432333E0,3.297271729E-1,6.960792542E-1,-2.447781563E-1,8.081848071E-1
4.433643909E0,6.346426010E-1,-5.950450897E-2,1.089435816E-2,6.375191798E-1
4.441854794E0,9.893183708E-1,-7.069058418E-1,3.063847423E-1,1.253929152E0
4.450093563E0,1.228310108E0,-1.082285881E0,5.953525305E-1,1.741991127E0
4.458304063E0,1.289118290E0,-1.263180256E0,7.488216758E-1,1.954017458E0
4.466515140E0,1.245021343E0,-1.363175869E0,6.685720682E-1,1.963495660E0
4.474725217E0,1.340180397E0,-1.415273666E0,5.464306474E-1,2.024270115E0
4.482935871E0,1.447186708E0,-1.390724182E0,4.522290826E-1,2.057419321E0
4.491155409E0,1.589680433E0,-1.275045872E0,3.530985415E-1,2.068212860E0
4.499373832E0,1.736450195E0,-1.024877071E0,3.133800328E-1,2.040548783E0
4.507584909E0,1.806747913E0,-6.564331055E-1,2.939364910E-1,1.944644210E0
4.515794986E0,1.879993200E0,-1.334276199E-1,2.084077895E-1,1.896209685E0
4.524004832E0,1.785686970E0,5.008840561E-1,8.755201101E-2,1.856671254E0
4.532241678E0,1.702980995E0,1.138601303E0,-1.071313024E-2,2.048578036E0
4.540452640E0,1.594031572E0,1.663880348E0,-5.306583643E-2,2.304831979E0
4.548663909E0,1.523782969E0,1.963196754E0,-1.806611419E-1,2.491725202E0
4.556873947E0,1.427863359E0,2.251007080E0,-4.408022165E-1,2.701875875E0
4.565083447E0,1.337422371E0,2.454286575E0,-6.244695187E-1,2.863945421E0
4.573292294E0,1.252758026E0,2.528737068E0,-6.733814478E-1,2.901268069E0
4.581509332E0,1.133886576E0,2.448962212E0,-7.245063782E-1,2.794284197E0
4.589719178E0,1.091393709E0,2.215498924E0,-5.675170422E-1,2.534097730E0
4.597928793E0,1.045716524E0,1.915860176E0,-3.345727324E-1,2.208162625E0
4.606138178E0,8.910555840E-1,1.489177704E0,-9.484195709E-2,1.737994616E0
4.614380447E0,7.595305443E-1,1.129104614E0,3.261585236E-1,1.399336721E0
4.622589909E0,7.116627693E-1,6.849308014E-1,7.356342673E-1,1.231564808E0
4.630800832E0,6.529426575E-1,2.294130325E-1,1.194949746E0,1.380894402E0
4.639010063E0,5.820608139E-1,-1.402616501E-1,1.420310736E0,1.541347043E0
4.647221139E0,5.310168266E-1,-4.519557953E-1,1.310630560E0,1.484585927E0
4.655438678E0,5.389809608E-1,-6.687126160E-1,1.109053969E0,1.402739372E0
4.663656332E0,6.537938118E-1,-8.713321686E-1,7.705705166E-1,1.334333173E0
4.671866409E0,7.081022263E-1,-9.765033722E-1,3.606593907E-1,1.258984827E0
4.680075101E0,7.835848331E-1,-1.036627769E0,-6.286007166E-2,1.300981826E0
4.688284062E0,8.086903095E-1,-1.087415218E0,-3.991848826E-1,1.412728015E0
4.696520139E0,9.253802299E-1,-1.123769760E0,-6.684094071E-1,1.601860849E0
4.704730216E0,9.471058846E-1,-1.131380558E0,-7.967178226E-1,1.676839531E0
4.712940831E0,9.606137276E-1,-1.150666237E0,-8.494942784E-1,1.722919630E0
4.721150908E0,8.987526894E-1,-1.069234371E0,-7.956925631E-1,1.607527664E0
4.729360985E0,7.973434925E-1,-1.004499912E0,-6.143908501E-1,1.422059364E0
4.737571870E0,5.787405968E-1,-8.685026169E-1,-4.534755349E-1,1.137926858E0
4.745790716E0,3.422722816E-1,-7.075147629E-1,-2.417145967E-1,8.222854740E-1
4.754001908E0,1.755390167E-1,-5.126028061E-1,-5.838394165E-2,5.449626298E-1
4.762212716E0,-5.184125900E-2,-3.370857239E-1,9.018808603E-2,3.527721534E-1
4.770424408E0,-3.015618324E-1,-2.241954803E-1,1.279206872E-1,3.969469163E-1
4.778661870E0,-4.982666969E-1,-1.244688034E-1,1.890503168E-1,5.472679477E-1
4.786872793E0,-7.283697128E-1,-2.141857147E-2,2.431567609E-1,7.681838349E-1
4.795082831E0,-8.960714340E-1,1.780605316E-2,2.961245179E-1,9.439019020E-1
4.803292447E0,-1.031218052E0,-3.972911835E-2,3.331517875E-1,1.084425741E0
4.811503523E0,-1.166062832E0,-5.457019806E-2,3.417908251E-1,1.216347567E0
4.819723293E0,-1.218446255E0,-8.859920502E-2,4.320233762E-1,1.295802953E0
4.827943908E0,-1.249481678E0,-8.846092224E-2,5.261147022E-1,1.358611968E0
4.836155177E0,-1.206423759E0,-1.616315842E-1,5.309331417E-1,1.327958229E0
4.844365869E0,-1.205128193E0,-1.852941513E-1,5.466623902E-1,1.336228892E0
4.852576523E0,-1.137322426E0,-8.721637726E-2,5.845341682E-1,1.281713381E0
4.860820523E0,-1.089488029E0,-1.581668854E-2,6.059091091E-1,1.246739822E0
4.869032408E0,-1.059675217E0,7.196140289E-2,5.845315456E-1,1.212339530E0
4.877243408E0,-9.508481026E-1,1.086568832E-1,5.872265100E-1,1.122832760E0
4.885454523E0,-7.902784348E-1,1.225824356E-1,5.814033151E-1,9.887346827E-1
4.893666792E0,-5.685806274E-1,8.498287201E-2,5.011634231E-1,7.626734524E-1
4.901879331E0,-3.143815994E-1,7.009220123E-2,4.344661534E-1,5.408415158E-1
4.910098831E0,-6.663036346E-2,9.423732758E-2,3.386690319E-1,3.577946232E-1
4.918309138E0,1.417150497E-1,2.294816971E-1,2.918758988E-1,3.974123110E-1
4.926520561E0,2.913875580E-1,4.302473068E-1,3.865399361E-1,6.476361449E-1
4.934730908E0,3.463182449E-1,7.035980225E-1,5.189378858E-1,9.403632454E-1
4.942968600E0,3.375296593E-1,9.848928452E-1,6.248947978E-1,1.214262614E0
4.951180215E0,2.607507706E-1,1.194152832E0,6.180585623E-1,1.369667236E0
4.959391792E0,2.654271126E-1,1.361721039E0,6.509706378E-1,1.532481162E0
4.967603600E0,3.609209061E-1,1.396393776E0,6.842226982E-1,1.596352147E0
4.975814369E0,4.742183685E-1,1.323857307E0,7.512995005E-1,1.594343806E0
4.984033830E0,6.243762970E-1,1.236474991E0,8.819648027E-1,1.642126084E0
4.992253215E0,6.945409775E-1,1.132758141E0,1.079957485E0,1.712260595E0
5.000464753E0,7.995276451E-1,1.093942642E0,1.277748942E0,1.862417064E0
5.008675792E0,8.057093620E-1,1.112216949E0,1.467483878E0,2.009901254E0
5.016887523E0,8.121423721E-1,1.216806412E0,1.668593645E0,2.219098427E0
5.025124292E0,7.571749687E-1,1.396169662E0,1.901358724E0,2.477452049E0
5.033334984E0,6.726150513E-1,1.567049026E0,2.150543451E0,2.744611228E0
5.041546330E0,5.798954964E-1,1.763044357E0,2.335977316E0,2.983520440E0
5.049756599E0,4.623131752E-1,1.922197342E0,2.421331167E0,3.125927177E0
5.057966984E0,3.832879066E-1,2.019867897E0,2.401003122E0,3.160947949E0
5.066177407E0,3.125004768E-1,2.062261581E0,2.345393658E0,3.138702086E0
5.074395715E0,2.615804672E-1,2.029747009E0,2.287778378E0,3.069564654E0
5.082606445E0,2.366962433E-1,1.904747009E0,2.283540726E0,2.983059592E0
5.090817676E0,2.839918137E-1,1.737625122E0,2.282998800E0,2.883067106E0
5.099028830E0,3.106799126E-1,1.458855629E0,2.300096512E0,2.741391201E0
5.107273176E0,3.706350327E-1,1.138446808E0,2.480751038E0,2.754552082E0
5.115484907E0,3.977231979E-1,8.172922134E-1,2.648332834E0,2.799967340E0
5.123695253E0,4.335036278E-1,5.675601959E-1,2.888367176E0,2.975351225E0
5.131905753E0,4.880437851E-1,4.110927582E-1,3.014338970E0,3.081139954E0
5.140115907E0,5.135898590E-1,3.003292084E-1,2.987226963E0,3.045898407E0
5.148335368E0,6.130995750E-1,1.852998734E-1,2.861721039E0,2.932520151E0
5.156553522E0,6.762242317E-1,1.571149826E-1,2.737562180E0,2.824218656E0
5.164764137E0,7.796840668E-1,1.657905579E-1,2.575608730E0,2.696136882E0
5.172976368E0,7.793946266E-1,2.232666016E-1,2.384493351E0,2.518553652E0
5.181187214E0,7.615332603E-1,3.225994110E-1,2.273830891E0,2.419568186E0
5.189425137E0,7.923488617E-1,4.562807083E-1,2.239798784E0,2.419236945E0
5.197635637E0,8.158850670E-1,5.593528748E-1,2.193072557E0,2.405849397E0
5.205846560E0,8.267960548E-1,6.532363892E-1,2.109025002E0,2.357603858E0
5.214058099E0,8.320813179E-1,6.779136658E-1,2.092757225E0,2.351926670E0
5.222268676E0,8.436665535E-1,7.122459412E-1,2.093044281E0,2.366411185E0
5.230480714E0,8.328728676E-1,7.512779236E-1,2.089101553E0,2.371168706E0
5.238698791E0,8.804717064E-1,7.490520477E-1,2.135195255E0,2.428037927E0
5.246909983E0,9.436101913E-1,7.008476257E-1,2.233117104E0,2.523568819E0
5.255119868E0,9.741163254E-1,6.160354614E-1,2.344222546E0,2.612236905E0
5.263331099E0,9.621677399E-1,6.021947861E-1,2.396625042E0,2.651832746E0
5.271569214E0,9.286336899E-1,6.088094711E-1,2.362816334E0,2.610729884E0
5.279779522E0,9.440183640E-1,5.753078461E-1,2.303048611E0,2.554639445E0
5.287989714E0,9.715232849E-1,4.748201370E-1,2.185930014E0,2.438770526E0
5.296199945E0,9.803047180E-1,3.027448654E-1,2.212608099E0,2.438910903E0
5.304411022E0,1.054959774E0,1.287975311E-1,2.309655666E0,2.542447291E0
5.312625637E0,1.006815910E0,-4.202175140E-2,2.399903774E0,2.602879604E0
5.320844291E0,9.291982651E-1,-1.531133652E-1,2.467782974E0,2.641364406E0
5.329054368E0,7.945337296E-1,-2.160654068E-1,2.630922794E0,2.756759485E0
5.337264175E0,6.395659447E-1,-2.065639496E-1,2.797688961E0,2.877286358E0
5.345473791E0,4.550280571E-1,-1.150617599E-1,2.969164848E0,3.006032208E0
5.353715868E0,3.007130623E-1,-1.443862915E-3,3.097668171E0,3.112230475E0
5.361926098E0,2.079172134E-1,1.320295334E-1,3.123725414E0,3.133420149E0
5.370136252E0,8.814620972E-2,2.853441238E-1,3.032642365E0,3.047312051E0
5.378347060E0,-6.662750244E-2,5.156221390E-1,2.837373257E0,2.884613044E0
5.386556675E0,-1.849608421E-1,7.154445648E-1,2.704293251E0,2.803439571E0
5.394766406E0,-2.252731323E-1,8.505430222E-1,2.595633030E0,2.740708347E0
5.402983598E0,-1.643562317E-1,8.868904114E-1,2.568158627E0,2.721952664E0
5.411192906E0,-9.749603271E-2,8.702774048E-1,2.542944908E0,2.689508699E0
5.419402213E0,-1.250548363E-1,8.655109406E-1,2.510590792E0,2.658536068E0
5.427611752E0,-1.472768784E-1,8.744344711E-1,2.455976486E0,2.611158100E0
5.435848675E0,-1.885280609E-1,9.159479141E-1,2.338115931E0,2.518191715E0
5.444058983E0,-3.488774300E-1,8.824043274E-1,2.208521366E0,2.403730327E0
5.452268367E0,-4.640817642E-1,7.897825241E-1,2.123073101E0,2.312264628E0
5.460476713E0,-5.321569443E-1,6.542634964E-1,2.194640160E0,2.351105520E0
5.468684790E0,-5.530357361E-1,4.085474014E-1,2.222769260E0,2.326684914E0
5.476900906E0,-6.113867760E-1,1.705713272E-1,2.254201889E0,2.341861337E0
5.485118098E0,-7.398114204E-1,1.258945465E-2,2.300536394E0,2.416598256E0
5.493327944E0,-7.972617149E-1,-6.289958954E-2,2.185824871E0,2.327533666E0
5.501536828E0,-9.274291992E-1,-1.609153748E-1,1.928645611E0,2.146087736E0
5.509745982E0,-1.165785313E0,-2.283344269E-1,1.563650966E0,1.963720028E0
5.517981752E0,-1.311131954E0,-3.537616730E-1,1.207726598E0,1.817365637E0
5.526190713E0,-1.401246071E0,-4.914131165E-1,9.829827547E-1,1.780795468E0
5.534399944E0,-1.392210007E0,-6.694879532E-1,9.092050195E-1,1.792516831E0
5.542609213E0,-1.378882885E0,-9.015941620E-1,9.211091399E-1,1.887493600E0
5.550816636E0,-1.469828606E0,-1.042920589E0,9.110054374E-1,2.019408426E0
5.559024482E0,-1.607100487E0,-1.085799217E0,9.261466265E-1,2.149297441E0
5.567241444E0,-1.787848949E0,-1.080280304E0,9.717044830E-1,2.303827034E0
5.575450328E0,-2.020364761E0,-1.036519527E0,9.567322731E-1,2.464058267E0
5.583659328E0,-2.230500221E0,-9.569482803E-1,9.579652548E-1,2.609325330E0
5.591869405E0,-2.400080204E0,-8.589172363E-1,9.364850521E-1,2.715718700E0
5.600111444E0,-2.553689480E0,-8.339171410E-1,9.198215008E-1,2.839510407E0
5.608320867E0,-2.614647865E0,-8.270931244E-1,9.280536175E-1,2.895125215E0
5.616531136E0,-2.711216927E0,-8.454446793E-1,9.687904119E-1,3.000671390E0
5.624740443E0,-2.752588749E0,-8.772239685E-1,1.034071445E0,3.068480156E0
5.632950597E0,-2.706999302E0,-9.246096611E-1,1.075408697E0,3.056018997E0
5.641170020E0,-2.746955872E0,-9.373493195E-1,1.143276930E0,3.119530805E0
5.649387982E0,-2.764139652E0,-9.775032997E-1,1.110167503E0,3.135036300E0
5.657598289E0,-2.669982433E0,-1.040180206E0,1.022094965E0,3.042278615E0
5.665807905E0,-2.567433357E0,-1.094242573E0,9.173126817E-1,2.937778652E0
5.674016559E0,-2.483489037E0,-1.123129368E0,7.724792361E-1,2.832995154E0
5.682251251E0,-2.366029739E0,-1.139022827E0,6.141238809E-1,2.696779166E0
5.690460443E0,-2.188632011E0,-1.204093933E0,4.471095800E-1,2.537687778E0
5.698670597E0,-2.006554127E0,-1.289685726E0,2.809013128E-1,2.401760663E0
5.706881482E0,-1.865252018E0,-1.223336697E0,1.731666327E-1,2.237343167E0
5.715091482E0,-1.830201626E0,-1.053338051E0,8.790624142E-2,2.113501017E0
5.723302366E0,-1.916959286E0,-9.094624519E-1,4.020011425E-2,2.122138286E0
5.731521097E0,-1.974271774E0,-7.807574272E-1,3.974449635E-2,2.123419606E0
5.739731789E0,-1.991240501E0,-6.918206215E-1,9.087681770E-2,2.109955711E0
5.747942866E0,-2.057057858E0,-6.526465416E-1,1.907715797E-1,2.166524482E0
5.756152404E0,-2.136310577E0,-5.868239403E-1,1.293933392E-1,2.219217848E0
5.764388904E0,-2.185348034E0,-6.761250496E-1,6.654250622E-2,2.288518957E0
5.772599674E0,-2.211434364E0,-7.603530884E-1,2.269518375E-2,2.338609381E0
5.780810597E0,-2.261675835E0,-8.295288086E-1,6.231713295E-2,2.409808924E0
5.789020443E0,-2.309376240E0,-9.266438484E-1,2.085831165E-1,2.497077162E0
5.797230097E0,-2.249082565E0,-1.022837639E0,2.893822193E-1,2.487631663E0
5.805448443E0,-2.293473721E0,-1.148754120E0,2.227175236E-1,2.574735099E0
5.813666327E0,-2.302835464E0,-1.320580006E0,9.312951565E-2,2.656248451E0
5.821875827E0,-2.186133862E0,-1.408949375E0,-2.724575996E-2,2.600973267E0
5.830086520E0,-2.124076843E0,-1.396471500E0,-4.793834686E-2,2.542465963E0
5.838294943E0,-2.041499615E0,-1.421346188E0,-1.137988567E-1,2.490159802E0
5.846536212E0,-2.050677299E0,-1.413960457E0,-2.172246575E-1,2.500349598E0
5.854746289E0,-2.057592392E0,-1.400276661E0,-2.095423341E-1,2.497672750E0
5.862955366E0,-2.071559906E0,-1.416055202E0,-1.481347680E-1,2.513665986E0
5.871163981E0,-2.102009296E0,-1.403905869E0,-4.657703638E-2,2.528154305E0
5.879371596E0,-2.072694302E0,-1.335223198E0,8.859014511E-2,2.467130088E0
5.887582096E0,-2.016624451E0,-1.339022160E0,2.163414359E-1,2.430341156E0
5.895801173E0,-1.970222950E0,-1.295826435E0,2.028647661E-1,2.366875311E0
5.904012750E0,-1.944169998E0,-1.189504147E0,1.891606450E-1,2.287028388E0
5.912224788E0,-1.812407017E0,-1.070852280E0,1.098187566E-1,2.107985759E0
5.920435596E0,-1.603538513E0,-9.182562828E-1,9.961962700E-3,1.847871642E0
5.928675596E0,-1.384785175E0,-6.073479652E-1,-7.754969597E-2,1.514105508E0
5.936886865E0,-1.288219929E0,-1.849651337E-2,-2.155705094E-1,1.306263124E0
5.945099519E0,-1.417574406E0,7.474174500E-1,-5.429238081E-1,1.692015455E0
5.953312365E0,-1.669639111E0,1.561473846E0,-1.074513078E0,2.525959954E0
5.961525827E0,-1.887193680E0,2.089759827E0,-1.501090288E0,3.190903974E0
5.968658634E0,-2.226311684E0,2.420561790E0,-1.893037796E0,3.794624513E0
5.976879173E0,-2.390419960E0,2.383711815E0,-2.198356628E0,4.028518520E0
5.985090673E0,-2.271192551E0,1.780474663E0,-2.088904858E0,3.562573386E0
5.993302519E0,-1.892840862E0,8.404827118E-1,-1.563634157E0,2.595035548E0
6.001514134E0,-1.536125660E0,-1.609458923E-1,-8.431360722E-1,1.759677260E0
6.009752480E0,-1.273185730E0,-9.243330956E-1,-1.307692528E-1,1.578763495E0
6.017964057E0,-1.100377083E0,-1.495387554E0,5.013473630E-1,1.923112800E0
6.026176480E0,-1.091119289E0,-1.781157970E0,9.970037937E-1,2.314537013E0
6.034387788E0,-1.026866913E0,-1.852986813E0,1.207972407E0,2.438690862E0
6.042600019E0,-9.284262657E-1,-1.697355270E0,1.128075838E0,2.239541324E0
6.050812557E0,-6.978664398E-1,-1.430599689E0,8.162719607E-1,1.788835642E0
6.059031711E0,-3.535609245E-1,-1.108644962E0,3.627274036E-1,1.218880695E0
6.067244903E0,-9.252548218E-3,-7.632856369E-1,-1.419438422E-1,7.764268333E-1
6.075457442E0,2.901763916E-1,-3.477244377E-1,-6.136597395E-1,7.626879432E-1
6.083670057E0,5.043578148E-1,1.549930573E-1,-9.428113103E-1,1.080413264E0
6.091912365E0,5.923624039E-1,6.584835052E-1,-1.199103951E0,1.490752840E0
6.100121672E0,6.028599739E-1,1.015606880E0,-1.318099260E0,1.769825738E0
6.108331826E0,5.457215309E-1,1.268018723E0,-1.279002905E0,1.881895826E0
6.116541903E0,5.879511833E-1,1.353000641E0,-1.097162724E0,1.838494865E0
6.124751903E0,6.511688232E-1,1.231012344E0,-8.251169920E-1,1.618712537E0
6.132970365E0,7.013025284E-1,9.567251205E-1,-5.089946389E-1,1.290822891E0
6.141190749E0,7.838740349E-1,5.469465256E-1,-1.436556131E-1,9.665639863E-1
6.149402018E0,9.167509079E-1,8.864402771E-2,2.874684632E-1,9.648461577E-1
6.157612480E0,9.433450699E-1,-2.807331085E-1,6.249222755E-1,1.165863993E0
6.165822326E0,9.309120178E-1,-5.259547234E-1,8.528007865E-1,1.367660315E0
6.174060826E0,9.046516418E-1,-6.606068611E-1,1.050100923E0,1.535417847E0
6.182271980E0,9.369888306E-1,-6.891422272E-1,1.175012112E0,1.653335580E0
6.190482864E0,8.843541145E-1,-5.995750427E-1,1.236956477E0,1.634513309E0
6.198692518E0,8.545536995E-1,-3.823184967E-1,1.219188809E0,1.537156730E0
6.206902826E0,8.206462860E-1,-1.646718979E-1,1.064507604E0,1.354161585E0
6.215114018E0,7.988710403E-1,6.499671936E-2,9.080913067E-1,1.211218120E0
6.223332633E0,7.835607529E-1,3.109121323E-1,7.392457128E-1,1.121212750E0
6.231542287E0,6.948451996E-1,4.599952698E-1,6.021727324E-1,1.028113563E0
6.239750787E0,6.471285820E-1,6.531705856E-1,5.959390402E-1,1.095696379E0
6.247960787E0,6.322035789E-1,7.604827881E-1,6.113239527E-1,1.162640276E0
6.256178479E0,6.506175995E-1,7.559843063E-1,5.661407709E-1,1.146878766E0
6.264389403E0,6.451287270E-1,7.140474319E-1,5.805760622E-1,1.123887616E0
6.272599249E0,6.404714584E-1,6.064720154E-1,6.426447630E-1,1.091331428E0
6.280809210E0,4.920735359E-1,4.724531174E-1,7.873284817E-1,1.041745867E0
6.289018825E0,3.869290352E-1,3.666086197E-1,9.625961781E-1,1.100321480E0
6.297235787E0,2.416853905E-1,3.274917603E-1,1.078606248E0,1.152846095E0
6.305453095E0,8.300828934E-2,3.241624832E-1,1.127898097E0,1.176488763E0
6.313662518E0,-4.854011536E-2,3.804616928E-1,1.075245023E0,1.141603741E0
6.321870787E0,-1.445240974E-1,4.214191437E-1,9.526380301E-1,1.051665596E0
6.330078402E0,-1.962780952E-1,4.464483261E-1,7.005684972E-1,8.536026112E-1
6.338300095E0,-2.652945518E-1,4.206428528E-1,4.077791572E-1,6.431216447E-1
6.346508671E0,-2.565026283E-1,3.510150909E-1,2.174880356E-1,4.861134004E-1
6.354718094E0,-1.942868233E-1,2.205400467E-1,7.252396643E-2,3.027292645E-1
6.362927171E0,-1.498847008E-1,4.874897003E-2,-4.271540046E-2,1.632987784E-1
6.371135364E0,-7.445287704E-2,-1.254367828E-1,-5.371142551E-2,1.554430269E-1
6.379344633E0,-5.802154541E-3,-2.418622971E-1,-2.392389625E-2,2.431118848E-1
6.387561748E0,-5.086231232E-2,-2.808961868E-1,-3.311374784E-2,2.873780835E-1
6.395770902E0,-1.418008804E-1,-2.324485779E-1,-6.413578987E-2,2.797377890E-1
6.403978864E0,-2.313666344E-1,-1.640319824E-1,-8.638182282E-2,2.964773686E-1
6.412187979E0,-3.110227585E-1,-1.337718964E-1,-9.770809114E-2,3.523874964E-1
6.420405710E0,-3.825550079E-1,-5.659961700E-2,-4.266483337E-2,3.890657255E-1
6.428615710E0,-4.395041466E-1,-1.762485504E-2,4.536941648E-2,4.421910383E-1
6.436824286E0,-5.271768570E-1,6.228446960E-2,1.129275858E-1,5.427222433E-1
6.445033210E0,-6.022610664E-1,1.856470108E-1,1.412462145E-1,6.458588839E-1
6.453243209E0,-6.841092110E-1,2.661628723E-1,1.202563196E-1,7.438478806E-1
6.461461286E0,-6.264381409E-1,3.332977295E-1,1.387333572E-1,7.230207917E-1
6.469679748E0,-6.192216873E-1,4.457950592E-1,9.609657526E-2,7.690274928E-1
6.477889248E0,-5.811839104E-1,5.604734421E-1,-5.260109901E-6,8.074064757E-1
6.486097940E0,-5.865364075E-1,6.533899307E-1,-1.014545932E-1,8.838757794E-1
6.494307440E0,-6.063342094E-1,8.420076370E-1,-1.774719507E-1,1.052670094E0
6.502523940E0,-6.769208908E-1,1.025507927E0,-2.087938488E-1,1.246388090E0
6.510734055E0,-7.938117981E-1,1.174974442E0,-2.527452111E-1,1.440341019E0
6.518943786E0,-8.407049179E-1,1.282620430E0,-2.790022492E-1,1.558763029E0
6.527155209E0,-8.847579956E-1,1.336404800E0,-2.442988753E-1,1.621251505E0
6.535366017E0,-8.758058548E-1,1.312334061E0,-2.302434742E-1,1.594449322E0
6.543576940E0,-8.682031631E-1,1.280283928E0,-2.206909209E-1,1.562564607E0
6.551795901E0,-8.636240959E-1,1.176062584E0,-1.773462892E-1,1.469837231E0
6.560006632E0,-8.708176613E-1,1.009755135E0,-1.707271673E-2,1.333499272E0
6.568217940E0,-9.030289650E-1,9.137210846E-1,1.708233058E-1,1.295966101E0
6.576428017E0,-8.767027855E-1,9.165306091E-1,3.406114280E-1,1.313260171E0
6.584651747E0,-8.346166611E-1,1.004007339E0,4.857634306E-1,1.393047673E0
6.592862978E0,-8.667893410E-1,1.195875168E0,5.977504849E-1,1.593344539E0
6.601072824E0,-9.116735458E-1,1.345672607E0,4.709410965E-1,1.692267395E0
6.609284478E0,-9.358029366E-1,1.418432236E0,1.689700782E-1,1.707696703E0
6.617495593E0,-8.852610588E-1,1.312925339E0,-1.840536594E-1,1.594156779E0
6.625714824E0,-6.584124565E-1,1.002049446E0,-4.052010775E-1,1.265621574E0
6.633934363E0,-3.839883804E-1,6.010446548E-1,-5.358780026E-1,8.921137748E-1
6.642146093E0,-8.920001984E-2,1.179637909E-1,-5.143927336E-1,5.352307763E-1
6.650359055E0,1.412239075E-1,-3.266630173E-1,-2.772463262E-1,4.511301855E-1
6.658569747E0,2.997851372E-1,-8.034586906E-1,-7.162030041E-2,8.605500935E-1
6.666789516E0,3.842058182E-1,-1.187900066E0,7.586275041E-2,1.250790084E0
6.675000632E0,4.453802109E-1,-1.467669487E0,1.723953784E-1,1.543417449E0
6.683211824E0,5.852041245E-1,-1.717599869E0,1.659188718E-1,1.822125750E0
6.691423747E0,6.732549667E-1,-1.931159019E0,-1.403495669E-2,2.045200330E0
6.699633709E0,7.309899330E-1,-2.055706978E0,-1.853664964E-1,2.189666230E0
6.707844478E0,8.868947029E-1,-2.175494194E0,-3.401537538E-1,2.373828507E0
6.716063670E0,1.059748650E0,-2.237709045E0,-3.980009854E-1,2.507750737E0
6.724274555E0,1.214676142E0,-2.275219917E0,-3.644330502E-1,2.604779309E0
6.732485631E0,1.357700586E0,-2.186720848E0,-2.329974473E-1,2.584450959E0
6.740697247E0,1.396975756E0,-1.923400879E0,-1.260439754E-1,2.380525002E0
6.748915247E0,1.391155481E0,-1.455791950E0,-4.417699575E-2,2.014099149E0
6.757126324E0,1.350413561E0,-7.763023376E-1,-8.600362390E-2,1.560018823E0
6.765338631E0,1.202646255E0,-4.301261902E-2,-1.150841787E-1,1.208905484E0
6.773551208E0,9.312987328E-1,8.329410553E-1,-2.423579842E-1,1.272731521E0
6.781762824E0,5.675387383E-1,1.697076797E0,-4.089169204E-1,1.835587896E0
6.789984862E0,1.894283295E-1,2.470967293E0,-6.491138935E-1,2.561817968E0
6.798204747E0,-1.930851936E-1,3.044220924E0,-7.845447063E-1,3.149614790E0
6.806418131E0,-3.752932549E-1,3.245115280E0,-8.277221918E-1,3.369976593E0
6.814630631E0,-4.239377975E-1,3.093677521E0,-7.521189451E-1,3.211891462E0
6.822842631E0,-3.050284386E-1,2.600193977E0,-6.097621918E-1,2.688096166E0
6.831067900E0,-1.172423363E-1,2.046284676E0,-4.302169085E-1,2.094304975E0
6.839280285E0,2.866125107E-2,1.406161308E0,-1.324853897E-1,1.412679536E0
6.847492631E0,2.020859718E-1,7.434940338E-1,1.050876677E-1,7.776024281E-1
6.855706285E0,3.464455605E-1,1.376667023E-1,2.947451472E-1,4.752382025E-1
6.863919554E0,4.605598450E-1,-3.050341606E-1,3.827660084E-1,6.720647492E-1
6.872132785E0,4.806251526E-1,-5.645570755E-1,3.074129224E-1,8.026381088E-1
6.880352169E0,5.594925880E-1,-7.651906013E-1,2.487549186E-2,9.482443791E-1
6.888564977E0,6.709609032E-1,-9.758820534E-1,-3.099129200E-1,1.224165158E0
6.896777169E0,8.300504684E-1,-1.107392311E0,-6.369272470E-1,1.523475575E0
6.904989015E0,1.033326149E0,-1.297584057E0,-8.583213091E-1,1.867673094E0
6.913208438E0,1.121653080E0,-1.351641178E0,-1.098505378E0,2.071654791E0
6.921419862E0,1.279413700E0,-1.401222229E0,-1.307301879E0,2.304205146E0
6.929631631E0,1.320608139E0,-1.400434017E0,-1.380138516E0,2.368544620E0
6.937844400E0,1.312459469E0,-1.291809082E0,-1.384583950E0,2.303995069E0
6.946056208E0,1.256583691E0,-1.147798538E0,-1.346542001E0,2.170165758E0
6.954274708E0,1.142984867E0,-9.879860878E-1,-1.264203906E0,1.969960008E0
6.962494746E0,1.009352207E0,-8.320665359E-1,-1.171626806E0,1.756085411E0
6.970706823E0,8.544507027E-1,-6.809129715E-1,-1.112055302E0,1.558972569E0
6.978918631E0,7.062435150E-1,-5.110821724E-1,-1.072454453E0,1.382079391E0
6.987131823E0,5.593767166E-1,-4.258360863E-1,-1.036504626E0,1.252429848E0
6.995352400E0,4.104962349E-1,-3.946185112E-1,-1.062308908E0,1.205292970E0
7.003564669E0,3.361420631E-1,-3.838839531E-1,-1.045191765E0,1.163092516E0
7.011776438E0,2.075591087E-1,-4.052019119E-1,-9.487959146E-1,1.052370211E0
7.019986630E0,-5.933284760E-3,-3.218007088E-1,-7.801315784E-1,8.439171640E-1
7.028197438E0,-2.276496887E-1,-2.485704422E-1,-6.200404167E-1,7.057349105E-1
7.036407669E0,-4.312791824E-1,-1.640005112E-1,-4.674603045E-1,6.568234444E-1
7.044626515E0,-6.261830330E-1,-8.712196350E-2,-3.680015504E-1,7.315193562E-1
7.052838515E0,-7.448983192E-1,-5.713462830E-3,-2.534632981E-1,7.868607203E-1
7.061049130E0,-8.400945663E-1,8.980560303E-2,-1.908323765E-1,8.661644894E-1
7.069260630E0,-9.348783493E-1,2.286853790E-1,-2.470172048E-1,9.936357633E-1
7.077483976E0,-9.979119301E-1,3.919010162E-1,-3.708224297E-1,1.134426684E0
7.085695130E0,-1.029059887E0,5.651750565E-1,-4.872317314E-1,1.271134082E0
7.093907322E0,-1.111529350E0,6.746501923E-1,-5.452197790E-1,1.409934391E0
7.102117861E0,-1.125317097E0,7.923345566E-1,-5.519027114E-1,1.482811256E0
7.110329399E0,-1.130535126E0,8.797597885E-1,-5.168845654E-1,1.522910572E0
7.118555245E0,-1.127439976E0,9.128227234E-1,-4.548766911E-1,1.520289126E0
7.126773592E0,-1.134982586E0,9.754552841E-1,-3.614905477E-1,1.539601863E0
7.134983361E0,-1.109199524E0,1.020315170E0,-2.906915247E-1,1.534883772E0
7.143193899E0,-1.047685623E0,1.043524742E0,-2.238993645E-1,1.495566775E0
7.151404707E0,-1.000731468E0,1.037894249E0,-2.013636976E-1,1.455759349E0
7.159623399E0,-1.004190445E0,1.053737640E0,-2.016805112E-1,1.469502124E0
7.167834053E0,-9.893188477E-1,1.006828308E0,-2.354682237E-1,1.431048674E0
7.176085784E0,-9.285068512E-1,9.491348267E-1,-2.985293567E-1,1.360919420E0
7.184295091E0,-9.200334549E-1,8.351078033E-1,-3.007739186E-1,1.278409774E0
7.192503784E0,-8.108668327E-1,5.856294632E-1,-3.360644579E-1,1.055180652E0
7.200713630E0,-7.091755867E-1,3.034105301E-1,-4.335410595E-1,8.848422531E-1
7.208932091E0,-5.736374855E-1,5.593109131E-2,-4.860627055E-1,7.539530525E-1
7.217142168E0,-4.129123688E-1,3.774166107E-2,-4.141074717E-1,5.860085796E-1
7.225353630E0,-3.022890091E-1,1.443700790E-1,-3.025263250E-1,4.513795986E-1
7.233564591E0,-3.046088219E-1,3.577423096E-1,-3.086901009E-1,5.621882895E-1
7.241781706E0,-4.369130135E-1,8.068923950E-1,-4.034732580E-1,1.002376670E0
7.249992283E0,-6.687335968E-1,1.383547783E0,-6.729332209E-1,1.677572118E0
7.258203053E0,-8.554873466E-1,1.883231163E0,-9.781109095E-1,2.288038279E0
7.266415553E0,-1.046389580E0,2.211625099E0,-1.312407136E0,2.776441828E0
7.274627476E0,-1.217167854E0,2.314700127E0,-1.653695464E0,3.094195041E0
7.282847783E0,-1.177453995E0,1.938013077E0,-1.828985929E0,2.913328359E0
7.291066937E0,-8.725924492E-1,1.227507591E0,-1.807932615E0,2.353043308E0
7.299276360E0,-4.774193764E-1,4.505538940E-1,-1.519470572E0,1.655209622E0
7.307487437E0,-1.754837036E-1,-4.099044800E-1,-1.196024179E0,1.276436466E0
7.315698514E0,7.968664169E-2,-1.193769455E0,-7.230360508E-1,1.397932975E0
7.323924014E0,2.698826790E-1,-1.736267567E0,-2.407160401E-1,1.773529232E0
7.332135629E0,3.613052368E-1,-2.081622124E0,2.387590706E-1,2.126193320E0
7.340346898E0,3.869252205E-1,-2.096016884E0,6.732249260E-1,2.235224755E0
7.348559206E0,4.855570793E-1,-1.874248981E0,8.708755970E-1,2.122969436E0
7.356769821E0,5.405387878E-1,-1.424677372E0,8.519307971E-1,1.745758826E0
7.364983668E0,5.841555595E-1,-9.038782120E-1,6.206284165E-1,1.242341809E0
7.373204783E0,6.604056358E-1,-2.938022614E-1,2.976140380E-1,7.816837521E-1
7.381416206E0,7.645382881E-1,3.383970261E-1,-1.246569157E-1,8.453228306E-1
7.389627860E0,8.103575706E-1,8.849620819E-1,-4.447866678E-1,1.279715773E0
7.397839167E0,8.519172668E-1,1.294864655E0,-6.483967304E-1,1.680135656E0
7.406061052E0,8.428640366E-1,1.538825035E0,-6.912982464E-1,1.885814290E0
7.414274283E0,8.182945251E-1,1.597318649E0,-6.436526775E-1,1.906651926E0
7.422486629E0,7.632255554E-1,1.494146347E0,-4.914414287E-1,1.748285226E0
7.430698513E0,7.587060928E-1,1.274794579E0,-2.900555432E-1,1.511578106E0
7.438910667E0,8.586616516E-1,1.010566711E0,-6.520810723E-2,1.327703659E0
7.447132475E0,9.192442894E-1,6.607198715E-1,1.630266458E-1,1.143738825E0
7.455352052E0,1.027655125E0,3.504104614E-1,2.987812757E-1,1.126114025E0
7.463562898E0,1.026524067E0,5.608081818E-2,4.765986800E-1,1.133156220E0
7.471773090E0,1.026662350E0,-1.381301880E-1,6.199713945E-1,1.207261388E0
7.479983206E0,1.027271271E0,-2.815699577E-1,7.631739974E-1,1.310344403E0
7.488200706E0,1.009561062E0,-3.501367569E-1,8.536983728E-1,1.367702525E0
7.496410013E0,9.804701805E-1,-4.014863968E-1,8.662205338E-1,1.368521507E0
7.504619629E0,1.027933121E0,-3.977322578E-1,8.675228357E-1,1.402652245E0
7.512828629E0,1.046094418E0,-3.942661285E-1,7.617241144E-1,1.352768619E0
7.521038359E0,1.114263058E0,-3.597650528E-1,5.602350235E-1,1.298027864E0
7.529249821E0,1.236975670E0,-3.518681526E-1,3.746028543E-1,1.339495167E0
7.537469436E0,1.352154732E0,-2.866935730E-1,2.238666266E-1,1.400225657E0
7.545679898E0,1.408142090E0,-2.474031448E-1,1.169172376E-1,1.434483218E0
7.553890628E0,1.488491535E0,-2.150740623E-1,-2.788548172E-2,1.504207932E0
7.562102321E0,1.512365341E0,-1.247301102E-1,-9.457857162E-2,1.520444551E0
7.570326359E0,1.537014008E0,-8.187294006E-2,-1.163032055E-1,1.543580796E0
7.578537474E0,1.485496044E0,2.100944519E-2,-2.811579406E-2,1.485910627E0
7.586747667E0,1.371959686E0,1.191806793E-1,1.489744633E-1,1.385160931E0
7.594957474E0,1.212278366E0,3.054647446E-1,3.010065854E-1,1.285897551E0
7.603167090E0,1.038647175E0,5.670137405E-1,4.510632455E-1,1.266392746E0
7.611386667E0,8.692951202E-1,7.164726257E-1,5.118743181E-1,1.237344878E0
7.619604513E0,8.156838417E-1,8.201627731E-1,4.830336869E-1,1.253526484E0
7.627814243E0,7.077283859E-1,8.828210831E-1,4.680643976E-1,1.224474097E0
7.636023551E0,6.127204895E-1,9.333715439E-1,4.031067789E-1,1.187056828E0
7.644234320E0,5.760469437E-1,9.070920944E-1,3.429571092E-1,1.127947573E0
7.652453051E0,5.794239044E-1,8.500785828E-1,2.893646359E-1,1.068689642E0
7.660663282E0,5.668540001E-1,8.327531815E-1,2.776385546E-1,1.044932766E0
7.668874436E0,4.457783699E-1,9.059410095E-1,2.488724738E-1,1.039896618E0
7.677083936E0,2.434034348E-1,1.041498184E0,3.193471134E-1,1.116219637E0
7.685293282E0,9.317731857E-2,1.107324600E0,3.728010654E-1,1.172105122E0
7.693504589E0,-3.692722321E-2,1.071697235E0,3.870616257E-1,1.140050563E0
7.701722743E0,-6.048202515E-2,1.071264267E0,3.455243409E-1,1.127232130E0
7.709933897E0,-1.185092926E-1,1.051129341E0,2.505979836E-1,1.087067934E0
7.718144051E0,-1.050019264E-1,9.687147141E-1,1.812000275E-1,9.910938663E-1
7.726353628E0,-1.709980965E-1,8.996467590E-1,1.398749202E-1,9.263744563E-1
7.734571628E0,-2.924647331E-1,8.583240509E-1,1.687643230E-1,9.223541582E-1
7.742780935E0,-3.633980751E-1,7.996463776E-1,1.949649453E-1,8.997243022E-1
7.750989781E0,-4.149641991E-1,7.043952942E-1,2.345417440E-1,8.505162236E-1
7.759200320E0,-4.235215187E-1,6.226272583E-1,3.059335053E-1,8.127917871E-1
7.767411820E0,-4.254045486E-1,5.181217194E-1,3.695680499E-1,7.655061656E-1
7.775630358E0,-4.225482941E-1,4.079103470E-1,3.366670609E-1,6.769657464E-1
7.783849358E0,-4.251317978E-1,3.658218384E-1,2.123334259E-1,5.997067172E-1
7.792061051E0,-3.417329788E-1,5.142545700E-1,6.321019679E-2,6.206727967E-1
7.800270858E0,-1.533966064E-1,7.955961227E-1,1.336439252E-1,8.211969363E-1
7.808482204E0,-1.366887093E-1,1.177079201E0,1.779524386E-1,1.198276395E0
7.816706435E0,-1.683778763E-1,1.678604126E0,1.408703625E-1,1.692899105E0
7.824917858E0,-2.220821381E-1,2.348104477E0,1.230927110E-1,2.361793159E0
7.833130127E0,-4.133186340E-1,2.919508934E0,2.035059780E-1,2.955635193E0
7.841340320E0,-5.665569305E-1,3.370342255E0,1.450040936E-1,3.420704585E0
7.849550627E0,-8.832411766E-1,3.538576126E0,-9.180733562E-2,3.648296118E0
7.857760820E0,-1.087768555E0,3.373607635E0,-4.135082960E-1,3.568677349E0
7.865978973E0,-1.064657688E0,2.717121124E0,-6.511346102E-1,2.990019979E0
7.874189627E0,-6.428632736E-1,1.592022896E0,-7.813246250E-1,1.886339911E0
7.882400935E0,-1.269092560E-1,3.104467392E-1,-6.827893257E-1,7.607130868E-1
7.890611166E0,4.203190804E-1,-8.309178352E-1,-3.696533740E-1,1.001866356E0
7.898829473E0,8.464245796E-1,-1.622944832E0,-2.999591827E-2,1.830651319E0
7.907041204E0,1.091497898E0,-2.187263012E0,3.981371522E-1,2.476691409E0
7.915251435E0,1.121268749E0,-2.369314194E0,6.401502490E-1,2.698274578E0
7.923462281E0,9.833216667E-1,-2.260998249E0,6.781740189E-1,2.557137967E0
7.931672819E0,8.634090424E-1,-1.879298687E0,4.838269055E-1,2.123988513E0
7.939891704E0,6.873002052E-1,-1.256507874E0,2.080599964E-1,1.447232729E0
7.948110858E0,6.106290817E-1,-5.375466347E-1,-1.314350069E-1,8.240748879E-1
7.956321281E0,4.692354202E-1,6.847572327E-2,-4.815805554E-1,6.758628823E-1
7.964532358E0,3.699536324E-1,4.531402588E-1,-7.601035237E-1,9.591450104E-1
7.972744858E0,4.140324593E-1,6.894302368E-1,-8.634948730E-1,1.179983188E0
7.980965088E0,6.103863716E-1,6.259279251E-1,-8.583710194E-1,1.225217571E0
7.989176857E0,7.768540382E-1,4.108476639E-1,-7.414982319E-1,1.149833739E0
7.997389934E0,9.374098778E-1,1.494874954E-1,-6.151245832E-1,1.131133079E0
8.005601434E0,1.104693413E0,-1.026592255E-1,-5.454396009E-1,1.236281040E0
8.013813473E0,1.216749191E0,-3.214054108E-1,-5.233528614E-1,1.362966709E0
8.022025896E0,1.323939800E0,-4.300208092E-1,-4.518652260E-1,1.463528843E0
8.030245857E0,1.275385857E0,-4.308857918E-1,-3.892863095E-1,1.401362009E0
8.038457896E0,1.283621311E0,-4.081578255E-1,-3.943634927E-1,1.403495296E0
8.046670396E0,1.252071857E0,-4.294009209E-1,-4.089081287E-1,1.385378990E0
8.054882434E0,1.190355778E0,-4.084296227E-1,-3.984814286E-1,1.320056470E0
8.063107973E0,1.083243847E0,-3.458485603E-1,-3.767015636E-1,1.197886692E0
8.071319857E0,9.396548271E-1,-2.971782684E-1,-3.850783408E-1,1.058088581E0
8.079532973E0,8.171443939E-1,-2.264685631E-1,-4.166992307E-1,9.448022118E-1
8.087745203E0,7.083797455E-1,-2.247905731E-1,-4.357365072E-1,8.615097035E-1
8.095957126E0,6.516423225E-1,-2.107286453E-1,-4.340525270E-1,8.108303612E-1
8.104176703E0,6.216235161E-1,-2.793512344E-1,-3.961187899E-1,7.882658204E-1
8.112395280E0,5.854482651E-1,-3.152842522E-1,-4.126181006E-1,7.825647115E-1
8.120604665E0,4.654207230E-1,-3.463993073E-1,-4.289227724E-1,7.215148468E-1
8.128815780E0,3.431038857E-1,-3.606367111E-1,-4.845838547E-1,6.946946279E-1
8.137026165E0,2.182359695E-1,-3.246617317E-1,-5.186544657E-1,6.496419269E-1
8.145244934E0,1.263656616E-1,-3.608293533E-1,-5.744260550E-1,6.900227498E-1
8.153456280E0,1.320419312E-1,-4.404768944E-1,-6.182476282E-1,7.705096338E-1
8.161666357E0,1.449193954E-1,-5.392694473E-1,-7.028174400E-1,8.976444296E-1
8.169877203E0,1.321229935E-1,-6.369085312E-1,-7.142045498E-1,9.660212738E-1
8.178086857E0,8.950471878E-2,-7.169551849E-1,-7.389180660E-1,1.033458146E0
8.186297280E0,8.897352219E-2,-7.721629143E-1,-6.895493269E-1,1.039052515E0
8.194516318E0,3.271436691E-2,-7.735786438E-1,-6.287924051E-1,9.974337255E-1
8.202726049E0,-6.453990936E-2,-7.185821533E-1,-5.688017607E-1,9.187280087E-1
8.210936434E0,-1.050004959E-1,-6.409378052E-1,-5.617424846E-1,8.587089106E-1
8.219147549E0,-1.627030373E-1,-4.878673553E-1,-5.396574736E-1,7.454643006E-1
8.227364857E0,-2.537770271E-1,-2.925143242E-1,-5.992875099E-1,7.135214986E-1
8.235574626E0,-3.472051620E-1,-1.028385162E-1,-6.317875385E-1,7.282051077E-1
8.243785049E0,-4.550480843E-1,1.433534622E-1,-6.263514757E-1,7.873596035E-1
8.251995280E0,-5.942406654E-1,3.837232590E-1,-6.020663381E-1,9.288968637E-1
8.260205741E0,-7.959146500E-1,6.158971786E-1,-6.276338696E-1,1.186058067E0
8.268425395E0,-9.386897087E-1,8.307819366E-1,-6.143634915E-1,1.395986925E0
8.276644087E0,-9.474363327E-1,9.005098343E-1,-5.820879340E-1,1.430866845E0
8.284853895E0,-9.367504120E-1,8.899059296E-1,-5.634785295E-1,1.409589285E0
8.293065433E0,-8.919525146E-1,8.015594482E-1,-5.064566731E-1,1.301758503E0
8.301275510E0,-8.264307976E-1,6.887512207E-1,-4.165466726E-1,1.153636528E0
8.309498933E0,-7.921252251E-1,5.184297562E-1,-3.371966481E-1,1.004954409E0
8.317710433E0,-7.335367203E-1,3.818435669E-1,-2.186141014E-1,8.553787202E-1
8.325921472E0,-6.697874069E-1,2.167587280E-1,-1.615285277E-1,7.222817884E-1
8.334132472E0,-6.315021515E-1,7.139492035E-2,-1.461743116E-1,6.521189549E-1
8.342342818E0,-5.708889961E-1,-1.627922058E-3,-1.817798913E-1,5.991333949E-1
8.350552933E0,-4.948935509E-1,-6.678581238E-2,-2.562380433E-1,5.612823766E-1
8.358770241E0,-4.111080170E-1,-8.603000641E-2,-4.083855748E-1,5.858239849E-1
8.366980356E0,-3.007869720E-1,-2.164840698E-3,-4.911310971E-1,5.759229494E-1
8.375191048E0,-1.496162415E-1,2.685699463E-1,-5.133043528E-1,5.983278318E-1
8.383401971E0,-2.281684875E-1,6.878452301E-1,-5.150000453E-1,8.890539725E-1
8.391619971E0,-4.355506897E-1,1.255861282E0,-6.431143284E-1,1.476647556E0
8.399830048E0,-7.226219177E-1,1.871302605E0,-7.969388962E-1,2.158487313E0
8.408039740E0,-9.223942757E-1,2.473917007E0,-9.461848736E-1,2.804700051E0
8.416249933E0,-1.124495506E0,2.912126541E0,-1.042714596E0,3.291234550E0
8.424460663E0,-1.341967106E0,3.182826042E0,-1.113928080E0,3.629337831E0
8.432681433E0,-1.516135216E0,3.208664894E0,-1.038362265E0,3.697619854E0
8.440899433E0,-1.626606464E0,2.874036789E0,-9.256103039E-1,3.429677899E0
8.449111010E0,-1.529326916E0,2.064365387E0,-7.863351107E-1,2.686776539E0
8.457322356E0,-1.190720558E0,1.074232101E0,-5.129898787E-1,1.683730581E0
8.465534779E0,-8.262972832E-1,4.404544830E-2,4.278875887E-2,8.285759347E-1
8.473771817E0,-5.383076668E-1,-8.614363670E-1,4.694009125E-1,1.119010713E0
8.481982509E0,-1.514649391E-1,-1.688301563E0,8.683733344E-1,1.904567154E0
8.490193856E0,1.822671890E-1,-2.245157719E0,1.177998066E0,2.541974420E0
8.498405009E0,4.660835266E-1,-2.518050194E0,1.296844840E0,2.870473336E0
8.506616240E0,6.273102760E-1,-2.527499199E0,1.261685848E0,2.893721058E0
8.514827279E0,7.711095810E-1,-2.308541775E0,1.075149179E0,2.660812069E0
8.523046009E0,8.451581001E-1,-1.792900562E0,8.160013556E-1,2.143511804E0
8.531256625E0,8.899102211E-1,-1.105127335E0,5.394856930E-1,1.517989275E0
8.539467548E0,9.473886490E-1,-2.626013756E-1,2.604612112E-1,1.017027422E0
8.547678932E0,9.372982979E-1,6.428689957E-1,3.338906169E-2,1.137067929E0
8.555921125E0,9.250884056E-1,1.588651657E0,-4.249240458E-2,1.838860585E0
8.564130586E0,8.096771240E-1,2.381157875E0,-1.584282368E-1,2.520037575E0
8.572340201E0,7.300062180E-1,2.927772522E0,-7.263152301E-2,3.018283677E0
8.580549701E0,6.211619377E-1,3.331283569E0,-1.217693537E-1,3.390887811E0
8.588758432E0,6.519732475E-1,3.334937096E0,-1.468301564E-1,3.401240015E0
8.596975971E0,7.454314232E-1,2.963369370E0,-1.015045643E-1,3.057372925E0
8.605193278E0,9.527554512E-1,2.407249451E0,7.798983902E-2,2.590111056E0
8.613402163E0,1.140007019E0,1.769565105E0,3.866928220E-1,2.140212140E0
8.621611547E0,1.294825077E0,1.137694359E0,6.877554655E-1,1.855782319E0
8.629821317E0,1.346772671E0,5.816564560E-1,9.562784433E-1,1.751167988E0
8.638029932E0,1.264054775E0,2.027654648E-1,1.192652583E0,1.749676682E0
8.646239124E0,1.182035446E0,-1.110763550E-1,1.442680597E0,1.868387823E0
8.654450432E0,1.121403694E0,-3.253378868E-1,1.627010822E0,2.002637062E0
8.662663047E0,1.058888912E0,-4.109401703E-1,1.691353321E0,2.037349653E0
8.670873778E0,9.853162766E-1,-3.984422684E-1,1.580038667E0,1.904239112E0
8.679085432E0,1.031135559E0,-3.800044060E-1,1.274831772E0,1.683104256E0
8.687296586E0,1.131025791E0,-3.486380577E-1,9.617822766E-1,1.525055075E0
8.695507970E0,1.272231102E0,-3.358330727E-1,6.969348192E-1,1.488984208E0
8.703752432E0,1.388007164E0,-3.460650444E-1,5.118962526E-1,1.519329680E0
8.711990009E0,1.519578457E0,-3.429975510E-1,3.737707734E-1,1.602020786E0
8.720225855E0,1.628362179E0,-3.436141014E-1,3.201403022E-1,1.694734153E0
8.728436662E0,1.673535824E0,-3.671808243E-1,2.801116705E-1,1.736089416E0
8.736646739E0,1.695005417E0,-3.736228943E-1,2.211830765E-1,1.749731232E0
8.744857855E0,1.709055424E0,-3.657407761E-1,1.502168626E-1,1.754195503E0
8.753067931E0,1.662734032E0,-3.485383987E-1,1.102782413E-1,1.702446700E0
8.761278739E0,1.584499836E0,-2.982845306E-1,9.918050468E-2,1.615379263E0
8.769490239E0,1.476482391E0,-2.869982719E-1,1.337555647E-1,1.510052586E0
8.777701816E0,1.410124302E0,-2.192101479E-1,2.015273571E-1,1.441220632E0
8.785947201E0,1.294485092E0,-9.968137741E-2,3.685527444E-1,1.349614447E0
8.794183739E0,1.150784492E0,2.824926376E-2,4.855599999E-1,1.249348423E0
8.802435777E0,9.716405869E-1,1.811995506E-1,6.241255999E-1,1.168953152E0
8.810646508E0,7.806272507E-1,3.373374939E-1,7.833522558E-1,1.156207700E0
8.818858547E0,7.233772278E-1,4.556903839E-1,9.111042023E-1,1.249415546E0
8.827070123E0,6.397304535E-1,5.364484787E-1,9.762953520E-1,1.284595126E0
8.835281123E0,5.699725151E-1,6.215286255E-1,9.221218824E-1,1.249590039E0
8.843492508E0,4.939756393E-1,6.800775528E-1,7.885849476E-1,1.152555261E0
8.851704277E0,3.936371803E-1,7.463912964E-1,7.093740106E-1,1.102389080E0
8.859914123E0,2.628040314E-1,7.661466599E-1,6.913631558E-1,1.064908295E0
8.868158585E0,1.944880486E-1,8.101806641E-1,6.617641449E-1,1.064025419E0
8.876396316E0,1.140422821E-1,8.565578461E-1,6.620593071E-1,1.088586015E0
8.884607277E0,1.939392090E-2,9.006938934E-1,6.681038141E-1,1.121600785E0
8.892817431E0,-5.794954300E-2,8.997325897E-1,6.749509573E-1,1.126248497E0
8.901028546E0,-7.036113739E-2,8.942117691E-1,6.541869640E-1,1.110191858E0
8.909239700E0,-7.798814774E-2,8.671579361E-1,6.439437866E-1,1.082916727E0
8.917451200E0,-1.154174805E-1,8.095102310E-1,5.456020832E-1,9.830104995E-1
8.925662469E0,-1.440892220E-1,8.176651001E-1,4.740869999E-1,9.560838892E-1
8.933870854E0,-2.187285423E-1,8.463382721E-1,4.249252081E-1,9.719527141E-1
8.942080931E0,-3.011074066E-1,8.380050659E-1,3.695283234E-1,9.640899038E-1
8.950324546E0,-3.536462784E-1,8.448820114E-1,2.705798745E-1,9.550417645E-1
8.958561931E0,-3.982219696E-1,8.308277130E-1,1.519142985E-1,9.337737306E-1
8.966773200E0,-4.065246582E-1,7.764005661E-1,7.768413424E-2,8.798266656E-1
8.974984738E0,-4.569301605E-1,6.700086594E-1,-3.153261542E-2,8.115978567E-1
8.983195815E0,-4.897184372E-1,5.641822815E-1,-4.558569193E-2,7.484676678E-1
8.991406469E0,-3.808975220E-1,4.681444168E-1,-1.093816757E-2,6.036238570E-1
8.999615546E0,-1.993651390E-1,5.450096130E-1,2.153852135E-1,6.190094726E-1
9.007825969E0,-7.241773605E-2,7.720680237E-1,5.759785175E-1,9.659630502E-1
9.016036315E0,-1.611061096E-1,1.203182220E0,7.684253454E-1,1.436690692E0
9.024249469E0,-3.807768822E-1,1.824728966E0,8.600134850E-1,2.052863860E0
9.032496700E0,-4.588727951E-1,2.429110527E0,6.905903816E-1,2.566721113E0
9.040736353E0,-6.173877716E-1,2.998617172E0,3.889841437E-1,3.086127228E0
9.048989546E0,-9.688286781E-1,3.402587891E0,1.055401117E-1,3.539402785E0
9.057202007E0,-1.275255680E0,3.607610703E0,-3.640203476E-1,3.843649678E0
9.065415007E0,-1.391344547E0,3.269390106E0,-7.814666033E-1,3.638054613E0
9.073628392E0,-1.134485245E0,2.342226982E0,-9.736574292E-1,2.778685444E0
9.081841007E0,-7.842888832E-1,1.096714020E0,-9.716477990E-1,1.661923626E0
9.090054507E0,-3.758044243E-1,-2.166118622E-1,-6.752519608E-1,8.025676761E-1
9.098266738E0,-7.780551910E-3,-1.466341496E0,-3.554682136E-1,1.508832519E0
9.106480353E0,3.728480339E-1,-2.484434128E0,5.259472132E-2,2.512806160E0
9.114694161E0,5.971202850E-1,-3.080839634E0,3.859282434E-1,3.161813735E0
9.122934238E0,5.810527802E-1,-3.477929592E0,6.073714495E-1,3.578060460E0
9.131146699E0,5.413799286E-1,-3.513325214E0,8.175994158E-1,3.647604021E0
9.139359815E0,3.856678009E-1,-3.225642681E0,8.052554727E-1,3.346930943E0
9.147573161E0,1.654520035E-1,-2.683349133E0,6.518009901E-1,2.766329963E0
9.155785507E0,3.714227676E-2,-1.987622738E0,5.528770685E-1,2.063418704E0
9.163998276E0,-3.024625778E-2,-1.225692749E0,3.964356184E-1,1.288564609E0
9.172211507E0,-2.310233116E-1,-4.910907745E-1,2.013438344E-1,5.788620380E-1
9.180424314E0,-3.747763634E-1,6.467342377E-2,8.668752015E-2,3.900701225E-1
9.188638199E0,-3.933892250E-1,3.760757446E-1,-5.716799200E-2,5.472259381E-1
9.196884199E0,-3.323249817E-1,6.355495453E-1,-3.229483962E-2,7.179178746E-1
9.205122661E0,-1.020936966E-1,7.224082947E-1,5.243336409E-2,7.314684715E-1
9.213361007E0,1.312365532E-1,5.715074539E-1,-9.258821607E-3,5.864550525E-1
9.221570468E0,2.675294876E-1,1.951026917E-1,-1.452893615E-1,3.615882819E-1
9.229781353E0,4.574842453E-1,-6.445026398E-2,-1.690905094E-1,4.919728362E-1
9.237989930E0,5.685124397E-1,-1.367835999E-1,-1.593511999E-1,6.060601886E-1
9.246201122E0,5.722141266E-1,-1.581907272E-1,-9.435468912E-2,6.011290379E-1
9.254412430E0,5.666856766E-1,-1.622982025E-1,-3.974279761E-2,5.908069503E-1
9.262622160E0,5.416369438E-1,-1.497230530E-1,-2.373158932E-2,5.624506732E-1
9.270832929E0,4.725375175E-1,-1.354017258E-1,8.030220866E-2,4.980700529E-1
9.279043429E0,3.638935089E-1,-8.865833282E-2,9.636837244E-2,3.867371834E-1
9.287279429E0,2.463607788E-1,-4.831981659E-2,1.899462491E-1,3.148142557E-1
9.295530506E0,1.648435593E-1,1.387691498E-2,3.361667097E-1,3.746652165E-1
9.303742545E0,1.352553368E-1,3.039932251E-2,4.256769121E-1,4.476817602E-1
9.311953237E0,1.479010582E-1,-3.214645386E-2,3.918693066E-1,4.200829334E-1
9.320163852E0,2.559742928E-1,-9.662342072E-2,2.590186000E-1,3.767619396E-1
9.328374275E0,3.642001152E-1,-1.792497635E-1,1.361708194E-1,4.281526523E-1
9.336584814E0,4.855518341E-1,-2.193975449E-1,-2.859365940E-2,5.335854792E-1
9.344795352E0,5.349287987E-1,-2.019433975E-1,-2.494681180E-1,6.238303434E-1
9.353005891E0,5.339365005E-1,-1.842927933E-1,-4.766975045E-1,7.391160471E-1
9.361248891E0,5.064005852E-1,-1.809024811E-1,-6.687304974E-1,8.581187205E-1
9.369486160E0,5.195527077E-1,-1.988735199E-1,-8.390730023E-1,1.006741872E0
9.377723814E0,4.655089378E-1,-2.383403778E-1,-9.711872339E-1,1.103045489E0
9.385934391E0,4.354481697E-1,-2.896461487E-1,-9.860814810E-1,1.116183984E0
9.394145160E0,3.600597382E-1,-3.336029053E-1,-9.188649058E-1,1.041751712E0
9.402355121E0,3.055696487E-1,-3.755269051E-1,-7.949304581E-1,9.307565202E-1
9.410566314E0,2.579798698E-1,-3.768982887E-1,-6.798825264E-1,8.190520026E-1
9.418778775E0,1.785330772E-1,-3.667249680E-1,-6.121230125E-1,7.355649830E-1
9.426990544E0,6.780385971E-2,-2.824106216E-1,-5.896750093E-1,6.573201192E-1
9.435201929E0,-8.385562897E-2,-1.335744858E-1,-5.573322773E-1,5.792177286E-1
9.443412544E0,-2.189550400E-1,1.036643982E-2,-6.132698655E-1,6.512669964E-1
9.451651506E0,-3.070597649E-1,1.418104172E-1,-6.830722690E-1,7.622228140E-1
9.459862660E0,-4.335989952E-1,2.564315796E-1,-7.781763673E-1,9.269971425E-1
9.468075352E0,-4.974799156E-1,3.976449966E-1,-8.331698775E-1,1.048703893E0
9.476286506E0,-5.899386406E-1,4.877157211E-1,-8.183014393E-1,1.120496082E0
9.484496813E0,-6.693758965E-1,5.257740021E-1,-8.071855307E-1,1.173051948E0
9.492706506E0,-7.023735046E-1,4.854192734E-1,-7.395253778E-1,1.129538930E0
9.500916890E0,-7.801904678E-1,3.784475327E-1,-5.864905715E-1,1.046848075E0
9.509128621E0,-8.113799095E-1,2.410554886E-1,-3.364666104E-1,9.108539324E-1
9.517339352E0,-8.077287674E-1,3.504371643E-2,-1.519686878E-1,8.226471332E-1
9.525584582E0,-7.757954597E-1,-1.171073914E-1,-9.202130139E-3,7.846383980E-1
9.533823775E0,-7.580327988E-1,-2.461338043E-1,5.982055515E-2,7.992334280E-1
9.542076352E0,-7.590155602E-1,-2.872657776E-1,8.756605536E-2,8.162683759E-1
9.550287236E0,-7.738151550E-1,-2.140741348E-1,1.044832915E-1,8.096507812E-1
9.558499736E0,-7.863678932E-1,-1.227407455E-1,1.196469590E-1,8.048323732E-1
9.566711659E0,-7.493243217E-1,-7.342720032E-2,7.854688168E-2,7.569994092E-1
9.574923313E0,-6.709547043E-1,-5.241298676E-2,5.851298198E-2,6.755376418E-1
9.583135736E0,-6.018815041E-1,-1.077823639E-1,-3.555354103E-2,6.124887241E-1
9.591346967E0,-5.091452599E-1,-1.536731720E-1,-1.114490330E-1,5.433831304E-1
9.599559121E0,-4.194216728E-1,-1.663608551E-1,-8.016892523E-2,4.582766962E-1
9.607805044E0,-3.575029373E-1,-1.822948456E-1,-2.111702226E-2,4.018528208E-1
9.616044774E0,-3.066515923E-1,-2.709341049E-1,1.367255207E-2,4.094232858E-1
9.624284582E0,-1.884560585E-1,-2.459154129E-1,6.955576688E-2,3.175343777E-1
9.632499390E0,1.350879669E-3,-6.209373474E-2,1.906102598E-1,2.004737586E-1
9.640713774E0,-4.469394684E-3,3.226699829E-1,2.291109562E-1,3.957622059E-1
9.648928005E0,-2.570075989E-1,8.925962448E-1,6.836684793E-2,9.313726365E-1
9.657142697E0,-4.717736244E-1,1.465408325E0,-2.292787135E-1,1.556457722E0
9.665356659E0,-6.901073456E-1,1.908976555E0,-5.881733894E-1,2.113382968E0
9.673568313E0,-8.656611443E-1,2.179216385E0,-8.673416376E-1,2.500126954E0
9.681781274E0,-1.016497135E0,2.268137932E0,-1.127893448E0,2.729443118E0
9.690027697E0,-1.059123993E0,2.034337997E0,-1.378636956E0,2.675988523E0
9.698267389E0,-9.972891808E-1,1.474658966E0,-1.436252117E0,2.287362000E0
9.706505889E0,-8.153562546E-1,6.810388565E-1,-1.224331379E0,1.620989535E0
9.714717351E0,-6.076135635E-1,-1.524429321E-1,-8.515619040E-1,1.057161656E0
9.722929543E0,-4.596080780E-1,-9.472613335E-1,-4.343622923E-1,1.138953125E0
9.731141620E0,-4.319195747E-1,-1.590832710E0,-1.061725616E-2,1.648458661E0
9.739353966E0,-4.542460442E-1,-2.035777092E0,4.493219852E-1,2.133686501E0
9.747566543E0,-4.174542427E-1,-2.355564117E0,8.404256105E-1,2.535599646E0
9.755777658E0,-3.897013664E-1,-2.436001301E0,1.176438570E0,2.733125903E0
9.763990889E0,-3.755569458E-1,-2.367005825E0,1.283029079E0,2.718441321E0
9.772203274E0,-3.101425171E-1,-2.134073734E0,1.240601301E0,2.487880759E0
9.780442504E0,-1.915559769E-1,-1.737510681E0,1.063498139E0,2.046134246E0
9.788696620E0,3.275871277E-3,-1.223355770E0,6.945026517E-1,1.406749446E0
9.796909966E0,9.994029999E-2,-6.153736115E-1,3.950105309E-1,7.380420481E-1
9.805124427E0,1.730051041E-1,7.460784912E-2,2.285796255E-1,2.962190783E-1
9.813338120E0,2.553319931E-2,7.552137375E-1,1.048039049E-1,7.628784910E-1
9.821550927E0,-1.982855797E-1,1.365490913E0,2.146969438E-1,1.396415906E0
9.829764312E0,-2.077193260E-1,1.678190231E0,2.806216478E-1,1.714123181E0
9.837975389E0,-2.620668411E-1,1.751348495E0,4.373281598E-1,1.824049479E0
9.846187966E0,-1.757588387E-1,1.687423706E0,5.650321841E-1,1.788169819E0
9.854433120E0,-2.596569061E-2,1.455192566E0,7.066296935E-1,1.617895282E0
9.862672081E0,1.832890511E-1,1.179851532E0,9.042094946E-1,1.497744746E0
9.870883581E0,3.167233467E-1,8.909721375E-1,1.127191424E0,1.471293830E0
9.879095696E0,4.305014610E-1,6.250305176E-1,1.271300554E0,1.480607901E0
9.887308927E0,4.809045792E-1,3.086338043E-1,1.466347694E0,1.573753348E0
9.895521273E0,4.120135307E-1,1.913785934E-1,1.697074294E0,1.756827275E0
9.903735196E0,2.695598602E-1,1.557893753E-1,2.010277510E0,2.034243966E0
9.911950042E0,1.548056602E-1,2.114763260E-1,2.331488371E0,2.346172426E0
9.920163850E0,5.366086960E-2,2.674322128E-1,2.574646950E0,2.589055116E0
9.928378004E0,-5.042457581E-2,3.213329315E-1,2.697842360E0,2.717379415E0
9.936590696E0,-6.634807587E-2,3.924350739E-1,2.740650654E0,2.769399459E0
9.944831812E0,-2.243518829E-3,4.586553574E-1,2.716227531E0,2.754679976E0
9.953045273E0,1.173949242E-1,4.863405228E-1,2.603319168E0,2.650958197E0
9.961258504E0,3.375835419E-1,4.705982208E-1,2.356388092E0,2.426518117E0
9.969473311E0,5.122141838E-1,4.762525558E-1,2.049999237E0,2.166027871E0
9.977688581E0,6.344099045E-1,4.341201782E-1,1.723081350E0,1.886781809E0
9.985902388E0,7.421717644E-1,3.967752457E-1,1.448797226E0,1.675488862E0
9.994115081E0,8.376226425E-1,3.592834473E-1,1.237054586E0,1.536554697E0
1.000232627E1,8.416752815E-1,3.359746933E-1,1.105052471E0,1.429138635E0
1.001053831E1,7.710943222E-1,3.388519287E-1,1.093875170E0,1.380568713E0
1.001878350E1,6.808357239E-1,3.558483124E-1,1.153075814E0,1.385550121E0
1.002702300E1,5.470662117E-1,3.990478516E-1,1.230800271E0,1.404773980E0
1.003525146E1,4.192938805E-1,4.703483582E-1,1.308048964E0,1.451904621E0
1.004346558E1,3.307480812E-1,5.145006180E-1,1.337221265E0,1.470464515E0
1.005167896E1,2.624382973E-1,4.941349030E-1,1.274034739E0,1.391476797E0
1.005989200E1,1.965627670E-1,4.549016953E-1,1.268792152E0,1.362132886E0
1.006810627E1,2.148714066E-1,4.073333740E-1,1.189649940E0,1.275679104E0
1.007632073E1,2.019047737E-1,3.050327301E-1,1.107077122E0,1.165946078E0
1.008453396E1,1.828637123E-1,2.084779739E-1,1.031308532E0,1.067941707E0
1.009274612E1,2.201895714E-1,1.081342697E-1,9.730986357E-1,1.003542437E0
1.010095873E1,2.118525505E-1,-4.576110840E-2,9.717419147E-1,9.956193706E-1
1.010919870E1,2.445588112E-1,-1.500110626E-1,1.053678989E0,1.092040175E0
1.011741162E1,2.236146927E-1,-1.895589828E-1,1.149287224E0,1.186084846E0
1.012562485E1,2.393612862E-1,-1.073083878E-1,1.220265865E0,1.248141698E0
1.013383735E1,2.004933357E-1,7.266616821E-2,1.192389011E0,1.211309004E0
1.014204977E1,1.916728020E-1,3.614368439E-1,1.062077165E0,1.138148918E0
1.015026166E1,1.923103333E-1,5.904884338E-1,8.181798458E-1,1.027169954E0
1.015847270E1,1.821413040E-1,7.949752808E-1,5.725272298E-1,9.964680529E-1
1.016668404E1,4.157352448E-2,1.061103821E0,3.164215684E-1,1.108057889E0
1.017489477E1,-5.480003357E-2,1.300125122E0,9.281009436E-2,1.304585026E0
1.018310643E1,-1.157402992E-1,1.400894165E0,-1.084638759E-2,1.405709046E0
1.019134423E1,-1.557922363E-1,1.387235641E0,-5.185556784E-2,1.396919091E0
1.019955654E1,-2.159924507E-1,1.360142708E0,-4.253946245E-2,1.377842709E0
1.020776858E1,-2.627658844E-1,1.345345497E0,8.518734574E-2,1.373410827E0
1.021597981E1,-3.954930305E-1,1.310075760E0,1.950759888E-1,1.382305276E0
1.022419104E1,-5.654082298E-1,1.250102997E0,2.113175094E-1,1.388199935E0
1.023240173E1,-6.773533821E-1,1.126748085E0,1.983295977E-1,1.329550105E0
1.024061143E1,-7.909131050E-1,9.832792282E-1,1.391167939E-1,1.269541280E0
1.024882135E1,-8.841967583E-1,7.720212936E-1,2.327872813E-2,1.174036918E0
1.025703139E1,-9.113168716E-1,5.075826645E-1,-1.281821430E-1,1.050984902E0
1.026524166E1,-8.766436577E-1,1.614694595E-1,-2.616012990E-1,9.289842456E-1
1.027347981E1,-7.762508392E-1,-2.462711334E-1,-2.952728570E-1,8.662568306E-1
1.028170439E1,-6.636042595E-1,-6.548385620E-1,-2.306124419E-1,9.603990076E-1
1.028991470E1,-5.556111336E-1,-9.838800430E-1,-8.533260226E-2,1.133139587E0
1.029812446E1,-4.346041679E-1,-1.285490513E0,8.849266917E-2,1.359852049E0
1.030633573E1,-2.955121994E-1,-1.533102036E0,2.560850382E-1,1.582184837E0
1.031454608E1,-1.114406586E-1,-1.680810928E0,3.587135077E-1,1.722271691E0
1.032275766E1,3.707647324E-2,-1.676782608E0,3.765614331E-1,1.718945343E0
1.033096931E1,1.686077118E-1,-1.571590900E0,3.386955261E-1,1.616490389E0
1.033918150E1,3.257365227E-1,-1.389471531E0,2.738002837E-1,1.453169643E0
1.034739370E1,4.362716675E-1,-1.101935863E0,2.126442492E-1,1.204081888E0
1.035563235E1,5.659227371E-1,-7.936468124E-1,7.834362984E-2,9.778964831E-1
1.036384370E1,7.188982964E-1,-4.051928520E-1,-5.981764197E-2,8.273899674E-1
1.037205523E1,7.455372810E-1,5.059528351E-2,-2.979680896E-1,8.044692055E-1
1.038026712E1,6.667003632E-1,4.655332565E-1,-5.580161810E-1,9.862011181E-1
1.038847923E1,5.577712059E-1,8.148708344E-1,-7.939835787E-1,1.267096333E0
1.039668985E1,4.261808395E-1,1.121190071E0,-8.248324990E-1,1.455694314E0
1.040490246E1,2.579703331E-1,1.294658661E0,-8.104677200E-1,1.549047341E0
1.041311331E1,1.100850105E-1,1.327810287E0,-7.636877298E-1,1.535714107E0
1.042132442E1,1.844263077E-2,1.242237091E0,-5.948091149E-1,1.377421869E0
1.042953600E1,5.037498474E-2,1.069244385E0,-4.537114501E-1,1.162615703E0
1.043777466E1,-1.550722122E-2,8.431711197E-1,-2.824833393E-1,8.893676675E-1
1.044601273E1,-3.031396866E-2,5.499353409E-1,-1.186396033E-1,5.634032049E-1
1.045422400E1,-5.075645447E-2,2.690162659E-1,1.475406066E-2,2.741599009E-1
1.046243712E1,2.530670166E-2,3.829002380E-3,1.249141544E-1,1.275093580E-1
1.047064950E1,5.078077316E-2,-1.968774796E-1,1.953057200E-1,2.819286313E-1
1.047886081E1,3.220701218E-2,-3.080263138E-1,2.481122911E-1,3.968339837E-1
1.048707466E1,-1.382827759E-3,-3.198409081E-1,2.393632084E-1,3.994932593E-1
1.049528719E1,1.220464706E-2,-3.185553551E-1,1.876021624E-1,3.698932805E-1
1.050349939E1,2.532196045E-2,-2.920536995E-1,1.349634826E-1,3.227254355E-1
1.051171077E1,1.212716103E-1,-2.454504967E-1,8.946904540E-2,2.880233669E-1
1.051994846E1,1.973223686E-1,-1.762285233E-1,4.302158952E-2,2.680363161E-1
1.052820158E1,2.204623222E-1,-1.343545914E-1,2.931946516E-2,2.598353763E-1
1.053641308E1,2.146143913E-1,-5.999183655E-2,5.127023906E-2,2.286634969E-1
1.054462512E1,2.003445625E-1,-1.648902893E-3,1.270404458E-1,2.372339299E-1
1.055283650E1,1.300411224E-1,1.438112259E-1,2.295431048E-1,3.004702966E-1
1.056104750E1,5.035924911E-2,2.750501633E-1,3.129604757E-1,4.196819101E-1
1.056925962E1,3.685379028E-2,3.746175766E-1,3.270714879E-1,4.986705212E-1
1.057746889E1,6.936025620E-2,3.915681839E-1,2.554088831E-1,4.726205511E-1
1.058568016E1,1.668515205E-1,3.808574677E-1,1.909205168E-1,4.575395986E-1
1.059392319E1,2.765450478E-1,3.591852188E-1,1.808227301E-1,4.880451255E-1
1.060216035E1,3.698487282E-1,3.170547485E-1,1.346325874E-1,5.054084773E-1
1.061039750E1,4.535737038E-1,2.590179443E-1,1.242226511E-1,5.368898093E-1
1.061860792E1,5.424747467E-1,1.949148178E-1,2.521217465E-1,6.291549985E-1
1.062681869E1,5.397100449E-1,1.615295410E-1,3.314393461E-1,6.536289202E-1
1.063502931E1,5.129618645E-1,1.568994522E-1,3.617370427E-1,6.469938180E-1
1.064324100E1,5.245809555E-1,1.930894852E-1,4.570555687E-1,7.220585302E-1
1.065145077E1,5.120525360E-1,2.579708099E-1,5.022572279E-1,7.622395040E-1
1.065966058E1,4.326124191E-1,3.972206116E-1,4.458579421E-1,7.373784808E-1
1.066790858E1,3.298573494E-1,5.393276215E-1,4.175800383E-1,7.576630139E-1
1.067615289E1,2.606210709E-1,6.982488632E-1,4.343877435E-1,8.626514529E-1
1.068439331E1,2.814946175E-1,7.105588913E-1,3.424343169E-1,8.374929367E-1
1.069263258E1,3.298716545E-1,6.023483276E-1,2.545326352E-1,7.324108674E-1
1.070084373E1,4.008054733E-1,4.525508881E-1,2.132793069E-1,6.410424295E-1
1.070905666E1,4.731345177E-1,2.973613739E-1,2.607635856E-1,6.166666085E-1
1.071726789E1,5.690684319E-1,1.085290909E-1,4.196915925E-1,7.153729632E-1
1.072548062E1,5.836787224E-1,-7.056903839E-2,6.178836226E-1,8.529015250E-1
1.073369369E1,5.821475983E-1,-1.533651352E-1,7.852988243E-1,9.895003458E-1
1.074190531E1,5.378341675E-1,-1.888847351E-1,9.255934358E-1,1.087044729E0
1.075011754E1,5.645518303E-1,-1.275300980E-1,1.062327504E0,1.209761307E0
1.075836277E1,5.252656937E-1,-1.993751526E-2,1.087878942E0,1.208214446E0
1.076660150E1,5.726366043E-1,7.366561890E-2,1.036308765E0,1.186286290E0
1.077485719E1,5.099563599E-1,2.392721176E-1,9.595521688E-1,1.112675604E0
1.078306946E1,4.249086380E-1,4.452247620E-1,8.573098183E-1,1.055344761E0
1.079128092E1,3.443331718E-1,6.199636459E-1,7.114643455E-1,1.004540577E0
1.079949246E1,3.122577667E-1,7.279815674E-1,6.585890055E-1,1.030146375E0
1.080770504E1,2.549366951E-1,7.935152054E-1,5.955607891E-1,1.024378716E0
1.081591719E1,2.204465866E-1,8.669471741E-1,6.132733822E-1,1.084572884E0
1.082412938E1,1.060609818E-1,9.675369263E-1,6.378152370E-1,1.163694510E0
1.083234088E1,-6.877136230E-2,1.045108795E0,6.413319707E-1,1.228124013E0
1.084058512E1,-2.656335831E-1,1.178689003E0,7.152581215E-1,1.404088012E0
1.084882546E1,-3.953061104E-1,1.290547371E0,8.311139345E-1,1.585096152E0
1.085706500E1,-4.091782570E-1,1.286187172E0,8.343273997E-1,1.586759748E0
1.086527854E1,-4.792165756E-1,1.254462242E0,8.084889054E-1,1.567475152E0
1.087348919E1,-4.818210602E-1,1.089544296E0,7.791029811E-1,1.423467514E0
1.088170062E1,-4.356393814E-1,8.397693634E-1,7.420259118E-1,1.202329700E0
1.088991438E1,-4.494571686E-1,5.971269608E-1,8.291112185E-1,1.116242700E0
1.089812758E1,-4.341521263E-1,3.501014709E-1,1.031432390E0,1.172566367E0
1.090634015E1,-3.932580948E-1,1.162767410E-1,1.262024999E0,1.326981276E0
1.091455312E1,-4.313731194E-1,-6.555175781E-2,1.398315668E0,1.464809376E0
1.092276615E1,-4.190087318E-1,-2.143850327E-1,1.533317089E0,1.603929723E0
1.093100585E1,-3.974041939E-1,-2.979640961E-1,1.626996636E0,1.701126318E0
1.093924527E1,-3.313913345E-1,-3.304338455E-1,1.617494345E0,1.683833334E0
1.094745754E1,-2.877869606E-1,-2.997274399E-1,1.500762343E0,1.557223646E0
1.095566988E1,-2.315583229E-1,-2.590980530E-1,1.325085878E0,1.369891836E0
1.096388239E1,-2.105789185E-1,-2.205200195E-1,1.131524205E0,1.171887190E0
1.097209546E1,-1.700630188E-1,-2.033061981E-1,9.677369595E-1,1.003379122E0
1.098030689E1,-1.319389343E-1,-2.148561478E-1,8.287574649E-1,8.662620748E-1
1.098851819E1,-9.867858887E-2,-1.809787750E-1,8.076546192E-1,8.335446988E-1
1.099672854E1,-8.481025696E-2,-2.191238403E-1,8.283775449E-1,8.610559761E-1
1.100493988E1,-6.863212585E-2,-2.118806839E-1,8.191481233E-1,8.488859999E-1
1.101317931E1,-8.866834641E-2,-2.312183380E-1,8.256288767E-1,8.619669585E-1
1.102140546E1,-8.022117615E-2,-2.746667862E-1,8.472615480E-1,8.942759145E-1
1.102961777E1,-1.224761009E-1,-2.346162796E-1,8.891023397E-1,9.276573530E-1
1.103782846E1,-1.640677452E-1,-1.979446411E-1,9.003584385E-1,9.363469569E-1
1.104604027E1,-2.340245247E-1,-1.563444138E-1,8.420287967E-1,8.878195471E-1
1.105425138E1,-2.941908836E-1,-1.362400055E-1,8.048577309E-1,8.677013208E-1
1.106246338E1,-3.156943321E-1,-9.928703308E-2,7.584199905E-1,8.274791286E-1
1.107067515E1,-2.748608589E-1,-4.803848267E-2,6.832578778E-1,7.380362560E-1
1.107888827E1,-2.120399475E-1,9.427165985E-2,5.277879238E-1,5.765485042E-1
1.108713312E1,-2.198276520E-1,2.418689728E-1,3.052325249E-1,4.472043054E-1
1.109537073E1,-3.703203201E-1,3.506031036E-1,4.524546862E-2,5.119636981E-1
1.110358158E1,-5.999088287E-1,5.028648376E-1,6.635904312E-3,7.828203389E-1
1.111179365E1,-8.141431808E-1,5.833911896E-1,2.581819892E-1,1.034326998E0
1.112000562E1,-7.431459427E-1,5.630645752E-1,7.011466026E-1,1.166582259E0
1.112821792E1,-9.567666054E-1,6.500892639E-1,1.107310176E0,1.601297666E0
1.113642954E1,-1.186115742E0,7.044343948E-1,1.638802886E0,2.142142215E0
1.114464212E1,-1.428437233E0,8.539457321E-1,1.923892975E0,2.543820045E0
1.115285381E1,-1.417908669E0,8.528022766E-1,2.233869076E0,2.779911467E0
1.116106573E1,-1.225369453E0,7.718639374E-1,2.285944939E0,2.706076218E0
1.116931046E1,-8.952398300E-1,6.884956360E-1,2.148858547E0,2.427565375E0
1.117754727E1,-5.670132637E-1,6.997117996E-1,1.821664929E0,2.032132810E0
1.118575904E1,-3.841533661E-1,7.690429688E-1,1.549565315E0,1.772047844E0
1.119397081E1,-4.049649239E-1,7.994489670E-1,1.352530241E0,1.622483680E0
1.120218246E1,-2.404274940E-1,7.972927094E-1,1.123591423E0,1.398548794E0
1.121039354E1,-3.183746338E-2,7.026653290E-1,1.008691788E0,1.229720013E0
1.121860508E1,2.112112045E-1,5.586843491E-1,9.542761445E-1,1.125780323E0
1.122681646E1,4.763703346E-1,3.746409416E-1,9.040750265E-1,1.088409934E0
1.123502650E1,7.533178329E-1,2.577180862E-1,9.005006552E-1,1.202001580E0
1.124323742E1,9.076585770E-1,2.052674294E-1,8.802122474E-1,1.280918581E0
1.125144750E1,1.086874962E0,1.878404617E-1,6.746057868E-1,1.292932399E0
1.125968496E1,1.124683857E0,2.381443977E-1,4.915729761E-1,1.250308171E0
1.126791023E1,1.209042072E0,3.265480995E-1,2.537821531E-1,1.277819148E0
1.127612023E1,1.332111359E0,4.094157219E-1,-8.756220341E-4,1.393607790E0
1.128433034E1,1.505152702E0,4.574527740E-1,-1.658034325E-1,1.581846540E0
1.129254096E1,1.637934685E0,5.261802673E-1,-3.482540548E-1,1.755271088E0
1.130075111E1,1.667644501E0,5.642085075E-1,-5.416586399E-1,1.841945575E0
1.130896069E1,1.673912525E0,6.605672836E-1,-6.142808199E-1,1.901492362E0
1.131716981E1,1.604583740E0,8.012561798E-1,-5.699784160E-1,1.881907500E0
1.132537996E1,1.543298721E0,9.047632217E-1,-5.632108450E-1,1.875519631E0
1.133362396E1,1.392201424E0,1.002485752E0,-4.765344262E-1,1.780530131E0
1.134186050E1,1.228151321E0,1.073158741E0,-3.259235620E-1,1.663205195E0
1.135007050E1,1.044457912E0,1.069334030E0,-1.206505895E-1,1.499641345E0
1.135828208E1,9.539747238E-1,9.793801308E-1,8.221680671E-2,1.369676173E0
1.136649342E1,8.869895935E-1,8.654222488E-1,2.525438666E-1,1.264707323E0
1.137470308E1,8.338203430E-1,7.322235107E-1,3.655947745E-1,1.168360892E0
1.138291454E1,9.167022705E-1,5.655546188E-1,4.634457827E-1,1.172594164E0
1.139112542E1,9.904093742E-1,4.114828110E-1,5.205153227E-1,1.192126266E0
1.139933654E1,1.066014767E0,2.949514389E-1,5.805152655E-1,1.249152436E0
1.140754773E1,1.123468876E0,2.408885956E-1,6.473872662E-1,1.318832781E0
1.141575996E1,1.178718090E0,2.072649002E-1,7.453492880E-1,1.409922209E0
1.142399865E1,1.242295265E0,2.114534378E-1,7.998375893E-1,1.492564991E0
1.143220919E1,1.189684868E0,3.180665970E-1,8.899462223E-1,1.519381691E0
1.144042069E1,1.096745491E0,5.264730453E-1,1.009124160E0,1.580618901E0
1.144863284E1,1.002073288E0,8.399639130E-1,1.116959929E0,1.719677218E0
1.145684350E1,1.021415710E0,9.606013298E-1,1.054468393E0,1.754408322E0
1.146505527E1,1.033576488E0,1.014213085E0,8.841060400E-1,1.696629609E0
1.147326500E1,1.143736362E0,1.041344643E0,7.134081125E-1,1.703373907E0
1.148147434E1,1.221757889E0,1.077208996E0,5.224114656E-1,1.710551168E0
1.148968531E1,1.396428108E0,1.016034603E0,3.107163310E-1,1.754674447E0
1.149789519E1,1.555038929E0,8.720226288E-1,1.022372842E-1,1.785783301E0
1.150613308E1,1.735584736E0,7.238888741E-1,-9.992957115E-3,1.880523687E0
1.151435769E1,1.841721058E0,6.974859238E-1,-7.338905334E-2,1.970738192E0
1.152256873E1,1.811362743E0,7.522954941E-1,-1.182192564E-1,1.964932388E0
1.153078008E1,1.697678566E0,8.791303635E-1,-1.704553962E-1,1.919384733E0
1.153899154E1,1.566840649E0,1.017477036E0,-2.184671164E-1,1.880951094E0
1.154720342E1,1.470612049E0,1.207422256E0,-2.612947226E-1,1.920636154E0
1.155541519E1,1.342409611E0,1.454073429E0,-3.231918216E-1,2.005204741E0
1.156362604E1,1.259030342E0,1.685768604E0,-3.989791870E-1,2.141531597E0
1.157183834E1,1.263507366E0,1.912140846E0,-4.967699647E-1,2.345104236E0
1.158004911E1,1.177180767E0,2.133960724E0,-6.773971319E-1,2.529507818E0
1.158828846E1,1.030418396E0,2.228608608E0,-9.516224861E-1,2.633257252E0
1.159649977E1,9.636068344E-1,2.221720695E0,-1.202715278E0,2.703905512E0
1.160471261E1,9.494309425E-1,2.048541069E0,-1.420488119E0,2.667531841E0
1.161292473E1,1.004132271E0,1.750432491E0,-1.463942170E0,2.493074849E0
1.162113569E1,1.172626972E0,1.305776119E0,-1.393182278E0,2.240772668E0
1.162934696E1,1.245209217E0,8.446588516E-1,-1.263677359E0,1.964910949E0
1.163755815E1,1.314058781E0,5.044302940E-1,-1.098112106E0,1.785231245E0
1.164576892E1,1.262371540E0,2.232670784E-1,-9.872539639E-1,1.618054536E0
1.165398000E1,1.236487389E0,-1.290559769E-2,-8.659729958E-1,1.509628049E0
1.166219077E1,1.259619236E0,-1.494994164E-1,-8.341512680E-1,1.518156459E0
1.167042815E1,1.234488487E0,-2.695589066E-1,-9.600526094E-1,1.586923074E0
1.167863946E1,1.260828018E0,-3.240504265E-1,-1.190044165E0,1.763774669E0
1.168685146E1,1.300383091E0,-3.104443550E-1,-1.479296684E0,1.993913378E0
1.169506327E1,1.288569927E0,-2.119064331E-1,-1.724168539E0,2.162885560E0
1.170327538E1,1.236593723E0,-4.572725296E-2,-1.983125091E0,2.337528640E0
1.171148854E1,1.108336449E0,1.281085014E-1,-2.184410572E0,2.452849571E0
1.171970154E1,1.037491322E0,2.207026482E-1,-2.255687237E0,2.492633710E0
1.172791404E1,7.987556458E-1,3.299937248E-1,-2.258035421E0,2.417773853E0
1.173612546E1,7.044014931E-1,3.567657471E-1,-2.125255346E0,2.267195084E0
1.174433754E1,7.382454872E-1,2.822475433E-1,-1.930517793E0,2.086041472E0
1.175257480E1,7.587690353E-1,2.101564407E-1,-1.714808106E0,1.886918923E0
1.176080196E1,6.766815186E-1,1.780252457E-1,-1.605136514E0,1.751015161E0
1.176901396E1,5.970788002E-1,2.417664528E-1,-1.544993997E0,1.673905780E0
1.177722473E1,4.888420105E-1,2.864532471E-1,-1.541851878E0,1.642659182E0
1.178543715E1,3.711643219E-1,3.863430023E-1,-1.598640442E0,1.686023467E0
1.179364711E1,2.414274216E-1,4.933896065E-1,-1.620548487E0,1.711110137E0
1.180185865E1,8.076477051E-2,6.054034233E-1,-1.613102198E0,1.724857952E0
1.181007069E1,-1.271343231E-2,6.576962471E-1,-1.617737174E0,1.746367530E0
1.181828284E1,-1.400980949E-1,7.552185059E-1,-1.546674132E0,1.726899922E0
1.182652961E1,-1.865210533E-1,7.686367035E-1,-1.428928852E0,1.633226913E0
1.183476888E1,-2.259340286E-1,7.388515472E-1,-1.273655891E0,1.489680209E0
1.184298007E1,-2.808794975E-1,6.549425125E-1,-1.093565106E0,1.305269179E0
1.185119246E1,-3.648309708E-1,5.869865417E-1,-8.942019343E-1,1.130155714E0
1.185940511E1,-3.941869736E-1,5.180530548E-1,-7.487897873E-1,9.921937731E-1
1.186761757E1,-4.552316666E-1,4.839448929E-1,-6.355351806E-1,9.194256334E-1
1.187583030E1,-4.595508575E-1,4.749264717E-1,-5.616586208E-1,8.672961147E-1
1.188404277E1,-4.435367584E-1,4.284048080E-1,-5.262904167E-1,8.107016334E-1
1.189225377E1,-4.621734619E-1,3.850965500E-1,-5.158113241E-1,7.924424167E-1
1.190046688E1,-4.244771004E-1,3.569660187E-1,-4.940721393E-1,7.427737381E-1
1.190867896E1,-4.242458344E-1,2.910060883E-1,-4.783417284E-1,7.024812315E-1
1.191691780E1,-3.587503433E-1,2.205915451E-1,-4.705737233E-1,6.315077733E-1
1.192512807E1,-3.001561165E-1,1.718387604E-1,-4.843585491E-1,5.951684282E-1
1.193333869E1,-2.032542229E-1,7.515907288E-2,-4.993860126E-1,5.443781359E-1
1.194154977E1,-2.046957016E-1,5.254650116E-2,-5.293862820E-1,5.700099127E-1
1.194976069E1,-1.680822372E-1,6.089591980E-2,-5.495569706E-1,5.779038116E-1
1.195797134E1,-1.729221344E-1,3.043460846E-2,-6.023831367E-1,6.274502159E-1
1.196618223E1,-1.503219604E-1,-6.309318542E-2,-6.791136265E-1,6.984073020E-1
1.197439257E1,-1.118526459E-1,-1.810884476E-1,-6.860024929E-1,7.182641997E-1
1.198260273E1,-5.218219757E-2,-3.830161095E-1,-6.686378717E-1,7.723347237E-1
1.199081304E1,-5.215835571E-2,-5.847163200E-1,-6.111191511E-1,8.473961800E-1
1.199905107E1,-5.587577820E-3,-7.377376556E-1,-5.214879513E-1,9.034587721E-1
1.200727838E1,3.518104553E-3,-8.136773109E-1,-3.514867425E-1,8.863555007E-1
1.201548923E1,1.911401749E-2,-7.937231064E-1,-1.953881085E-1,8.176418704E-1
1.202369873E1,-3.076601028E-2,-5.979366302E-1,-5.313742161E-2,6.010809819E-1
1.203190961E1,-1.406669617E-1,-2.952446938E-1,2.114480734E-2,3.277250771E-1
1.204012196E1,-2.551808357E-1,1.553573608E-1,-3.031447530E-2,3.002867561E-1
1.204833369E1,-4.743614197E-1,6.119241714E-1,-8.141717315E-2,7.785234127E-1
1.205654323E1,-5.628027916E-1,9.920082092E-1,-2.528653145E-1,1.168232912E0
1.206475315E1,-6.743607521E-1,1.209033012E0,-4.950169623E-1,1.470226187E0
1.207299630E1,-7.476186752E-1,1.355792046E0,-7.028536797E-1,1.700326160E0
1.208123334E1,-7.796211243E-1,1.368028641E0,-9.106410146E-1,1.818949839E0
1.208944407E1,-8.292598724E-1,1.164960861E0,-9.482160807E-1,1.715785383E0
1.209765442E1,-7.266197205E-1,6.602239609E-1,-8.744983077E-1,1.314769633E0
1.210586530E1,-5.340523720E-1,3.890991211E-3,-6.046645641E-1,8.067504639E-1
1.211407661E1,-3.335409164E-1,-6.783514023E-1,-2.503054142E-1,7.962807095E-1
1.212228803E1,-1.011505127E-1,-1.315465450E0,3.995206952E-2,1.319953387E0
1.213049988E1,9.101200104E-2,-1.774399281E0,3.605605662E-1,1.812947852E0
1.213870950E1,2.275357246E-1,-1.989621639E0,6.416203380E-1,2.102865529E0
1.214692150E1,3.513312340E-1,-2.044998646E0,8.648375273E-1,2.247976211E0
1.215513330E1,3.878455162E-1,-1.868832111E0,9.552415013E-1,2.134348596E0
1.216337427E1,3.834705353E-1,-1.465191841E0,8.904489279E-1,1.756910947E0
1.217158773E1,3.541321754E-1,-9.183125496E-1,8.188818693E-1,1.280341772E0
1.217980184E1,3.697791100E-1,-2.940125465E-1,6.664397120E-1,8.168977032E-1
1.218801457E1,4.246115685E-1,3.208951950E-1,4.836369157E-1,7.191476736E-1
1.219622626E1,4.075856209E-1,9.665260315E-1,3.110223413E-1,1.094090263E0
1.220443965E1,3.364653587E-1,1.503072739E0,2.266290784E-1,1.556854950E0
1.221265419E1,2.710042000E-1,1.998225212E0,2.008943260E-1,2.026500877E0
1.222086573E1,1.818985939E-1,2.331873894E0,2.028144896E-1,2.347734370E0
1.222907861E1,1.778635979E-1,2.459991932E0,1.073112115E-1,2.468746941E0
1.223732334E1,1.860604286E-1,2.365151882E0,4.727087915E-2,2.372929928E0
1.224556373E1,3.608770370E-1,2.089569569E0,1.177799851E-1,2.123771490E0
1.225381830E1,5.532622337E-1,1.690190792E0,2.093389183E-1,1.790716838E0
1.226203130E1,7.309908867E-1,1.196541786E0,3.442828059E-1,1.443811128E0
1.227024346E1,8.544816971E-1,7.313141823E-1,4.731745720E-1,1.220185879E0
1.227845588E1,9.636082649E-1,3.672323227E-1,5.765437484E-1,1.181441137E0
1.228667084E1,9.093255997E-1,7.172155380E-2,8.541057110E-1,1.249605375E0
1.229488465E1,7.980594635E-1,-1.114754677E-1,1.111889243E0,1.373180023E0
1.230309776E1,6.719760895E-1,-2.438411713E-1,1.332794666E0,1.512399420E0
1.231131065E1,5.506324768E-1,-3.108172417E-1,1.506792784E0,1.634083222E0
1.231952369E1,4.939994812E-1,-3.002796173E-1,1.586951733E0,1.688969845E0
1.232776380E1,5.499572754E-1,-2.502279282E-1,1.531394243E0,1.646279244E0
1.233597515E1,5.986728668E-1,-2.203612328E-1,1.320985556E0,1.466959820E0
1.234418634E1,6.920490265E-1,-1.367859840E-1,1.075807810E0,1.286469861E0
1.235239880E1,8.390297890E-1,-8.835506439E-2,8.079823256E-1,1.168166530E0
1.236060980E1,1.032665253E0,-8.436965942E-2,6.027578115E-1,1.198679583E0
1.236882180E1,1.160450935E0,-4.811859131E-2,4.686246514E-1,1.252425980E0
1.237703288E1,1.208061218E0,5.399656296E-2,3.756856918E-1,1.266280883E0
1.238524430E1,1.213276863E0,1.258540154E-1,3.108592629E-1,1.258774587E0
1.239345619E1,1.230294704E0,2.290182114E-1,2.718746066E-1,1.280621022E0
1.240170253E1,1.282386303E0,3.006625175E-1,2.461024225E-1,1.339954843E0
1.240994096E1,1.290259361E0,3.644866943E-1,2.430798411E-1,1.362610575E0
1.241815165E1,1.282509327E0,4.298944473E-1,2.593728304E-1,1.377284892E0
1.242636346E1,1.267905235E0,5.153560638E-1,3.491056859E-1,1.412462509E0
1.243457565E1,1.186549664E0,6.112208366E-1,3.895710111E-1,1.390415977E0
1.244278826E1,1.126298428E0,7.336554527E-1,4.332312644E-1,1.412263361E0
1.245100007E1,1.039807796E0,8.185834885E-1,4.752952158E-1,1.406124007E0
1.245921042E1,9.515519142E-1,7.711415291E-1,5.179793835E-1,1.329816884E0
1.246742019E1,9.208254814E-1,8.256030083E-1,5.353618860E-1,1.347646928E0
1.247563030E1,7.808256149E-1,8.461608887E-1,5.604670644E-1,1.280546844E0
1.248387384E1,6.885385513E-1,9.092984200E-1,5.598013401E-1,1.270545746E0
1.249211142E1,6.196818352E-1,9.056649208E-1,5.605635643E-1,1.232260539E0
1.250033630E1,5.684471130E-1,8.937568665E-1,5.478817225E-1,1.192521630E0
1.250854680E1,5.062990189E-1,9.096140862E-1,4.824801683E-1,1.147398621E0
1.251675788E1,3.884634972E-1,9.848637581E-1,4.779846072E-1,1.161606558E0
1.252496888E1,2.369542122E-1,1.076730728E0,4.596568942E-1,1.194479309E0
1.253317884E1,1.022472382E-1,1.132687569E0,4.488052726E-1,1.222645410E0
1.254138999E1,-3.040122986E-2,1.188357830E0,3.949392438E-1,1.252635451E0
1.254960026E1,-1.301555634E-1,1.135715485E0,3.870955110E-1,1.206910547E0
1.255780996E1,-1.922736168E-1,1.091624737E0,3.975947499E-1,1.177580271E0
1.256605276E1,-2.865085602E-1,1.046282768E0,3.867149949E-1,1.151669776E0
1.257429003E1,-2.893981934E-1,8.935751915E-1,4.116179943E-1,1.025503442E0
1.258249896E1,-2.703156471E-1,8.083367348E-1,3.366220593E-1,9.164023334E-1
1.259070903E1,-2.555317879E-1,7.403416634E-1,2.245154530E-1,8.147450287E-1
1.259891819E1,-2.758522034E-1,6.730422974E-1,9.428630769E-2,7.334645731E-1
1.260712880E1,-1.877799034E-1,6.470222473E-1,-4.667289555E-2,6.753350575E-1
1.261533796E1,-1.539025307E-1,6.049671173E-1,-1.455506235E-1,6.409806440E-1
1.262354707E1,-1.370472908E-1,5.597076416E-1,-2.383241802E-1,6.235808038E-1
1.263175611E1,-1.658749580E-1,4.849166870E-1,-2.085527331E-1,5.533108869E-1
1.263996538E1,-1.186060905E-1,4.593553543E-1,-1.161649525E-1,4.884353002E-1
1.264820757E1,-1.074962616E-1,5.837373734E-1,2.318973690E-1,6.372449741E-1
1.265644346E1,-1.244649887E-1,9.089717865E-1,6.262450814E-1,1.110812380E0
1.266465284E1,-2.598705292E-1,1.323008537E0,7.582400441E-1,1.546871761E0
1.267286180E1,-4.489793777E-1,1.854720116E0,7.226742506E-1,2.040545824E0
1.268107096E1,-6.690683365E-1,2.436306953E0,5.360054374E-1,2.582739987E0
1.268928019E1,-7.873740196E-1,2.818649292E0,2.811410129E-1,2.940030943E0
1.269749003E1,-9.120397568E-1,3.059721947E0,-7.157003880E-2,3.193561833E0
1.270570030E1,-1.035197258E0,3.033887863E0,-5.453542471E-1,3.251694971E0
1.271390911E1,-1.002633095E0,2.592477798E0,-9.108218551E-1,2.925031745E0
1.272212026E1,-6.985306740E-1,1.684092522E0,-1.060333490E0,2.109127743E0
1.273036576E1,-2.938895226E-1,4.986743927E-1,-9.702960849E-1,1.129832595E0
1.273860357E1,-2.214050293E-2,-7.197012901E-1,-8.868305087E-1,1.142334671E0
1.274685546E1,3.192539215E-1,-1.820285797E0,-5.749301910E-1,1.935434880E0
1.275506542E1,6.294412613E-1,-2.517694473E0,-1.772840321E-1,2.601232667E0
1.276327703E1,8.954262733E-1,-3.126266479E0,2.438251227E-1,3.261101195E0
1.277148892E1,9.608755112E-1,-3.303918839E0,3.116059899E-1,3.454889250E0
1.277969865E1,9.092621803E-1,-3.269561768E0,4.428507388E-1,3.422412693E0
1.278790826E1,9.919381142E-1,-2.862550735E0,4.416147470E-1,3.061561941E0
1.279611768E1,7.547755241E-1,-2.206676960E0,3.115273714E-1,2.352904291E0
1.280432734E1,5.526604652E-1,-1.405986309E0,1.140785143E-1,1.515006600E0
1.281257038E1,1.589941978E-1,-4.830055237E-1,-1.292705238E-1,5.246754799E-1
1.282080634E1,-1.148619652E-1,3.932142258E-1,-2.564180493E-1,4.832814029E-1
1.282901515E1,-3.309149742E-1,9.914054871E-1,-3.216632605E-1,1.093552382E0
1.283722445E1,-4.041771889E-1,1.440880775E0,-3.872594833E-1,1.545789933E0
1.284543357E1,-2.478361130E-1,1.568050385E0,-3.428732455E-1,1.624120319E0
1.285364284E1,-1.045660973E-1,1.417908669E0,-3.454904258E-1,1.463134544E0
1.286185218E1,9.589242935E-2,1.139482498E0,-3.102823496E-1,1.184859003E0
1.287006176E1,2.415423393E-1,8.265457153E-1,-1.673039049E-1,8.772178280E-1
1.287827145E1,3.572182655E-1,6.136856079E-1,-9.476062655E-2,7.163759425E-1
1.288648276E1,4.267244339E-1,4.221773148E-1,-5.282002687E-2,6.025922194E-1
1.289472680E1,5.031099319E-1,2.640724182E-1,-5.411094427E-2,5.707730197E-1
1.290296361E1,5.690617561E-1,1.124315262E-1,-3.253799677E-2,5.809740542E-1
1.291117330E1,5.984306335E-1,9.412097931E-2,3.010785580E-2,6.065348011E-1
1.291938322E1,6.284675598E-1,9.570503235E-2,2.876317501E-2,6.363632981E-1
1.292759342E1,6.254806519E-1,2.127647400E-2,-9.082534909E-2,6.323985913E-1
1.293580299E1,7.137570381E-1,-9.099769592E-2,-1.942091584E-1,7.452830921E-1
1.294401292E1,7.758231163E-1,-2.435946465E-1,-2.764601707E-1,8.588772238E-1
1.295222257E1,8.770360947E-1,-4.215025902E-1,-2.756128609E-1,1.011345240E0
1.296043238E1,9.152445793E-1,-5.234680176E-1,-2.948842645E-1,1.094827902E0
1.296864499E1,8.889765739E-1,-5.654664040E-1,-3.271028399E-1,1.103189862E0
1.297688980E1,9.396691322E-1,-6.143422127E-1,-2.467664182E-1,1.149472965E0
1.298512784E1,9.073071480E-1,-6.673407555E-1,-2.384559959E-1,1.151265046E0
1.299337822E1,8.181085587E-1,-6.598577499E-1,-2.958052158E-1,1.091885795E0
1.300158822E1,7.862496376E-1,-6.235156059E-1,-3.382654488E-1,1.058954068E0
1.300979911E1,7.490539551E-1,-5.993199348E-1,-3.863373995E-1,1.034177353E0
1.301800980E1,7.179546356E-1,-5.757040977E-1,-4.945908785E-1,1.044755571E0
1.302622076E1,7.170605659E-1,-5.837030411E-1,-5.826064348E-1,1.092847360E0
1.303443195E1,7.009501457E-1,-6.688055992E-1,-5.788295269E-1,1.128572398E0
1.304264161E1,6.987023354E-1,-7.039132118E-1,-5.511448383E-1,1.134653866E0
1.305085192E1,6.364874840E-1,-6.624484062E-1,-5.511290431E-1,1.071306413E0
1.305906268E1,5.622611046E-1,-6.114115715E-1,-5.146580935E-1,9.771563911E-1
1.306730188E1,4.140963554E-1,-5.577745438E-1,-4.065425694E-1,8.049006734E-1
1.307551134E1,2.110619545E-1,-4.944219589E-1,-2.163537741E-1,5.794904466E-1
1.308372107E1,5.171871185E-2,-3.109631538E-1,-5.348404497E-2,3.197396617E-1
1.309193076E1,-1.888580322E-1,-7.472705841E-2,3.599953651E-2,2.062703474E-1
1.310014111E1,-3.286190033E-1,1.233654022E-1,1.376081631E-2,3.512816987E-1
1.310835061E1,-5.522265434E-1,3.669099808E-1,-1.126817912E-1,6.725134016E-1
1.311655876E1,-7.234396935E-1,6.390323639E-1,-2.592670321E-1,9.994732343E-1
1.312476768E1,-7.657818794E-1,7.361106873E-1,-3.635740876E-1,1.122705192E0
1.313297818E1,-7.491602898E-1,7.870979309E-1,-5.041097999E-1,1.197869351E0
1.314118811E1,-7.927117348E-1,7.684459686E-1,-6.153340936E-1,1.263937161E0
1.314942542E1,-7.476339340E-1,6.756095886E-1,-5.991612673E-1,1.172347662E0
1.315763615E1,-6.735086441E-1,5.255393982E-1,-5.434980989E-1,1.012519499E0
1.316584611E1,-6.575093269E-1,4.173526764E-1,-4.336661398E-1,8.913854903E-1
1.317405695E1,-5.842738152E-1,3.369750977E-1,-2.772933841E-1,7.292597126E-1
1.318226684E1,-5.997500420E-1,3.179855347E-1,-1.856783479E-1,7.037693955E-1
1.319047711E1,-3.421568871E-1,1.912956238E-1,-1.971227229E-1,4.387741092E-1
1.319868934E1,-8.461241722E-1,-8.151435852E-2,-4.621773660E-1,9.675632398E-1
1.320690088E1,-9.423575401E-1,3.899888992E-1,-2.788587213E-1,1.057303770E0
1.321511157E1,-7.623190880E-1,8.444395065E-1,3.888429701E-1,1.202250942E0
1.322335688E1,-6.004257202E-1,7.672033310E-1,3.820239305E-1,1.046448413E0
1.323159495E1,-7.473754883E-1,4.673490524E-1,1.139347181E-1,8.888005273E-1
1.323984818E1,-7.545599937E-1,1.473140717E-1,-2.189440727E-1,7.993739593E-1
1.324806038E1,-6.152901649E-1,5.335140228E-2,-3.728221059E-1,7.214046589E-1
1.325627195E1,-2.539844513E-1,1.807422638E-1,-3.862678707E-1,4.963655259E-1
1.326448338E1,-4.132938385E-2,4.995889664E-1,-3.190221190E-1,5.941989277E-1
1.327269449E1,4.901409149E-3,9.198989868E-1,-1.842579544E-1,9.381839710E-1
1.328090445E1,-3.202338219E-1,1.408790588E0,-2.880956531E-1,1.473173353E0
1.328911441E1,-6.971826553E-1,1.888724327E0,-5.035620928E-1,2.075311548E0
1.329732472E1,-9.677004814E-1,2.147482872E0,-7.750675678E-1,2.479688820E0
1.330556861E1,-1.067554951E0,2.341136932E0,-9.686945081E-1,2.749357154E0
1.331380564E1,-1.191874981E0,2.416194916E0,-1.051998258E0,2.892276642E0
1.332204303E1,-1.258618355E0,2.239049911E0,-1.140555620E0,2.810397088E0
1.333025391E1,-1.184940815E0,1.744443893E0,-1.140609145E0,2.397531742E0
1.333846461E1,-9.456195831E-1,1.031497955E0,-1.019143701E0,1.731137866E0
1.334667572E1,-7.616367340E-1,2.570543289E-1,-7.653309107E-1,1.109909386E0
1.335488711E1,-5.968556404E-1,-4.885244370E-1,-5.367556810E-1,9.396805000E-1
