"Time (s)","Linear Acceleration x (m/s^2)","Linear Acceleration y (m/s^2)","Linear Acceleration z (m/s^2)","Absolute acceleration (m/s^2)"
1.623425100E-2,-4.895424843E-1,5.644941330E-1,-3.826251030E-1,8.394685459E-1
2.444482800E-2,1.064920425E-2,1.016217232E0,-1.380171776E-1,1.025602071E0
3.265452000E-2,3.338251114E-1,1.334023476E0,2.789688110E-2,1.375440320E0
4.086540500E-2,7.165751457E-1,1.390249729E0,3.062176704E-1,1.593751395E0
4.907609700E-2,1.057575226E0,1.125803947E0,7.352533340E-1,1.710700836E0
5.731498200E-2,1.241014957E0,6.920695305E-1,1.058230400E0,1.771702554E0
6.552428900E-2,1.100149632E0,2.981686592E-1,1.301917315E0,1.730382170E0
7.373425100E-2,7.311706543E-1,1.435279846E-3,1.249018669E0,1.447294103E0
8.194440400E-2,1.700081825E-1,-2.330732346E-1,9.386780262E-1,9.820093440E-1
9.015482800E-2,-2.155566216E-1,-3.872714043E-1,7.005980015E-1,8.290243406E-1
9.836890400E-2,-4.701762199E-1,-4.376149178E-1,4.871323109E-1,8.061453854E-1
1.065790200E-1,-6.276850700E-1,-4.546442032E-1,3.937819004E-1,8.693411780E-1
1.147882890E-1,-7.368388176E-1,-5.011434555E-1,4.086861610E-1,9.803573758E-1
1.229968270E-1,-7.412710190E-1,-4.287996292E-1,4.813783169E-1,9.823832906E-1
1.312060200E-1,-6.569166183E-1,-2.956838608E-1,4.875063896E-1,8.698453132E-1
1.394419430E-1,-4.842653275E-1,-1.210060120E-1,4.444856644E-1,6.683733000E-1
1.476499430E-1,-1.957669258E-1,3.599452972E-2,4.999070168E-1,5.380774301E-1
1.558572890E-1,1.110553741E-1,8.668899536E-3,5.792818069E-1,5.898947854E-1
1.640655960E-1,2.193741798E-1,-2.824306488E-3,3.752086163E-1,4.346429721E-1
1.722737120E-1,3.282809258E-1,-1.416363716E-1,3.013052940E-1,4.675618763E-1
1.804832120E-1,1.826987267E-1,-3.031682968E-1,1.183171272E-1,3.732141255E-1
1.886936350E-1,-6.155157089E-2,-3.529782295E-1,-7.499313354E-2,3.660685680E-1
1.969005190E-1,-2.424626350E-1,-4.190254211E-1,-8.126020432E-3,4.841863951E-1
2.051089420E-1,-4.088392258E-1,-3.805303574E-1,9.188175201E-3,5.586029788E-1
2.133180580E-1,-6.062655449E-1,-2.675790787E-1,-3.489899635E-2,6.636071234E-1
2.215555580E-1,-6.114149094E-1,-1.822142601E-1,1.206827164E-1,6.493031234E-1
2.297641730E-1,-6.267557144E-1,-1.083774567E-1,1.915152073E-1,6.642638582E-1
2.379706730E-1,-6.702141762E-1,-3.006458282E-3,1.150898933E-1,6.800307083E-1
2.461792500E-1,-6.294093132E-1,4.584169388E-2,1.781301498E-1,6.557346222E-1
2.543880190E-1,-6.941885948E-1,1.197729111E-1,1.061351299E-1,7.123959722E-1
2.625960190E-1,-7.415246964E-1,1.983189583E-1,-4.855346680E-2,7.691207471E-1
2.708039810E-1,-7.484898567E-1,2.647190094E-1,-4.730725288E-2,7.953308719E-1
2.790135960E-1,-7.607178688E-1,2.690596581E-1,-5.060625076E-2,8.084836227E-1
2.872242880E-1,-6.422185898E-1,2.302184105E-1,-1.421065331E-1,6.968783971E-1
2.954328650E-1,-4.351549149E-1,8.074951172E-2,-1.312537193E-1,4.616360281E-1
3.036724810E-1,-3.161735535E-1,-1.609101295E-1,-1.552052498E-1,3.872292025E-1
3.118817880E-1,-2.611165047E-1,-4.680013657E-1,-3.580255508E-1,6.445071003E-1
3.200899420E-1,-1.610612869E-1,-8.005566597E-1,-3.230459690E-1,8.781744711E-1
3.282987110E-1,-6.543111801E-2,-1.054757118E0,-3.205010891E-1,1.104316421E0
3.365082500E-1,-4.665184021E-2,-1.115484238E0,-3.292946815E-1,1.164008791E0
3.447230190E-1,-4.927635193E-2,-1.082929611E0,-1.543641090E-1,1.094985379E0
3.529344420E-1,6.346702576E-3,-8.732452393E-1,-2.219653130E-2,8.735503503E-1
3.611460570E-1,-2.759027481E-2,-5.206966400E-1,-8.362746239E-2,5.280906803E-1
3.693584030E-1,-3.242588043E-2,-3.304724693E-1,-5.146813393E-2,3.360244924E-1
3.775699030E-1,-1.868286133E-1,-1.598086357E-1,-1.707599163E-1,2.993370672E-1
3.858119030E-1,-3.692822456E-1,-1.231975555E-1,-3.863830566E-1,5.484878131E-1
3.940234420E-1,-4.272103310E-1,-1.808390617E-1,-5.241916180E-1,6.999916324E-1
4.022324030E-1,-4.939241409E-1,-2.681913376E-1,-6.605665684E-1,8.673153070E-1
4.104402490E-1,-6.235837936E-1,-3.171067238E-1,-8.668537140E-1,1.113933922E0
4.186484800E-1,-6.433124542E-1,-3.433532715E-1,-8.675990105E-1,1.133344796E0
4.268575190E-1,-6.678647995E-1,-2.441554070E-1,-8.479380608E-1,1.106640957E0
4.350664420E-1,-5.633435249E-1,-1.224145889E-1,-8.168663979E-1,9.998059665E-1
4.432763260E-1,-3.928890228E-1,-3.738117218E-2,-5.802326202E-1,7.017328764E-1
4.514874800E-1,-2.629470825E-1,7.013988495E-2,-5.129115582E-1,5.806367523E-1
4.596986720E-1,-1.844182014E-1,1.520948410E-1,-4.947657585E-1,5.494870967E-1
4.679394800E-1,-9.291505814E-2,1.654477119E-1,-3.909215927E-1,4.345409590E-1
4.761496720E-1,-1.978397369E-3,1.217198372E-1,-2.871856689E-1,3.119218512E-1
4.843617490E-1,-5.435371399E-2,1.373372078E-1,-3.495645523E-1,3.794880909E-1
4.925742880E-1,1.479387283E-2,1.432085037E-2,-3.165478706E-1,3.172168026E-1
5.007865180E-1,4.018115997E-2,-8.124065399E-2,-4.705584049E-1,4.792074519E-1
5.089987490E-1,1.430206299E-1,-2.528657913E-1,-6.958022118E-1,7.540137445E-1
5.172102490E-1,1.599030495E-1,-4.081153870E-1,-8.016641140E-1,9.136698014E-1
5.254224030E-1,7.755804062E-2,-5.129203796E-1,-9.667606354E-1,1.097145702E0
5.336341340E-1,1.409969330E-1,-6.117892265E-1,-1.008667469E0,1.188097747E0
5.418456720E-1,-1.110315323E-2,-7.157664299E-1,-1.029839993E0,1.254199056E0
5.500852490E-1,1.573514938E-2,-7.506723404E-1,-9.427964687E-1,1.205247584E0
5.582957100E-1,2.418322563E-1,-6.684079170E-1,-8.408076763E-1,1.101003875E0
5.665065560E-1,2.400870323E-1,-6.086745262E-1,-6.961743832E-1,9.553979452E-1
5.747172870E-1,-2.013711929E-1,-4.483809471E-1,-8.028576374E-1,9.413693308E-1
5.829289410E-1,-3.472061157E-1,-3.779988289E-1,-6.601631641E-1,8.362120573E-1
5.911431720E-1,-5.082049370E-1,-2.893610001E-1,-5.250790119E-1,7.859453003E-1
5.993545950E-1,-6.672358513E-1,-2.317452431E-1,-4.271960258E-1,8.254731876E-1
6.075625950E-1,-7.595791817E-1,-2.163753510E-1,-4.124619961E-1,8.910127518E-1
6.157709410E-1,-7.626991272E-1,-1.354255676E-1,-1.623315811E-1,7.914553590E-1
6.239801330E-1,-8.244380951E-1,-5.226039886E-2,-9.202361107E-2,8.312025427E-1
6.322181720E-1,-7.119297981E-1,1.285266876E-2,7.477450371E-2,7.159612105E-1
6.404288640E-1,-5.574107170E-1,4.803133011E-2,9.530043602E-2,5.675349233E-1
6.486399410E-1,-3.755979538E-1,9.888982773E-2,1.144685745E-1,4.049148991E-1
6.568495180E-1,-3.341097832E-1,2.043290138E-1,2.540922165E-2,3.924605988E-1
6.650600180E-1,-2.412648201E-1,2.471995354E-1,-1.615436077E-1,3.813301206E-1
6.732685180E-1,-2.327241898E-1,3.046994209E-1,-2.627029419E-1,4.647742692E-1
6.814783250E-1,-1.266593933E-1,3.456916809E-1,-3.950531483E-1,5.400114167E-1
6.896900560E-1,-1.669759750E-1,4.041571617E-1,-5.151031017E-1,6.756886805E-1
6.979023250E-1,-1.116290092E-1,4.807014465E-1,-6.315162182E-1,8.014659383E-1
7.061162480E-1,-1.012077332E-1,4.771451950E-1,-6.431851387E-1,8.072159965E-1
7.143546710E-1,-2.022790909E-1,5.324344635E-1,-6.516828537E-1,8.655020684E-1
7.225660560E-1,-2.516188622E-1,5.650410652E-1,-5.219881535E-1,8.093547365E-1
7.307780170E-1,-3.119320869E-1,5.961937904E-1,-4.787480831E-1,8.258016649E-1
7.389886330E-1,-4.170274734E-1,6.085557938E-1,-3.694295883E-1,8.250638087E-1
7.471995170E-1,-4.661316872E-1,6.428360939E-1,-2.735743523E-1,8.398570829E-1
7.554097100E-1,-5.474390984E-1,6.524162292E-1,-3.085124493E-1,9.058236219E-1
7.636204020E-1,-4.185891151E-1,5.205049515E-1,-2.923901081E-1,7.291325169E-1
7.718313250E-1,-2.011585236E-1,3.082027435E-1,-2.928934097E-1,4.703618099E-1
7.800412860E-1,-1.298661232E-1,9.783554077E-2,-4.200952053E-1,4.504630779E-1
7.882512860E-1,-3.485999107E-1,-8.355808258E-2,-6.621699333E-1,7.529760099E-1
7.964914020E-1,-4.917774200E-1,-1.888961792E-1,-8.685786724E-1,1.015852208E0
8.047034020E-1,-4.749879837E-1,-2.590980530E-1,-8.740098476E-1,1.027929277E0
8.129137860E-1,-7.676863670E-1,-1.871361732E-1,-1.082348824E0,1.340090027E0
8.211235560E-1,-1.284245014E0,-2.003526688E-2,-1.278065205E0,1.811942973E0
8.293355550E-1,-1.671034813E0,1.857838631E-1,-1.299787045E0,2.125163370E0
8.375501710E-1,-1.691659451E0,2.782917023E-1,-1.098414898E0,2.036092644E0
8.457618250E-1,-1.939064980E0,4.351415634E-1,-1.007491350E0,2.228084378E0
8.539731710E-1,-1.940640450E0,4.354844093E-1,-8.476870060E-1,2.162014173E0
8.621838250E-1,-1.671407223E0,3.765401840E-1,-5.580413342E-1,1.801886441E0
8.703941710E-1,-1.338579178E0,2.581110001E-1,-3.251287937E-1,1.401472167E0
8.786351320E-1,-8.587670326E-1,2.291488647E-2,4.857087135E-2,8.604446745E-1
8.868473630E-1,-3.848614693E-1,-2.115669250E-1,3.446042538E-1,5.582392014E-1
8.950608240E-1,1.153640747E-1,-4.103374481E-1,7.621281147E-1,8.732267485E-1
9.032739400E-1,5.958437920E-1,-5.991568565E-1,9.989478588E-1,1.308401921E0
9.114857860E-1,9.876646996E-1,-7.373981476E-1,1.101644754E0,1.653136035E0
9.196978630E-1,1.275933266E0,-7.686324120E-1,1.284772635E0,1.967089781E0
9.279081700E-1,1.462614059E0,-7.012062073E-1,1.468006253E0,2.187686539E0
9.361185550E-1,1.729421616E0,-6.469726562E-1,1.569393992E0,2.423318024E0
9.443299010E-1,1.950156212E0,-3.808879852E-1,1.549240708E0,2.519589586E0
9.525409780E-1,2.062252045E0,6.308603287E-2,1.649234414E0,2.641370382E0
9.607794780E-1,2.104021072E0,6.040678024E-1,1.647256970E0,2.739572614E0
9.689907090E-1,2.088754654E0,1.145391464E0,1.541204214E0,2.837274756E0
9.772020160E-1,1.983995438E0,1.527907372E0,1.443845510E0,2.890575841E0
9.853427470E-1,1.821302891E0,1.744646072E0,1.344199896E0,2.857937630E0
9.935517090E-1,1.524122238E0,1.888019562E0,1.228161812E0,2.719549209E0
1.001764786E0,1.086974621E0,2.014103413E0,1.017585516E0,2.504716883E0
1.009906132E0,4.838633537E-1,2.123238087E0,7.681705952E-1,2.309188122E0
1.018114324E0,-1.837210655E-1,2.259233475E0,3.160297871E-1,2.288616208E0
1.026322670E0,-7.157278061E-1,2.418828011E0,-2.143383026E-3,2.522498728E0
1.034531516E0,-9.183712006E-1,2.517195225E0,-2.001724243E-1,2.686958589E0
1.042771709E0,-8.850879669E-1,2.452676773E0,-2.776198387E-1,2.622227457E0
1.050982824E0,-4.836316109E-1,2.215650558E0,-3.110165596E-1,2.289047451E0
1.059194747E0,-2.657890320E-2,1.966914177E0,-3.875060081E-1,2.004898682E0
1.067408324E0,4.888658524E-1,1.452857971E0,-2.842402458E-1,1.559031309E0
1.075621362E0,1.221537590E0,8.885293007E-1,-9.580945969E-2,1.513544798E0
1.083841208E0,1.788623333E0,3.613824844E-1,5.905723572E-2,1.825721360E0
1.092054708E0,1.893185616E0,6.921863556E-2,1.661758423E-1,1.901724850E0
1.100269285E0,2.310490847E0,-1.688346863E-1,8.668422699E-2,2.318272473E0
1.108484247E0,2.611410618E0,-4.165458679E-1,1.195826530E-1,2.647125967E0
1.116696939E0,2.777035952E0,-5.755724907E-1,1.069917679E-1,2.838073221E0
1.124929362E0,2.831671000E0,-5.125207901E-1,3.091049194E-2,2.877845317E0
1.133141939E0,2.777964354E0,-5.036716461E-1,1.388783455E-1,2.826669113E0
1.141354977E0,2.584823608E0,-4.164085388E-1,1.424469948E-1,2.622022178E0
1.149567516E0,2.312395811E0,-3.065629005E-1,1.103911400E-1,2.335239046E0
1.157779208E0,1.980175495E0,-1.509842873E-1,9.221506119E-2,1.988063094E0
1.165994708E0,1.664106369E0,-3.376960754E-2,1.410284042E-1,1.670412944E0
1.174207516E0,1.446303368E0,-3.199338913E-2,1.554737091E-1,1.454987657E0
1.182420593E0,1.126047134E0,3.949737549E-2,2.198853493E-1,1.147994668E0
1.190632669E0,8.413295746E-1,6.914520264E-2,3.287210464E-1,9.059106129E-1
1.198847093E0,6.876707077E-1,6.405782700E-2,3.936343193E-1,7.949480390E-1
1.207091516E0,6.284260750E-1,3.320693970E-2,3.980169296E-1,7.446069492E-1
1.215305362E0,6.442704201E-1,1.060914993E-2,4.122080803E-1,7.649264211E-1
1.223518477E0,6.259746552E-1,6.601142883E-2,4.450030327E-1,7.708628132E-1
1.231730669E0,4.580726624E-1,1.972365379E-1,3.537626266E-1,6.114579396E-1
1.239943939E0,3.144645691E-1,3.252477646E-1,2.665419579E-1,5.250892199E-1
1.248159015E0,3.100137711E-1,3.119058609E-1,5.510759354E-2,4.432049765E-1
1.256371708E0,2.133083344E-1,2.115869522E-1,-2.290616035E-1,3.778077581E-1
1.264585554E0,9.350776672E-2,8.561038971E-2,-5.317611694E-1,5.466651467E-1
1.272798246E0,-9.136915207E-2,-1.549739838E-1,-9.180221558E-1,9.354837979E-1
1.281010285E0,-4.376354218E-1,-3.865938187E-1,-1.443394184E0,1.557037673E0
1.289243708E0,-7.403030396E-1,-7.507872581E-1,-1.935568810E0,2.204122663E0
1.297456092E0,-8.787059784E-1,-1.104406834E0,-2.348673820E0,2.740092583E0
1.305669438E0,-9.586725235E-1,-1.159228325E0,-2.600282192E0,3.004052396E0
1.313882938E0,-9.781222343E-1,-9.647789001E-1,-2.601188183E0,2.941717423E0
1.322094246E0,-7.877097130E-1,-3.481893539E-1,-2.402973652E0,2.552646625E0
1.330312515E0,-3.429045677E-1,2.487072945E-1,-2.107369900E0,2.149522448E0
1.338524400E0,-1.556797028E-1,7.046198845E-1,-1.809596062E0,1.948169207E0
1.346736861E0,-1.210093498E-1,1.030906677E0,-1.723155022E0,2.011634924E0
1.354947977E0,-1.578125954E-1,1.152351856E0,-1.670962811E0,2.035911670E0
1.363160861E0,-2.022314072E-2,1.087604046E0,-1.556066036E0,1.898587118E0
1.371402169E0,1.965599060E-1,8.261938095E-1,-1.455356598E0,1.685020722E0
1.379613823E0,3.124032021E-1,5.704545975E-1,-1.478879452E0,1.615579971E0
1.387824784E0,3.253617287E-1,3.742280006E-1,-1.560988903E0,1.637862389E0
1.396035630E0,3.189592361E-1,2.214655876E-1,-1.619858742E0,1.665750385E0
1.404247746E0,3.468389511E-1,1.342339516E-1,-1.578063488E0,1.621295896E0
1.412463399E0,3.383512497E-1,8.266878128E-2,-1.383881092E0,1.427039794E0
1.420674130E0,2.577052116E-1,1.346521378E-1,-1.281568527E0,1.314138906E0
1.428886669E0,1.077551842E-1,1.872091293E-1,-1.219269753E0,1.238255695E0
1.437097515E0,-1.314511299E-1,3.498325348E-1,-1.141858101E0,1.201458332E0
1.445309092E0,-3.993282318E-1,7.845525742E-1,-1.062562943E0,1.379864408E0
1.453546053E0,-5.407199860E-1,1.210261345E0,-8.877773285E-1,1.595386853E0
1.461756284E0,-4.543867111E-1,1.708680630E0,-6.789641380E-1,1.893950654E0
1.469967361E0,-2.339396477E-1,2.084324837E0,-3.803362846E-1,2.131617572E0
1.478178553E0,1.168475151E-1,2.427350998E0,-1.560873985E-1,2.435169293E0
1.486388399E0,1.525707245E-1,2.459124565E0,2.201929092E-1,2.473672648E0
1.494602014E0,2.673039436E-1,2.269611359E0,6.456921101E-1,2.374764287E0
1.502811707E0,3.736243248E-1,1.926855564E0,1.125192642E0,2.262393861E0
1.511022053E0,5.003452301E-2,1.297237873E0,1.161505222E0,1.741959797E0
1.519232861E0,9.318771362E-1,7.906770706E-1,2.276216030E0,2.583548847E0
1.527443207E0,2.043446541E0,2.687649727E-1,3.089633942E0,3.713993305E0
1.535680745E0,2.541447639E0,-8.058929443E-2,3.369199991E0,4.221014016E0
1.543890514E0,2.364457130E0,-5.958423615E-1,3.631384373E0,4.374087117E0
1.552099437E0,1.793532848E0,-8.465089798E-1,3.478631496E0,4.004274543E0
1.560309322E0,1.683472633E0,-8.393640518E-1,2.844009161E0,3.409838739E0
1.568519745E0,1.437136173E0,-7.159461975E-1,1.600553036E0,2.267092711E0
1.576735437E0,8.390436172E-1,-4.362778664E-1,8.277595043E-1,1.256788910E0
1.584944783E0,3.412590027E-1,4.720067978E-2,5.803344250E-1,6.748878839E-1
1.593153283E0,1.828098297E-2,4.526214600E-1,8.384008408E-1,9.529513892E-1
1.601364937E0,-4.902272224E-1,8.046994209E-1,9.267373085E-1,1.321630026E0
1.609577591E0,-8.860664368E-1,1.174407005E0,1.216436863E0,1.908943212E0
1.617810629E0,-1.403862476E0,1.582201481E0,1.355657816E0,2.512369299E0
1.626023091E0,-1.879315376E0,1.781649113E0,1.451193571E0,2.968511854E0
1.634233360E0,-2.239143848E0,1.950593472E0,1.243590355E0,3.219487077E0
1.642443706E0,-2.640851021E0,1.792298794E0,1.136597157E0,3.387961360E0
1.650654245E0,-2.676395416E0,1.654335499E0,1.062088490E0,3.320835787E0
1.658866937E0,-2.623779774E0,1.402532578E0,9.205420017E-1,3.114276081E0
1.667076514E0,-1.625490189E0,1.010621071E0,1.317324877E0,2.323557215E0
1.675284552E0,-1.014181614E0,6.426105499E-1,1.371788025E0,1.822996174E0
1.683492129E0,-6.661162376E-1,2.626628876E-1,1.353935719E0,1.531615018E0
1.691702014E0,-3.024263382E-1,-8.806991577E-2,1.140601397E0,1.183296052E0
1.699940360E0,3.605256081E-1,-4.635434151E-1,1.031155109E0,1.186647408E0
1.708150129E0,1.112957478E0,-8.013596535E-1,9.445581436E-1,1.665245246E0
1.716361206E0,1.597880363E0,-1.033010960E0,7.499830723E-1,2.045191411E0
1.724572898E0,1.829995632E0,-1.165328979E0,3.993360996E-1,2.205979366E0
1.732781860E0,1.912685394E0,-1.266270161E0,1.487860680E-1,2.298682847E0
1.740995052E0,1.940411568E0,-1.323850632E0,-1.162309647E-1,2.351868871E0
1.749204475E0,1.857451916E0,-1.338082314E0,-3.273158073E-1,2.312515413E0
1.757413590E0,1.680817127E0,-1.254921436E0,-5.586912632E-1,2.170739495E0
1.765623975E0,1.459303379E0,-1.149545193E0,-4.883792400E-1,1.920816177E0
1.773834860E0,1.116031170E0,-9.584283829E-1,-2.928035259E-1,1.499948146E0
1.782069783E0,7.458224297E-1,-7.608618736E-1,-6.612062454E-3,1.065460279E0
1.790281860E0,5.314230919E-1,-5.506401062E-1,2.780740261E-1,8.142113934E-1
1.798493744E0,3.623242378E-1,-3.755164146E-1,5.430307388E-1,7.531094305E-1
1.806705975E0,1.952614784E-1,-1.315846443E-1,6.874532700E-1,7.266591787E-1
1.814917629E0,3.274059296E-2,6.219053268E-2,7.844307423E-1,7.875729796E-1
1.823135706E0,-1.751818657E-1,2.400469780E-1,8.035860062E-1,8.567740116E-1
1.831344475E0,-3.162636757E-1,4.381799698E-1,6.958832741E-1,8.810663594E-1
1.839553205E0,-3.831686974E-1,4.712619781E-1,6.649422646E-1,9.005855417E-1
1.847763436E0,-4.892411232E-1,5.913248062E-1,5.271406174E-1,9.310741826E-1
1.855972859E0,-5.072236061E-1,6.901564598E-1,3.738625050E-1,9.345399393E-1
1.864212782E0,-4.594488144E-1,7.002797127E-1,1.318943501E-1,8.478685090E-1
1.872422898E0,-5.488691330E-1,7.002005577E-1,-8.055901527E-2,8.933240740E-1
1.880631705E0,-7.490200996E-1,8.059515953E-1,-2.380306721E-1,1.125720962E0
1.888840975E0,-7.030797005E-1,8.017287254E-1,-1.977553368E-1,1.084526250E0
1.897050013E0,-6.562838554E-1,6.743240356E-1,-2.164273262E-1,9.655372554E-1
1.905265898E0,-6.833891869E-1,5.987563133E-1,-1.701934338E-1,9.243893705E-1
1.913476513E0,-7.135901451E-1,5.481581688E-1,-4.113674164E-2,9.007666206E-1
1.921687782E0,-7.236070633E-1,5.506124496E-1,6.307291985E-2,9.114600622E-1
1.929900128E0,-7.732353210E-1,5.582942963E-1,8.259463310E-2,9.572916256E-1
1.938112051E0,-7.334089279E-1,5.827026367E-1,2.882862091E-2,9.371563945E-1
1.946344436E0,-6.728806496E-1,5.786986351E-1,-4.156708717E-2,8.884752678E-1
1.954557974E0,-5.955839157E-1,5.256152153E-1,-1.237907410E-1,8.039376237E-1
1.962768513E0,-5.777869225E-1,4.479017258E-1,-2.080004215E-1,7.600775349E-1
1.970978743E0,-6.019964218E-1,3.100304604E-1,-2.878181934E-1,7.357702703E-1
1.979189551E0,-5.895495415E-1,9.984254837E-2,-3.677291870E-1,7.019700501E-1
1.987429820E0,-6.476445198E-1,-1.505365372E-1,-4.635884762E-1,8.105670536E-1
1.995638782E0,-5.854921341E-1,-3.699002266E-1,-5.057775974E-1,8.575769323E-1
2.003849243E0,-4.940295219E-1,-6.007957458E-1,-5.148942471E-1,9.328112255E-1
2.012060436E0,-5.615382195E-1,-7.919216156E-1,-6.536421776E-1,1.170347433E0
2.020273820E0,-6.736712456E-1,-8.380403519E-1,-8.589997292E-1,1.376235849E0
2.028491897E0,-8.878049850E-1,-7.532224655E-1,-1.073381662E0,1.583568744E0
2.036707512E0,-1.055785656E0,-6.441721916E-1,-1.196177721E0,1.720605214E0
2.044920320E0,-1.192587852E0,-4.871749878E-1,-1.229220629E0,1.780614672E0
2.053131320E0,-1.280971527E0,-3.696651459E-1,-1.204844475E0,1.796994875E0
2.061342743E0,-1.065858364E0,-2.940206528E-1,-1.068506956E0,1.537598554E0
2.069556858E0,-1.322669983E0,-1.045837402E-1,-8.426630497E-1,1.571774366E0
2.077767551E0,-1.324668407E0,4.656314850E-2,-5.438814163E-1,1.432732184E0
2.085978628E0,-1.124932766E0,1.416659355E-1,-1.372084618E-1,1.142089807E0
2.094189589E0,-5.057888031E-1,1.414871216E-2,4.209551811E-1,6.581988787E-1
2.102400743E0,1.025271416E-1,-1.284122467E-3,7.111890316E-1,7.185424848E-1
2.110631666E0,6.734805107E-1,3.121185303E-2,1.131987572E0,1.317553050E0
2.118846974E0,1.044286251E0,2.738351822E-1,1.340786219E0,1.721402674E0
2.127060435E0,1.303323269E0,6.407365799E-1,1.478657961E0,2.072588785E0
2.135272397E0,1.611584663E0,9.824876785E-1,1.529142141E0,2.429148586E0
2.143484320E0,1.626600266E0,1.539011955E0,1.549591303E0,2.723163496E0
2.151725166E0,1.629462719E0,2.132302761E0,1.777048111E0,3.218658697E0
2.159936935E0,1.804642200E0,2.716320992E0,2.038272142E0,3.845736149E0
2.168148512E0,1.865795612E0,3.312843323E0,2.204154491E0,4.394817535E0
2.176360243E0,1.762590885E0,3.940365791E0,2.321619034E0,4.901339015E0
2.184572820E0,1.457312107E0,4.330670834E0,2.273384571E0,5.103601263E0
2.192788320E0,1.033932686E0,4.276392460E0,2.054559469E0,4.855693965E0
2.201005204E0,4.662656784E-1,3.949553013E0,1.489163637E0,4.246643501E0
2.209217204E0,2.075257301E-1,3.236512184E0,7.812688351E-1,3.335934508E0
2.217429204E0,-1.276979446E-1,2.409822941E0,-1.059617996E-1,2.415529191E0
2.225642512E0,-2.727942467E-1,1.708821297E0,-9.649100304E-1,1.981297124E0
2.233884166E0,-1.071810722E-1,1.238242626E0,-1.603109837E0,2.028470787E0
2.242096358E0,5.355305672E-1,6.571755409E-1,-1.640547276E0,1.846636955E0
2.250308550E0,1.199573994E0,1.315469742E-1,-1.250895977E0,1.738109064E0
2.258520896E0,1.663731098E0,-2.404632568E-1,-1.546196938E-1,1.688114627E0
2.266733050E0,2.306520700E0,-3.318581581E-1,-1.048994064E-1,2.332631875E0
2.274950435E0,2.732924223E0,-3.543467522E-1,2.256417274E-1,2.765022716E0
2.283165550E0,3.012604713E0,-2.896456718E-1,7.069091797E-1,3.107957909E0
2.291376973E0,3.272733450E0,-2.502241135E-1,1.125799656E0,3.469988646E0
2.299587281E0,3.266648531E0,-1.398034096E-1,1.234141350E0,3.494802210E0
2.307798588E0,3.313132048E0,-8.151054382E-2,1.200720310E0,3.524942155E0
2.316013050E0,3.110734940E0,7.633447647E-2,9.164686203E-1,3.243826991E0
2.324225242E0,2.683333635E0,1.837334633E-1,7.151379585E-1,2.783066597E0
2.332437357E0,2.241151571E0,2.865090370E-1,5.521097183E-1,2.325870361E0
2.340649319E0,1.918964386E0,3.560047150E-1,5.133299828E-1,2.018086059E0
2.348859011E0,1.661003590E0,3.814997673E-1,5.695633888E-1,1.796907747E0
2.357071396E0,1.569121838E0,3.621535301E-1,7.044162750E-1,1.757697588E0
2.365284934E0,1.524584293E0,3.822798729E-1,8.239541054E-1,1.774653638E0
2.373494934E0,1.514708519E0,3.320369720E-1,8.689413071E-1,1.777540279E0
2.381705050E0,1.468253136E0,3.246326447E-1,8.346433640E-1,1.719820679E0
2.389915203E0,1.360833645E0,3.644943237E-1,7.929086685E-1,1.616610181E0
2.398154819E0,1.281237602E0,4.383463860E-1,5.915536880E-1,1.477718888E0
2.406365434E0,1.158296108E0,4.714493752E-1,4.523291588E-1,1.329855652E0
2.414575280E0,9.283618927E-1,5.340728760E-1,1.523633003E-1,1.081805997E0
2.422787203E0,5.039978027E-1,5.049448013E-1,-2.106242180E-1,7.438720312E-1
2.431000319E0,-3.290891647E-2,4.345984459E-1,-7.016029358E-1,8.259573146E-1
2.439231972E0,-4.831752777E-1,2.233848572E-1,-1.128487110E0,1.247734868E0
2.447446626E0,-1.017850399E0,-3.111267090E-2,-1.513717651E0,1.824370730E0
2.455657357E0,-1.435709476E0,-3.461985588E-1,-1.874010563E0,2.386007278E0
2.463868588E0,-1.939011097E0,-7.319602966E-1,-2.447862148E0,3.207422487E0
2.472078780E0,-2.270551682E0,-1.033124447E0,-2.744849682E0,3.709036376E0
2.480318972E0,-2.280996799E0,-1.321683407E0,-2.716176033E0,3.785155964E0
2.488531857E0,-2.068611622E0,-1.416306496E0,-2.328979492E0,3.421874283E0
2.496743972E0,-1.677823544E0,-1.188307285E0,-1.855103016E0,2.769218888E0
2.504956395E0,-1.280630589E0,-9.116120338E-1,-1.378008842E0,2.090444827E0
2.513167395E0,-8.917455673E-1,-5.197072029E-1,-1.057051659E0,1.477384155E0
2.521382895E0,-3.176651001E-1,-1.277766228E-1,-8.522143364E-1,9.184265111E-1
2.529597895E0,1.937336922E-1,1.601953506E-1,-5.904850960E-1,6.417693841E-1
2.537810011E0,5.754499435E-1,2.588801384E-1,-4.309949875E-1,7.641454330E-1
2.546021626E0,8.244128227E-1,1.143698692E-1,-2.406463623E-1,8.663992388E-1
2.554230549E0,9.704074860E-1,-2.327003479E-1,-1.735215187E-1,1.012891829E0
2.562444972E0,1.020618439E0,-6.419687271E-1,-3.641362190E-1,1.259516189E0
2.570655857E0,5.648202896E-1,-8.223180771E-1,-8.346142769E-1,1.300695956E0
2.578866510E0,-7.372283936E-1,-5.621037483E-1,-1.640799522E0,1.884592635E0
2.587076780E0,-1.725788116E0,2.503256798E-1,-2.037643433E0,2.681976571E0
2.595286741E0,-2.359763622E0,1.204925060E0,-2.128589630E0,3.398708956E0
2.603500741E0,-2.481629848E0,2.053800583E0,-2.111264706E0,3.851496098E0
2.611712933E0,-2.220366955E0,2.944538593E0,-1.956466675E0,4.174697449E0
2.619922279E0,-1.933378220E0,3.260642052E0,-1.328264236E0,4.016718040E0
2.628131279E0,-1.643503666E0,3.158305168E0,-5.722975731E-1,3.606039427E0
2.636342741E0,-1.076684475E0,2.796175957E0,2.322528362E-1,3.005293799E0
2.644583779E0,-4.756350517E-1,2.492326260E0,7.902443409E-1,2.657518580E0
2.652793356E0,3.049368858E-1,2.223572731E0,1.262670279E0,2.575189008E0
2.661004856E0,1.202364922E0,1.593307495E0,1.811610937E0,2.695597219E0
2.669215125E0,1.820938110E0,9.937295914E-1,2.458643913E0,3.216868663E0
2.677425702E0,2.256759644E0,2.801971436E-1,2.758463621E0,3.574995955E0
2.685639856E0,2.140829086E0,-1.794157028E-1,2.734645605E0,3.477589072E0
2.693853279E0,2.131208897E0,-3.647351265E-1,2.415993214E0,3.242237851E0
2.702064587E0,2.001853943E0,-4.012794495E-1,1.978098154E0,2.842765680E0
2.710276394E0,1.845992088E0,-3.639793396E-1,1.403405666E0,2.347278257E0
2.718488010E0,1.643128395E0,-2.856316566E-1,1.212915659E0,2.062188343E0
2.726730664E0,1.271374226E0,-3.678703308E-2,1.394691467E0,1.887567216E0
2.734943125E0,8.318929672E-1,2.392783165E-1,1.492518187E0,1.725372586E0
2.743156625E0,1.868634224E-1,6.712193489E-1,1.554682493E0,1.703669865E0
2.751369587E0,-7.456636429E-1,1.097764015E0,1.477099657E0,1.985679606E0
2.759580702E0,-1.347720146E0,1.467356205E0,1.654833555E0,2.589972571E0
2.767796740E0,-1.692182541E0,1.745420933E0,1.726004362E0,2.981453847E0
2.776012779E0,-2.236162663E0,1.876049042E0,1.724279404E0,3.390150870E0
2.784224817E0,-2.327452660E0,1.805852890E0,1.803499103E0,3.454091712E0
2.792437163E0,-2.429668427E0,1.767275810E0,2.041398525E0,3.632335391E0
2.800650625E0,-1.534694672E0,1.484239101E0,2.304868698E0,3.141762747E0
2.808866394E0,-1.078534603E0,1.274866581E0,2.174875736E0,2.742007687E0
2.817078663E0,-4.705657959E-1,9.541797638E-1,1.958022714E0,2.228394969E0
2.825290548E0,-5.268526077E-2,6.945214272E-1,1.888275743E0,2.012640313E0
2.833502009E0,3.045229912E-1,4.505953789E-1,1.807687163E0,1.887724378E0
2.841714202E0,7.618160248E-1,2.093200684E-1,1.600924969E0,1.785256089E0
2.849930394E0,1.210300446E0,-7.909965515E-2,1.311967611E0,1.786712886E0
2.858144702E0,1.482102394E0,-1.955676079E-1,1.008538723E0,1.803337060E0
2.866354855E0,1.792348385E0,-2.753953934E-1,7.920103073E-1,1.978796524E0
2.874564394E0,1.827041626E0,-2.298231125E-1,5.127274990E-1,1.911488753E0
2.882776163E0,1.816384792E0,-2.565922737E-1,2.654571533E-1,1.853526587E0
2.891016471E0,1.765161514E0,-1.961450577E-1,7.492756844E-2,1.777605748E0
2.899227394E0,1.733042240E0,-9.680557251E-2,7.234907150E-2,1.737251022E0
2.907438586E0,1.501221180E0,7.868766785E-3,8.222413063E-2,1.503491854E0
2.915649278E0,1.207483768E0,6.731462479E-2,5.595731735E-2,1.210652523E0
2.923861278E0,9.003391266E-1,1.832456589E-1,1.408481598E-1,9.295309131E-1
2.932088971E0,7.400989532E-1,2.160325050E-1,2.733306885E-1,8.180013258E-1
2.940304278E0,6.770935059E-1,1.852445602E-1,4.217858315E-1,8.189471597E-1
2.948518047E0,6.900739670E-1,1.581826210E-1,5.382294655E-1,8.893338962E-1
2.956730394E0,5.449333191E-1,1.889429092E-1,5.816373825E-1,8.191176899E-1
2.964942201E0,4.179553986E-1,2.391109467E-1,5.313806534E-1,7.170956413E-1
2.973182932E0,1.984877586E-1,3.251876831E-1,3.999743462E-1,5.523802107E-1
2.981394124E0,5.103731155E-2,3.436164856E-1,3.504064083E-1,4.934184303E-1
2.989605816E0,8.783817291E-3,3.376340866E-1,2.735300064E-1,4.346177588E-1
2.997816124E0,-9.107494354E-2,3.368062973E-1,2.549204826E-1,4.321082963E-1
3.006028316E0,-2.259917259E-1,3.015384674E-1,1.032335758E-1,3.907107353E-1
3.014243047E0,-4.283618927E-1,2.666659355E-1,-3.743743896E-2,5.059705467E-1
3.022458047E0,-6.235065460E-1,2.271676064E-1,-1.465175152E-1,6.795828990E-1
3.030667162E0,-8.018360138E-1,1.143956184E-1,-2.293512821E-1,8.418012599E-1
3.038878509E0,-9.870114326E-1,1.918029785E-2,-2.915284634E-1,1.029343624E0
3.047089701E0,-1.139008999E0,-1.031293869E-1,-3.924055099E-1,1.209115071E0
3.055305162E0,-1.161427021E0,-2.355036736E-1,-4.202935696E-1,1.257386731E0
3.063515085E0,-1.134980679E0,-3.628563881E-1,-4.709608555E-1,1.281268913E0
3.071724316E0,-1.053350449E0,-4.463620186E-1,-4.961240292E-1,1.246966428E0
3.079934816E0,-9.358053207E-1,-5.052819252E-1,-5.510637760E-1,1.197794935E0
3.088143931E0,-8.012614250E-1,-5.801825523E-1,-6.527667046E-1,1.185215607E0
3.096358470E0,-5.966315269E-1,-5.892791748E-1,-6.649017334E-1,1.070193179E0
3.104538124E0,-3.677201271E-1,-5.425076485E-1,-6.138720512E-1,8.979819240E-1
3.112747354E0,-9.789037704E-2,-4.157495499E-1,-5.661222935E-1,7.091718165E-1
3.120958201E0,5.257558823E-2,-2.423357964E-1,-4.952006340E-1,5.538181097E-1
3.129170085E0,2.057766914E-1,-1.898784637E-1,-4.634435177E-1,5.414589290E-1
3.137410970E0,2.994399071E-1,-1.743392944E-1,-4.607453346E-1,5.764934613E-1
3.145622470E0,2.824583054E-1,-1.353912354E-1,-5.586545467E-1,6.404751232E-1
3.153833624E0,3.396844864E-2,-3.921556473E-2,-7.375333309E-1,7.393558888E-1
3.162044200E0,-1.039094925E-1,1.116175652E-1,-7.867951393E-1,8.014376175E-1
3.170253316E0,-4.141473770E-1,2.105469704E-1,-1.077108622E0,1.173034978E0
3.178466162E0,-8.504843712E-1,2.335052490E-1,-1.323238134E0,1.590222477E0
3.186679123E0,-1.243717194E0,2.385072708E-1,-1.438760519E0,1.916702900E0
3.194889393E0,-1.494822025E0,3.620505333E-1,-1.437491417E0,2.105220903E0
3.203100354E0,-1.815448284E0,5.003695488E-1,-1.362410784E0,2.324303186E0
3.211312239E0,-2.003499508E0,6.348509789E-1,-1.240986824E0,2.440715948E0
3.219553893E0,-2.085985184E0,7.765932083E-1,-9.922904968E-1,2.437021056E0
3.227766277E0,-2.077370644E0,8.802528381E-1,-7.422492504E-1,2.375131112E0
3.235980085E0,-1.636229515E0,7.510924339E-1,-2.534258366E-1,1.818134078E0
3.244194200E0,-9.032073021E-1,6.208744049E-1,3.407149315E-1,1.147760917E0
3.252408777E0,-2.907996178E-1,6.181244850E-1,7.766571045E-1,1.034330003E0
3.260627277E0,5.111885071E-2,7.133407593E-1,1.025397539E0,1.250163305E0
3.268842700E0,3.286285400E-1,9.935469627E-1,1.280781507E0,1.653944846E0
3.277054315E0,6.081609726E-1,1.266053677E0,1.611752987E0,2.137872628E0
3.285266585E0,8.568315506E-1,1.602827549E0,1.933967829E0,2.653949514E0
3.293477700E0,9.941992760E-1,1.997710705E0,2.185401440E0,3.123341114E0
3.301691623E0,1.170362949E0,2.339483738E0,2.299894333E0,3.483166309E0
3.309901508E0,1.263004780E0,2.633331299E0,2.363462687E0,3.757069426E0
3.318111200E0,1.280692577E0,2.867416382E0,2.367120028E0,3.932620934E0
3.326323815E0,1.179097176E0,2.950670242E0,2.356840611E0,3.956187899E0
3.334534392E0,8.963122368E-1,2.953674316E0,2.134841919E0,3.753014470E0
3.342748315E0,8.888874054E-1,2.810262680E0,1.931887865E0,3.524186129E0
3.350963507E0,9.623761177E-1,2.574073315E0,1.633752584E0,3.197056260E0
3.359174392E0,1.022129536E0,2.251670837E0,1.238614321E0,2.765670946E0
3.367383738E0,1.166321754E0,1.981164932E0,7.894957066E-1,2.430766215E0
3.375592969E0,1.399613857E0,1.706572056E0,4.302659035E-1,2.248652014E0
3.383804930E0,1.742164612E0,1.478219509E0,2.521667480E-1,2.298664508E0
3.392015892E0,2.109482765E0,1.324623585E0,2.240962982E-1,2.500952684E0
3.400224661E0,2.580183983E0,1.062708855E0,3.189859390E-1,2.808638732E0
3.408433969E0,2.777933836E0,9.932274818E-1,4.717803001E-1,2.987640186E0
3.416643353E0,3.141529560E0,8.040871620E-1,6.720438004E-1,3.311707567E0
3.424873584E0,3.454820156E0,6.417636871E-1,7.300462723E-1,3.588956743E0
3.433081969E0,3.678322554E0,4.738020897E-1,8.805394173E-1,3.811809924E0
3.441290046E0,3.705693483E0,3.468251228E-1,9.487247467E-1,3.840902303E0
3.449499507E0,3.655725718E0,2.456417084E-1,9.827046394E-1,3.793465273E0
3.457709853E0,3.142438173E0,3.416051865E-1,9.459304810E-1,3.299453932E0
3.465923853E0,2.562408447E0,4.955391884E-1,9.030179977E-1,2.761691084E0
3.474132161E0,2.118021965E0,5.912547112E-1,8.996815681E-1,2.375926367E0
3.482358161E0,1.599420071E0,7.451930046E-1,9.462389946E-1,2.002205137E0
3.490567738E0,1.191444874E0,9.109969139E-1,1.060632467E0,1.836953319E0
3.498776122E0,1.035475254E0,1.020139217E0,1.188639641E0,1.877699981E0
3.507015199E0,1.120913506E0,1.074862957E0,1.233159542E0,1.983043096E0
3.515225276E0,1.319587231E0,1.122453690E0,1.238207340E0,2.129406059E0
3.523435353E0,1.442347527E0,1.154362202E0,1.115855217E0,2.158251919E0
3.531644930E0,1.473442078E0,1.205095291E0,9.594194889E-1,2.131612529E0
3.539855545E0,1.461264610E0,1.194100380E0,7.908594608E-1,2.046125281E0
3.548076391E0,1.317700863E0,1.234858990E0,4.631505013E-1,1.864328478E0
3.556288853E0,1.059664249E0,1.346167564E0,1.847629547E-1,1.723134580E0
3.564517430E0,7.997784615E-1,1.407764912E0,-8.581542969E-2,1.621361132E0
3.572728699E0,5.178837776E-1,1.466832638E0,-2.978467941E-1,1.583829002E0
3.580940507E0,3.643398285E-1,1.391213894E0,-2.525734901E-1,1.460141424E0
3.589180314E0,3.494901657E-1,1.307513237E0,-2.744817734E-1,1.380968676E0
3.597391276E0,2.618026733E-1,1.219140053E0,-9.607505798E-2,1.250629252E0
3.605602276E0,1.908111572E-1,1.085007191E0,4.062247276E-1,1.174166952E0
3.613813160E0,1.282334328E-1,7.889342308E-1,8.789305687E-1,1.188015142E0
3.622024006E0,3.262853622E-2,5.226316452E-1,1.245433092E0,1.351041097E0
3.630237468E0,7.717609406E-3,2.463636398E-1,1.285764456E0,1.309177162E0
3.638448045E0,-1.721239090E-2,-3.866195679E-2,9.381213188E-1,9.390754081E-1
3.646675814E0,-6.121873856E-2,-3.401179314E-1,3.864598274E-1,5.184391376E-1
3.654886929E0,-4.911947250E-2,-5.984773636E-1,-1.024723053E-3,6.004905723E-1
3.663099045E0,-1.127195358E-1,-8.141336441E-1,-3.981475830E-1,9.132583326E-1
3.671339083E0,-1.447877884E-1,-1.016538143E0,-8.859124184E-1,1.356154163E0
3.679549083E0,-3.608350754E-1,-9.433965683E-1,-1.399396896E0,1.725836235E0
3.687760083E0,-6.315975189E-1,-7.488059998E-1,-1.857396126E0,2.099891954E0
3.695969583E0,-8.093509674E-1,-3.832640648E-1,-1.967701435E0,2.161894833E0
3.704179698E0,-8.702893257E-1,1.090097427E-2,-1.585402012E0,1.808596661E0
3.712392968E0,-8.493041992E-1,4.056425095E-1,-1.077245235E0,1.430496685E0
3.720604006E0,-7.898364067E-1,7.195506096E-1,-4.979286194E-1,1.178782227E0
3.728831814E0,-7.408080101E-1,9.396719933E-1,-7.254266739E-2,1.198767034E0
3.737042621E0,-8.192744255E-1,1.129161835E0,3.314561844E-1,1.433903845E0
3.745253275E0,-1.002790451E0,1.221551418E0,5.889549255E-1,1.686607382E0
3.753482506E0,-1.195502281E0,1.261316299E0,8.753726482E-1,1.945873014E0
3.761696275E0,-1.455915451E0,1.363222599E0,1.139318466E0,2.296978934E0
3.769909237E0,-1.460227966E0,1.616002560E0,1.364656210E0,2.570217220E0
3.778122121E0,-1.212941647E0,2.014593601E0,1.682867765E0,2.891687869E0
3.786334544E0,-4.141139984E-1,2.249206543E0,2.093185425E0,3.100297679E0
3.794551660E0,5.684828758E-1,2.256510735E0,2.384007215E0,3.331441712E0
3.802762544E0,1.443685055E0,2.120353699E0,2.283983707E0,3.434633593E0
3.810989390E0,1.846267223E0,2.122253418E0,2.105530977E0,3.513676554E0
3.819198967E0,2.236858368E0,2.030096054E0,1.925457358E0,3.582207613E0
3.827408506E0,2.419890881E0,2.022834301E0,1.682503462E0,3.574709552E0
3.835646582E0,2.012474537E0,2.161732674E0,1.515321732E0,3.319539405E0
3.843857698E0,1.203428268E0,2.539225578E0,1.511631489E0,3.190757887E0
3.852067621E0,5.729484558E-1,2.733642578E0,1.641639233E0,3.239760955E0
3.860278544E0,1.281695366E-1,2.816044331E0,1.863397241E0,3.379168889E0
3.868490313E0,-3.468179703E-1,2.872646809E0,2.084318161E0,3.566057289E0
3.876705275E0,-5.928888321E-1,2.856959343E0,2.219769001E0,3.666211706E0
3.884915621E0,-6.285548210E-1,2.608379841E0,2.318079472E0,3.545732505E0
3.893142775E0,-6.141953468E-1,2.333258152E0,2.315375328E0,3.343993487E0
3.901353428E0,-7.925572395E-1,2.120762825E0,2.044894218E0,3.050798961E0
3.909564544E0,-1.002979279E0,1.848659039E0,1.805243134E0,2.771716156E0
3.917805813E0,-1.068756580E0,1.576169491E0,1.641667366E0,2.514283722E0
3.926019736E0,-1.004328728E0,1.236083031E0,1.661735773E0,2.301726142E0
3.934233659E0,-8.146319389E-1,9.095511436E-1,1.826973438E0,2.197439515E0
3.942447697E0,-5.208525658E-1,6.063776016E-1,2.055706978E0,2.205654635E0
3.950662236E0,-2.639870644E-1,4.116234779E-1,2.302356720E0,2.353713985E0
3.958880197E0,1.674842834E-2,2.797460556E-1,2.466969013E0,2.482835975E0
3.967092620E0,3.173146248E-1,1.677589417E-1,2.462146759E0,2.488171677E0
3.975320390E0,5.132498741E-1,1.090259552E-1,2.644237518E0,2.695793788E0
3.983530697E0,5.601511002E-1,1.753649712E-1,2.668774128E0,2.732558778E0
3.991740774E0,6.004004478E-1,1.825489998E-1,2.610044479E0,2.684424895E0
3.999980005E0,5.297722816E-1,3.120422363E-1,2.555200100E0,2.628131766E0
4.008190966E0,2.096753120E-1,4.495906830E-1,2.452339172E0,2.502011778E0
4.016401505E0,8.028030396E-3,5.486893654E-1,2.320260525E0,2.384267890E0
4.024612736E0,-2.217845917E-1,5.972523689E-1,2.150245667E0,2.242644694E0
4.032823120E0,-4.587574005E-1,6.429495811E-1,2.033944130E0,2.181919164E0
4.041044043E0,-6.757435799E-1,7.244133949E-1,1.874671817E0,2.120329827E0
4.049255851E0,-8.323359489E-1,7.252535820E-1,1.741813183E0,2.062204901E0
4.057498082E0,-9.288392067E-1,7.359757423E-1,1.656591415E0,2.036835212E0
4.065709659E0,-1.005360603E0,7.641897202E-1,1.618691802E0,2.053021924E0
4.073921505E0,-1.082924366E0,7.983646393E-1,1.570500731E0,2.067990287E0
4.082161235E0,-1.189773083E0,7.906308174E-1,1.539839387E0,2.100419581E0
4.090370735E0,-1.239492893E0,7.838101387E-1,1.540100217E0,2.126642811E0
4.098580005E0,-1.278379917E0,7.582454681E-1,1.583773494E0,2.171987542E0
4.106789697E0,-1.265821457E0,7.519102097E-1,1.624821305E0,2.192650724E0
4.114999004E0,-1.235699177E0,6.758346558E-1,1.727777004E0,2.229107066E0
4.123212389E0,-1.237954140E0,6.331477165E-1,1.827648640E0,2.296455101E0
4.131422851E0,-1.282986164E0,5.996632576E-1,1.937338233E0,2.399776854E0
4.139650504E0,-1.274102688E0,5.585060120E-1,2.033645868E0,2.463936311E0
4.147858774E0,-1.351402283E0,5.150856972E-1,2.158756256E0,2.598428367E0
4.156068197E0,-1.429083824E0,5.244817734E-1,2.284678936E0,2.745381494E0
4.164307504E0,-1.500144005E0,4.788389206E-1,2.421053410E0,2.888116750E0
4.172520466E0,-1.522761345E0,3.979287148E-1,2.483313560E0,2.940067281E0
4.180732697E0,-1.533600807E0,2.959752083E-1,2.383906364E0,2.850007424E0
4.188943466E0,-1.491192818E0,1.898560524E-1,2.476084232E0,2.896669547E0
4.197154889E0,-1.463857651E0,7.969617844E-2,2.401427746E0,2.813553966E0
4.205371235E0,-1.430737019E0,-4.774141312E-2,2.310737610E0,2.718233978E0
4.213581966E0,-1.367064476E0,-1.382961273E-1,2.204030514E0,2.597256554E0
4.221810581E0,-1.343078136E0,-2.404770851E-1,2.194049597E0,2.583706977E0
4.230021543E0,-1.283567905E0,-3.306045532E-1,2.159038067E0,2.533434687E0
4.238232042E0,-1.213183403E0,-3.376970291E-1,2.229029179E0,2.560160997E0
4.246471619E0,-1.182353497E0,-2.893357277E-1,2.327362299E0,2.626459637E0
4.254683619E0,-1.190749168E0,-2.149949074E-1,2.538697720E0,2.812310883E0
4.262895235E0,-1.183929920E0,-1.156535149E-1,2.630994797E0,2.887420893E0
4.271107312E0,-1.250731945E0,6.846714020E-2,2.875054121E0,3.136073077E0
4.279319658E0,-1.283931732E0,1.530175209E-1,2.891023397E0,3.167003527E0
4.287537696E0,-1.279449463E0,2.504334450E-1,2.861850500E0,3.144820523E0
4.295750158E0,-1.222725391E0,2.944245338E-1,2.735933781E0,3.011158721E0
4.303980081E0,-1.151409149E0,3.129391670E-1,2.509829283E0,2.779013670E0
4.312193542E0,-1.018518448E0,3.019962311E-1,2.222477436E0,2.463328542E0
4.320407427E0,-9.348602295E-1,3.024406433E-1,1.930310845E0,2.165994910E0
4.328649234E0,-8.499751091E-1,3.353962898E-1,1.665606380E0,1.899787611E0
4.336861081E0,-8.163456917E-1,2.883348465E-1,1.476683378E0,1.711768405E0
4.345073042E0,-6.966271400E-1,2.299556732E-1,1.365386724E0,1.549983836E0
4.353283388E0,-6.546807289E-1,1.795492172E-1,1.427919388E0,1.581075127E0
4.361493734E0,-6.819915771E-1,4.478740692E-2,1.506134748E0,1.653952933E0
4.369707927E0,-8.442692757E-1,-1.015901566E-1,1.568639517E0,1.784304095E0
4.377919427E0,-9.780507088E-1,-1.698694229E-1,1.616639733E0,1.897093260E0
4.386146580E0,-1.180034637E0,-3.272557259E-1,1.621394515E0,2.031870623E0
4.394355465E0,-1.486561775E0,-4.981341362E-1,1.481245756E0,2.156871002E0
4.402564773E0,-2.018714905E0,-8.592581749E-1,1.309659243E0,2.555140272E0
4.410802773E0,-2.596590042E0,-1.236063957E0,1.320863485E0,3.164619140E0
4.419012349E0,-2.906550407E0,-1.655061722E0,1.064959288E0,3.510185587E0
4.427220273E0,-3.396625996E0,-1.909034252E0,4.071395397E-1,3.917555684E0
4.435427965E0,-4.027257442E0,-2.156260490E0,-7.189381123E-1,4.624406321E0
4.443637388E0,-4.261814117E0,-2.485301495E0,-1.970849991E0,5.312629554E0
4.451851157E0,-3.817712784E0,-2.659030437E0,-3.041111469E0,5.558213088E0
4.460062465E0,-2.716724873E0,-2.533984661E0,-3.557424068E0,5.143630848E0
4.468289734E0,-1.529902935E0,-2.180238247E0,-3.820862055E0,4.657577551E0
4.476500580E0,-6.183648109E-1,-1.843368053E0,-3.722571135E0,4.199751977E0
4.484712042E0,-1.329851151E-2,-1.581472874E0,-3.395755768E0,3.745983253E0
4.492951618E0,2.249460220E-1,-1.352338314E0,-2.871210098E0,3.181708198E0
4.501162080E0,2.172713280E-1,-1.187853813E0,-1.905015230E0,2.255501394E0
4.509370541E0,-3.264808655E-2,-9.458742142E-1,-9.589264393E-1,1.347324698E0
4.517579772E0,-2.926678658E-1,-9.060626030E-1,-1.633257866E-1,9.660637830E-1
4.525788234E0,-6.307950020E-1,-1.085572720E0,3.924655914E-1,1.315446580E0
4.534003964E0,-6.628332138E-1,-1.394416809E0,9.439501762E-1,1.809637544E0
4.542214964E0,-6.961259842E-1,-1.657465935E0,1.233318567E0,2.180105364E0
4.550440811E0,-7.511229515E-1,-1.824954510E0,1.314102173E0,2.370972200E0
4.558650810E0,-8.526773453E-1,-1.877421856E0,1.074646473E0,2.325217521E0
4.566860349E0,-1.084714413E0,-1.812031746E0,7.280261517E-1,2.233850148E0
4.575091772E0,-1.293687344E0,-1.597997189E0,3.209919930E-1,2.080927153E0
4.583303041E0,-1.455216408E0,-1.336205482E0,-2.463626862E-2,1.975780056E0
4.591514657E0,-1.541615486E0,-1.054994583E0,-3.186588287E-1,1.895029110E0
4.599725464E0,-1.564294815E0,-8.217124939E-1,-5.159189701E-1,1.840761276E0
4.607936503E0,-1.538795948E0,-6.631455421E-1,-6.274611950E-1,1.789235180E0
4.616151233E0,-1.462361813E0,-5.398387909E-1,-7.028293610E-1,1.709940672E0
4.624362887E0,-1.406339169E0,-4.778895378E-1,-7.086865902E-1,1.645723230E0
4.632590926E0,-1.329184055E0,-4.049372673E-1,-6.524050236E-1,1.535036403E0
4.640804195E0,-9.507036209E-1,-3.036122322E-1,-6.813910007E-1,1.208433473E0
4.649017695E0,-3.665752411E-1,-8.456850052E-2,-8.063418865E-1,8.897845113E-1
4.657259695E0,1.075487137E-1,6.332588196E-2,-9.722898006E-1,9.802674888E-1
4.665474656E0,3.733687401E-1,9.854650497E-2,-1.015351772E0,1.086303296E0
4.673688118E0,4.696793556E-1,2.059650421E-2,-8.964672089E-1,1.012262994E0
4.681901810E0,4.754228592E-1,-1.397042274E-1,-7.022864819E-1,8.595059446E-1
4.690114848E0,3.991303444E-1,-3.511219025E-1,-4.944303036E-1,7.259841233E-1
4.698330579E0,3.832139969E-1,-6.132512093E-1,-3.384785652E-1,7.984345635E-1
4.706542541E0,3.064131737E-1,-7.892212868E-1,-2.492675781E-1,8.825494876E-1
4.714768656E0,2.571339607E-1,-9.723939896E-1,-2.025628090E-1,1.026011519E0
4.722978771E0,8.258962631E-2,-1.133440018E0,-2.051043510E-1,1.154805228E0
4.731188156E0,-1.142730713E-1,-1.204872608E0,-2.537350655E-1,1.236591210E0
4.739428387E0,-4.197959900E-1,-1.279519081E0,-3.041939735E-1,1.380554862E0
4.747637694E0,-7.336344719E-1,-1.323751926E0,-2.051835060E-1,1.527297932E0
4.755847271E0,-1.160122871E0,-1.360382080E0,-4.925580025E-1,1.854491269E0
4.764057194E0,-1.396652222E0,-1.380602360E0,-6.245269775E-1,2.060760600E0
4.772265925E0,-1.722455502E0,-1.418114662E0,-8.133983612E-1,2.374767156E0
4.780482656E0,-1.879008293E0,-1.519834995E0,-9.777350426E-1,2.607016761E0
4.788692848E0,-1.944736004E0,-1.626053333E0,-1.049779892E0,2.743735663E0
4.796920310E0,-1.852216244E0,-1.791475773E0,-1.067713261E0,2.789283432E0
4.805129617E0,-1.786140919E0,-1.909950256E0,-1.079990864E0,2.829238348E0
4.813338117E0,-1.830478668E0,-2.064775467E0,-1.284235954E0,3.043552508E0
4.821575963E0,-1.759233475E0,-2.251715183E0,-1.446409225E0,3.202690015E0
4.829785079E0,-1.572863579E0,-2.384040356E0,-1.573740959E0,3.261013472E0
4.837995886E0,-1.410315990E0,-2.534123898E0,-1.707220554E0,3.365319768E0
4.846205809E0,-1.220648289E0,-2.662556171E0,-1.791067123E0,3.433235945E0
4.854415079E0,-1.099118233E0,-2.762593031E0,-1.891472340E0,3.523868436E0
4.862628502E0,-9.755830765E-1,-2.766802073E0,-2.078608513E0,3.595492928E0
4.870836694E0,-7.937040329E-1,-2.799636602E0,-2.255065918E0,3.681474364E0
4.879062232E0,-6.317548752E-1,-2.799564123E0,-2.538703918E0,3.831669491E0
4.887272578E0,-4.534635544E-1,-2.743202925E0,-2.744556904E0,3.906838118E0
4.895483271E0,-3.273768425E-1,-2.718844652E0,-2.890189171E0,3.981517962E0
4.903716078E0,-2.912082672E-1,-2.621746778E0,-3.003672123E0,3.997549831E0
4.911925271E0,-2.768793106E-1,-2.574149370E0,-3.069960594E0,4.015913991E0
4.920133655E0,-2.046003342E-1,-2.575822592E0,-3.042028427E0,3.991323123E0
4.928343348E0,-3.107342720E-1,-2.604664564E0,-3.013492584E0,3.995243526E0
4.936553040E0,-5.016598701E-1,-2.555554628E0,-2.934978008E0,3.923852443E0
4.944768001E0,-6.972479820E-1,-2.320789337E0,-2.869517326E0,3.755841794E0
4.952978424E0,-8.763375282E-1,-1.915030479E0,-2.713011742E0,3.434492963E0
4.961204655E0,-1.050976753E0,-1.374526024E0,-2.325785637E0,2.898819200E0
4.969413924E0,-1.400979996E0,-7.469463348E-1,-1.846953392E0,2.435551397E0
4.977626309E0,-1.912585735E0,-3.694243431E-1,-1.153905392E0,2.264057462E0
4.985868809E0,-2.060211658E0,-7.107734680E-2,-4.184739590E-1,2.103483901E0
4.994082001E0,-1.993157864E0,1.535658836E-1,3.507673740E-1,2.029605504E0
5.002293732E0,-1.637699127E0,2.463140488E-1,1.067177296E0,1.970176749E0
5.010504424E0,-1.065039158E0,2.837562561E-1,1.480638266E0,1.845837396E0
5.018714886E0,-5.287351608E-1,2.216367722E-1,1.686882257E0,1.781644038E0
5.026929501E0,-2.369141579E-1,7.364559174E-2,1.683513880E0,1.701696499E0
5.035138039E0,3.122329712E-3,-8.269786835E-3,1.419336796E0,1.419364322E0
5.043365924E0,-2.195453644E-2,-3.654527664E-2,1.099843502E0,1.100669473E0
5.051575001E0,-3.118085861E-2,5.885410309E-2,9.041249752E-1,9.065748850E-1
5.059784001E0,-5.412435532E-2,2.172775269E-1,8.900918961E-1,9.178249032E-1
5.068021116E0,-9.566259384E-2,4.728279114E-1,8.336246014E-1,9.631446110E-1
5.076229847E0,-3.015465736E-1,7.272219658E-1,8.052306175E-1,1.126134304E0
5.084438885E0,-6.070747375E-1,1.040591240E0,9.010376930E-1,1.504406458E0
5.092650001E0,-7.661771774E-1,1.191906929E0,1.041562080E0,1.758556556E0
5.100860732E0,-8.048410416E-1,1.223910332E0,1.110522032E0,1.838201508E0
5.109073462E0,-8.142747879E-1,1.246355534E0,1.344828248E0,2.006242399E0
5.117282039E0,-7.602663040E-1,1.169784546E0,1.492743373E0,2.043204227E0
5.125507501E0,-4.363141060E-1,1.064381599E0,1.680836558E0,2.036784162E0
5.133715885E0,-1.302008629E-1,8.448667526E-1,1.684446931E0,1.888945091E0
5.141927154E0,7.445812225E-2,6.935224533E-1,1.666491747E0,1.806574700E0
5.150167924E0,2.896933556E-1,5.417766571E-1,1.595851064E0,1.710024796E0
5.158378770E0,6.616940498E-1,3.820552826E-1,1.568403244E0,1.744618580E0
5.166590385E0,9.001197815E-1,2.724986076E-1,1.593437672E0,1.850274230E0
5.174801193E0,1.184834957E0,2.496585846E-1,1.645212293E0,2.042764493E0
5.183010731E0,1.171307564E0,2.067580223E-1,1.466764212E0,1.888414028E0
5.191226500E0,1.098782063E0,2.287411690E-1,1.190997124E0,1.636495858E0
5.199438077E0,1.182799339E0,2.523360252E-1,9.942101240E-1,1.565612186E0
5.207665616E0,1.152211666E0,2.834296227E-1,8.915442228E-1,1.484174914E0
5.215877154E0,1.087585449E0,4.005541801E-1,6.330100298E-1,1.320601173E0
5.224088423E0,1.011747360E0,4.897146225E-1,3.714218140E-1,1.183810498E0
5.232326885E0,1.006526947E0,5.122518539E-1,1.360206604E-1,1.137541242E0
5.240537193E0,9.937911034E-1,5.210094452E-1,-2.721214294E-2,1.122413516E0
5.248747808E0,8.660764694E-1,5.566425323E-1,-2.340509892E-1,1.055802645E0
5.256958116E0,6.447896957E-1,5.835509300E-1,-3.395791054E-1,9.335948846E-1
5.265170423E0,3.636612892E-1,5.536899567E-1,-4.501583576E-1,8.009148821E-1
5.273388500E0,1.239709854E-1,3.911490440E-1,-5.468044281E-1,6.836384004E-1
5.281599423E0,-2.522821426E-1,3.013386726E-1,-7.557365894E-1,8.518151605E-1
5.289826615E0,-5.828247070E-1,2.393794060E-1,-1.126379251E0,1.290626730E0
5.298038577E0,-8.415408134E-1,1.909527779E-1,-1.473611832E0,1.707684319E0
5.306251577E0,-9.622921944E-1,8.603000641E-2,-1.683892250E0,1.941365638E0
5.314492077E0,-9.735722542E-1,-8.505487442E-2,-1.770183086E0,2.022034971E0
5.322703500E0,-9.298663139E-1,-2.506003380E-1,-1.772838831E0,2.017525567E0
5.330916384E0,-8.381371498E-1,-4.680752754E-1,-1.711717606E0,1.962535479E0
5.339128423E0,-7.743635178E-1,-6.584115028E-1,-1.605221748E0,1.899968796E0
5.347340000E0,-6.615009308E-1,-8.312129974E-1,-1.504908562E0,1.842077172E0
5.355555692E0,-5.306124687E-1,-9.962348938E-1,-1.284518957E0,1.709977341E0
5.363769461E0,-3.165607452E-1,-1.200799942E0,-9.534497261E-1,1.565630092E0
5.371998654E0,-3.400330544E-1,-1.236361980E0,-7.627577782E-1,1.491982859E0
5.380210154E0,-4.816608429E-1,-1.074317455E0,-5.466513634E-1,1.298068902E0
5.388421538E0,-7.320551872E-1,-8.154382706E-1,-3.075473309E-1,1.138169465E0
5.396663461E0,-1.156304359E0,-4.028253555E-1,-2.181031704E-1,1.243735113E0
5.404873730E0,-1.425225735E0,-4.357624054E-2,-1.751856804E-1,1.436613137E0
5.413085307E0,-1.538532734E0,2.639083862E-1,-1.721143723E-1,1.570462978E0
5.421295230E0,-1.546577454E0,5.079164505E-1,-1.767065525E-1,1.637408363E0
5.429505499E0,-1.525497437E0,6.823382378E-1,-2.855205536E-1,1.695361285E0
5.437719307E0,-1.390865803E0,7.401952744E-1,-4.308307171E-1,1.633404981E0
5.445899384E0,-1.123013496E0,6.655473709E-1,-5.161309242E-1,1.403746326E0
5.454075884E0,-8.190560341E-1,4.669952393E-1,-6.100049019E-1,1.122961852E0
5.462287153E0,-4.785351753E-1,1.858406067E-1,-6.546993256E-1,8.319638526E-1
5.470499038E0,-1.774005890E-1,-5.748033524E-2,-6.309983730E-1,6.579771308E-1
5.478737961E0,-1.336956024E-2,-2.595195770E-1,-6.523807049E-1,7.022319703E-1
5.486948268E0,3.606319427E-3,-3.845982552E-1,-6.347236633E-1,7.421610015E-1
5.495159384E0,-5.720138550E-2,-4.516510963E-1,-5.340514183E-1,7.017632284E-1
5.503370422E0,-1.978068352E-1,-4.316630363E-1,-5.471444130E-1,7.244498117E-1
5.511581922E0,-4.882006645E-1,-4.162511826E-1,-6.910636425E-1,9.429601762E-1
5.519800307E0,-7.930197716E-1,-2.893600464E-1,-7.602307796E-1,1.136028359E0
5.528010691E0,-1.170677185E0,-8.532333374E-2,-7.997372150E-1,1.420332622E0
5.536237614E0,-1.627117157E0,1.191296577E-1,-7.594735622E-1,1.799583899E0
5.544448268E0,-1.827436924E0,2.610917091E-1,-7.332742214E-1,1.986299493E0
5.552658807E0,-1.777046680E0,2.739763260E-1,-7.259523869E-1,1.939062866E0
5.560899230E0,-1.592424870E0,2.359299660E-1,-6.521954536E-1,1.736904955E0
5.569109307E0,-1.202662945E0,1.008572578E-1,-5.044586658E-1,1.308070675E0
5.577319960E0,-6.269054413E-1,-1.594524384E-1,-2.679283619E-1,7.001579247E-1
5.585529576E0,8.511590958E-2,-4.492812157E-1,1.698112488E-2,4.575879013E-1
5.593740037E0,8.335776329E-1,-6.178526878E-1,2.688586712E-1,1.071857546E0
5.601956307E0,1.353615284E0,-7.730441093E-1,5.137929916E-1,1.641296673E0
5.610167806E0,1.726880074E0,-8.012437820E-1,7.006671429E-1,2.028556342E0
5.618394960E0,2.010142803E0,-7.686409950E-1,9.931678772E-1,2.370203683E0
5.626604153E0,2.362544537E0,-6.487464905E-1,1.290880919E0,2.769271067E0
5.634812268E0,2.457957268E0,-3.823533058E-1,1.506947517E0,2.908373910E0
5.643050614E0,2.551828861E0,-3.520536423E-2,1.645242691E0,3.036427748E0
5.651258268E0,2.438426495E0,4.930109978E-1,1.647384882E0,2.983766171E0
5.659469152E0,2.115800381E0,1.210430622E0,1.772903919E0,3.014123728E0
5.667678768E0,1.736149788E0,1.964391232E0,1.853811741E0,3.210867012E0
5.675887806E0,1.369163990E0,2.682760239E0,2.034343243E0,3.634606575E0
5.684101652E0,8.597559929E-1,3.345405579E0,1.965696096E0,3.974277292E0
5.692311614E0,1.684784889E-1,3.768412113E0,1.671175480E0,4.125789905E0
5.700538768E0,-4.480867386E-1,3.908393860E0,1.097409964E0,4.084193056E0
5.708751268E0,-8.292112350E-1,3.757374287E0,2.831020355E-1,3.858186046E0
5.716962883E0,-1.206379414E0,3.241898537E0,-5.496191978E-1,3.502476078E0
5.725187691E0,-1.177369118E0,2.556948662E0,-1.221326828E0,3.068521422E0
5.733399075E0,-7.975611687E-1,2.025540352E0,-1.515120983E0,2.652264905E0
5.741610883E0,-1.233291626E-2,1.501799583E0,-1.344594955E0,2.015809932E0
5.749821229E0,9.072265625E-1,1.146440029E0,-8.785123825E-1,1.705628559E0
5.758031806E0,1.800367832E0,9.300470352E-1,-1.300082207E-1,2.030569860E0
5.766249460E0,2.504822969E0,6.562523842E-1,4.096021652E-1,2.621560458E0
5.774458421E0,2.924193144E0,5.242295265E-1,7.447133064E-1,3.062730815E0
5.782686806E0,3.177184105E0,4.401626587E-1,8.986029625E-1,3.331025261E0
5.790897421E0,3.399201632E0,3.159022331E-1,9.789619446E-1,3.551440897E0
5.799107306E0,3.441689253E0,2.425456047E-1,9.579896927E-1,3.580753766E0
5.807347921E0,3.402842283E0,1.694006920E-1,8.974680901E-1,3.523277050E0
5.815560190E0,3.248825073E0,2.166295052E-1,7.265858650E-1,3.336123457E0
5.823772306E0,3.007983923E0,1.917386055E-1,6.074194908E-1,3.074685254E0
5.831982959E0,2.580150366E0,1.641387939E-1,6.089353561E-1,2.656109885E0
5.840194690E0,2.216683865E0,9.021663666E-2,6.107101440E-1,2.301041781E0
5.848409190E0,1.809758663E0,-1.730918884E-2,4.627714157E-1,1.868069434E0
5.856619536E0,1.312245846E0,8.764266968E-4,3.388357162E-1,1.355285789E0
5.864847190E0,9.482049942E-1,-4.298686981E-3,2.872929573E-1,9.907817283E-1
5.873056998E0,7.275300026E-1,-1.008510590E-2,2.184534073E-1,7.596864519E-1
5.881267536E0,5.850815773E-1,4.960918427E-2,1.534109116E-1,6.068907900E-1
5.889499421E0,5.798878670E-1,9.549665451E-2,9.776258469E-2,5.957743468E-1
5.897710613E0,6.680068970E-1,1.345930099E-1,3.095436096E-2,6.821339056E-1
5.905921036E0,7.044258118E-1,2.704195976E-1,-2.613306046E-2,7.550002781E-1
5.914133575E0,6.994171143E-1,4.941110611E-1,-1.501812935E-1,8.694161612E-1
5.922346267E0,6.997928619E-1,6.891579628E-1,-2.725858688E-1,1.019289852E0
5.930559382E0,6.377501488E-1,7.354269028E-1,-4.122838974E-1,1.057145209E0
5.938769344E0,5.017108917E-1,6.378850937E-1,-6.191401482E-1,1.020757432E0
5.946996767E0,1.626243591E-1,4.018621445E-1,-1.005230904E0,1.094727836E0
5.955208267E0,-4.221982956E-1,9.606647491E-2,-1.540099621E0,1.599808429E0
5.963420536E0,-8.530993462E-1,-2.411642075E-1,-1.939559460E0,2.132564083E0
5.971659036E0,-1.281654835E0,-5.976862907E-1,-2.104112625E0,2.535184008E0
5.979872305E0,-1.570910454E0,-8.279390335E-1,-2.103385448E0,2.752721025E0
5.988084344E0,-1.866315842E0,-1.026538372E0,-1.989349365E0,2.914519986E0
5.996296997E0,-2.201748848E0,-1.170274734E0,-1.688224792E0,3.011203064E0
6.004508613E0,-2.213598728E0,-1.206221104E0,-1.315032005E0,2.843289970E0
6.012729420E0,-1.844690800E0,-1.107572556E0,-9.198393822E-1,2.340022564E0
6.020942343E0,-1.395115852E0,-9.414072037E-1,-6.499018669E-1,1.804153043E0
6.029169459E0,-1.020941257E0,-7.474150658E-1,-6.420726776E-1,1.418875490E0
6.037380843E0,-8.438544273E-1,-4.141097069E-1,-8.217630386E-1,1.248547811E0
6.045591959E0,-7.613449097E-1,-1.866688728E-1,-9.921188354E-1,1.264433123E0
6.053829805E0,-7.005457878E-1,-4.420280457E-4,-1.447616577E0,1.608215891E0
6.062042112E0,-8.219885826E-1,-5.546569824E-2,-1.533823490E0,1.741079025E0
6.070255151E0,-5.870590210E-1,-1.277236938E-1,-1.561465740E0,1.673059142E0
6.078468805E0,-8.791465759E-1,-8.361101151E-2,-2.001325130E0,2.187508121E0
6.086681497E0,-1.486493587E0,2.950491905E-1,-2.355753422E0,2.801123238E0
6.094897997E0,-1.643926144E0,7.554340363E-1,-2.533160686E0,3.112888821E0
6.103110574E0,-1.833660126E0,1.175616741E0,-2.385173798E0,3.230083315E0
6.111338920E0,-1.932030201E0,1.412883282E0,-1.795702934E0,2.992244792E0
6.119549612E0,-1.859257221E0,1.566452503E0,-8.360452652E-1,2.570910840E0
6.127760305E0,-1.379434586E0,1.442152023E0,2.946727276E-1,2.017293794E0
6.135999074E0,-8.716497421E-1,1.218917847E0,1.097464323E0,1.857407314E0
6.144209958E0,-3.226113319E-1,8.963270187E-1,1.758592129E0,2.000031618E0
6.152421651E0,6.157050133E-1,4.703807831E-1,2.323150158E0,2.448954348E0
6.160633574E0,1.244804859E0,2.409405708E-1,2.366495132E0,2.684751517E0
6.168842381E0,1.931602478E0,1.616096497E-2,2.287605286E0,2.994075359E0
6.177056189E0,2.073027134E0,-1.148152351E-1,2.168849230E0,3.002420860E0
6.185265843E0,2.078594685E0,-1.637277603E-1,2.138361692E0,2.986629098E0
6.193491304E0,1.885167122E0,-8.726501465E-2,2.016031742E0,2.761494929E0
6.201700804E0,1.693265438E0,1.582527161E-1,1.963642240E0,2.597707183E0
6.209909458E0,1.310207844E0,6.080918312E-1,1.908109307E0,2.393178096E0
6.218145304E0,9.559383392E-1,1.026469707E0,1.850712538E0,2.322196173E0
6.226355073E0,3.364663124E-1,1.589177132E0,1.783653975E0,2.412491458E0
6.234564304E0,-2.587475777E-1,2.060446739E0,1.771205425E0,2.729388161E0
6.242773881E0,-5.659084320E-1,2.337773323E0,1.833246589E0,3.024273387E0
6.250981804E0,-7.863206863E-1,2.506217957E0,1.684562922E0,3.120445626E0
6.259198073E0,-1.243706226E0,2.651673794E0,1.527989388E0,3.303472515E0
6.267406150E0,-1.306258678E0,2.448661327E0,1.517966032E0,3.163301267E0
6.275630804E0,-7.182974815E-1,2.023911953E0,1.750818014E0,2.770836441E0
6.283840535E0,-4.055590630E-1,1.550058365E0,1.664376378E0,2.310261417E0
6.292049727E0,1.055207253E-1,1.034270287E0,1.482290745E0,1.810534590E0
6.300289035E0,5.120449066E-1,5.086984634E-1,1.235249519E0,1.430666099E0
6.308497496E0,8.638730049E-1,8.889722824E-2,1.140807390E0,1.433743627E0
6.316708804E0,1.339712620E0,-2.115211487E-1,1.175359249E0,1.794725735E0
6.324920188E0,1.465198040E0,-4.251694679E-1,1.235125542E0,1.962933895E0
6.333131381E0,1.620651245E0,-6.782517433E-1,1.317351460E0,2.195894068E0
6.341345227E0,1.700201511E0,-8.379034996E-1,1.141106844E0,2.212440346E0
6.349553727E0,1.853772163E0,-9.269404411E-1,9.693629742E-1,2.288089682E0
6.357779650E0,2.012951374E0,-1.003898621E0,7.817399502E-1,2.381365790E0
6.365990227E0,1.916497707E0,-9.607267380E-1,6.204330921E-1,2.231792228E0
6.374199842E0,1.660524845E0,-8.652110100E-1,3.085589409E-1,1.897667377E0
6.382439034E0,1.431455135E0,-7.279677391E-1,6.267595291E-2,1.607149374E0
6.390647880E0,1.191796780E0,-5.288972855E-1,-3.816866875E-2,1.304441930E0
6.398858073E0,1.026184082E0,-3.926825523E-1,-2.496290207E-2,1.099034351E0
6.407067842E0,7.503352165E-1,-2.044544220E-1,7.807016373E-2,7.816006002E-1
6.415277150E0,4.701023102E-1,2.367591858E-2,2.048335075E-1,5.133356572E-1
6.423491303E0,2.653017044E-1,2.820992470E-1,3.318829536E-1,5.100110532E-1
6.431700765E0,-3.011226654E-3,5.088801384E-1,4.264819622E-1,6.639690707E-1
6.439927842E0,-2.167954445E-1,6.204547882E-1,4.610626698E-1,8.028344751E-1
6.448136688E0,-4.006333351E-1,7.371368408E-1,4.167292118E-1,9.367715982E-1
6.456345957E0,-5.795550346E-1,8.375358582E-1,3.034870625E-1,1.062758086E0
6.464584111E0,-7.231554985E-1,9.257636070E-1,3.154885769E-1,1.216357338E0
6.472795457E0,-7.308120728E-1,9.635725021E-1,1.726038456E-1,1.221617919E0
6.481007265E0,-6.598992348E-1,8.208279610E-1,-5.223512650E-3,1.053210723E0
6.489219303E0,-7.615532875E-1,7.039160728E-1,-2.150287628E-1,1.059102741E0
6.497430457E0,-8.033385277E-1,5.047965050E-1,-2.638759613E-1,9.847856744E-1
6.505647380E0,-7.787051201E-1,2.790579796E-1,-2.549579144E-1,8.655972263E-1
6.513857265E0,-7.734990120E-1,9.469318390E-2,-2.104716301E-1,8.071962758E-1
6.522084457E0,-8.817486763E-1,-3.663396835E-2,-7.199597359E-2,8.854412437E-1
6.530295572E0,-8.384332657E-1,-1.058449745E-1,5.341434479E-2,8.467742272E-1
6.538506457E0,-8.126564026E-1,-1.265120506E-1,1.606900692E-1,8.379958389E-1
6.546754418E0,-7.517995834E-1,-1.628751755E-1,1.698930264E-1,7.877782536E-1
6.554963534E0,-6.244935989E-1,-1.553926468E-1,3.622364998E-2,6.445551044E-1
6.563173841E0,-5.023655891E-1,-1.087665558E-1,-2.046992779E-1,5.532658883E-1
6.571383149E0,-3.637924194E-1,-1.446833611E-1,-4.970188141E-1,6.326973218E-1
6.579593764E0,-2.661185265E-1,-1.695089340E-1,-6.728677750E-1,7.431711724E-1
6.587807034E0,-2.182526588E-1,-2.236871719E-1,-7.692301273E-1,8.302922153E-1
6.596016533E0,-1.334114075E-1,-3.597722054E-1,-8.040733337E-1,8.909369054E-1
6.604243033E0,-1.070094109E-1,-5.170316696E-1,-8.337445259E-1,9.868650849E-1
6.612452957E0,-1.617550850E-1,-6.300024986E-1,-8.474485874E-1,1.068286930E0
6.620662841E0,-5.328860283E-1,-5.951914787E-1,-1.074852467E0,1.339226732E0
6.628902880E0,-1.017680168E0,-3.485283852E-1,-1.247376442E0,1.647146911E0
6.637113264E0,-1.584978104E0,-6.994962692E-2,-1.483422756E0,2.172001753E0
6.645322187E0,-2.186108112E0,2.472052574E-1,-1.651313543E0,2.750820884E0
6.653530033E0,-2.473266125E0,4.696483612E-1,-1.657365322E0,3.014046237E0
6.661738149E0,-2.918575287E0,7.678551674E-1,-1.571649075E0,3.402611361E0
6.669949649E0,-2.992482662E0,9.723801613E-1,-1.322216749E0,3.413023995E0
6.678157572E0,-2.600470543E0,8.852701187E-1,-8.836910725E-1,2.885664592E0
6.686383110E0,-1.918720722E0,7.146759033E-1,-3.879659176E-1,2.083930999E0
6.694593495E0,-9.764733315E-1,4.414358139E-1,1.388769150E-1,1.080579725E0
6.702803956E0,-7.903862000E-2,2.144703865E-1,5.897154808E-1,6.324626459E-1
6.711027572E0,6.748223305E-1,1.463818550E-1,9.489951134E-1,1.173628796E0
6.719237379E0,1.167278290E0,2.279629707E-1,1.158809423E0,1.660525520E0
6.727447610E0,1.366250515E0,5.546135902E-1,1.328230619E0,1.984548634E0
6.735658187E0,1.513526917E0,9.056463242E-1,1.697033167E0,2.447627537E0
6.743870187E0,1.603783607E0,1.355235577E0,2.087525845E0,2.960835943E0
6.752088148E0,1.658878326E0,1.855504990E0,2.524340153E0,3.545006245E0
6.760297956E0,1.694995403E0,2.364947319E0,2.803997040E0,4.040839596E0
6.768523417E0,1.801022053E0,2.742535114E0,3.126856804E0,4.532373855E0
6.776734802E0,1.771946430E0,3.021287918E0,3.172773838E0,4.725935745E0
6.784947571E0,1.641812801E0,3.131862640E0,3.031439781E0,4.657653918E0
6.793163071E0,1.225696564E0,3.097754478E0,2.558667660E0,4.200618415E0
6.801375956E0,8.386454582E-1,2.771064758E0,1.829487562E0,3.424784787E0
6.809588148E0,6.078839302E-1,2.260959148E0,1.044239759E0,2.563570912E0
6.817800340E0,3.865742683E-1,1.854667664E0,1.112380028E-1,1.897789688E0
6.826012071E0,3.855371475E-1,1.536537170E0,-5.834321976E-1,1.688187933E0
6.834227456E0,6.907782555E-1,1.278801918E0,-1.174860477E0,1.868905050E0
6.842439302E0,1.271502972E0,1.027130604E0,-1.141912937E0,1.993911292E0
6.850667648E0,1.898809433E0,9.041209221E-1,-8.808526993E-1,2.280090652E0
6.858879494E0,2.449579477E0,8.778362274E-1,-4.422459602E-1,2.639435081E0
6.867091417E0,2.920730829E0,9.173388481E-1,-2.157111168E-1,3.068991760E0
6.875323417E0,3.279412746E0,8.648271561E-1,1.059589386E-1,3.393184532E0
6.883535609E0,3.630147457E0,7.734847069E-1,3.232955933E-1,3.725690432E0
6.891747186E0,3.829041719E0,6.337342262E-1,4.630389214E-1,3.908655089E0
6.899957609E0,3.771674395E0,5.921730995E-1,4.338817596E-1,3.842453656E0
6.908166532E0,3.698593140E0,4.775958061E-1,4.053244591E-1,3.751263372E0
6.916379878E0,3.467680216E0,3.494420052E-1,4.114184380E-1,3.509441683E0
6.924590340E0,3.101289272E0,2.513084412E-1,4.523415565E-1,3.144163476E0
6.932818071E0,2.561795950E0,1.611075401E-1,5.629849434E-1,2.627871035E0
6.941029109E0,2.023450851E0,1.252813339E-1,6.111459732E-1,2.117439057E0
6.949238071E0,1.607769012E0,3.788471222E-2,6.063532829E-1,1.718726491E0
6.957474840E0,1.334616184E0,1.124858856E-2,5.505399704E-1,1.443752454E0
6.965683994E0,1.131062984E0,3.102493286E-2,5.577397346E-1,1.261483108E0
6.973892494E0,9.306983948E-1,2.981090546E-2,6.362428665E-1,1.127782416E0
6.982101724E0,7.705821991E-1,1.262855530E-2,5.932617188E-1,9.725820649E-1
6.990309724E0,6.992750168E-1,2.676391602E-2,5.132031441E-1,8.678014309E-1
6.998525378E0,4.340376854E-1,1.439294815E-1,3.674077988E-1,5.865943220E-1
7.006734263E0,2.973141670E-1,1.381044388E-1,2.968158722E-1,4.422309486E-1
7.014959186E0,3.069195747E-1,1.227955818E-1,1.646451950E-1,3.693053215E-1
7.023168532E0,5.104112625E-2,3.037548065E-2,3.310060501E-2,6.799644436E-2
7.031377263E0,-2.698616982E-1,-8.069992065E-2,-1.769118309E-1,3.326193158E-1
7.039614878E0,-4.991183281E-1,-2.332205772E-1,-3.994417191E-1,6.804885231E-1
7.047825532E0,-1.027060032E0,-3.797621727E-1,-7.463278770E-1,1.325170524E0
7.056033032E0,-1.464624405E0,-5.034174919E-1,-9.902081490E-1,1.838223598E0
7.064241224E0,-2.000025749E0,-7.163343430E-1,-1.593822479E0,2.655844119E0
7.072449916E0,-2.331871033E0,-9.175963402E-1,-2.204153538E0,3.337349004E0
7.080663301E0,-2.365113735E0,-1.256496906E0,-2.586663723E0,3.723355566E0
7.088872185E0,-2.193786144E0,-1.538164139E0,-2.750878811E0,3.840049583E0
7.097097647E0,-1.810089588E0,-1.650095463E0,-2.642690659E0,3.603200421E0
7.105305532E0,-1.389916420E0,-1.489226818E0,-2.117906570E0,2.938569790E0
7.113514070E0,-1.044630527E0,-1.272904873E0,-1.567851067E0,2.273696708E0
7.121750993E0,-9.561071396E-1,-1.164259434E0,-1.313983917E0,1.999048430E0
7.129959724E0,-9.045886993E-1,-1.088219643E0,-1.238092422E0,1.880259437E0
7.138170147E0,-8.538322449E-1,-1.096462727E0,-1.381072998E0,1.959240322E0
7.146380224E0,-6.463818550E-1,-1.094216347E0,-1.451423645E0,1.929183639E0
7.154590570E0,-4.362964630E-1,-1.081865311E0,-1.853001595E0,2.189612309E0
7.162806416E0,-2.658147812E-1,-9.440269470E-1,-2.216351032E0,2.423645245E0
7.171019301E0,-4.832553864E-1,-5.791764259E-1,-2.532469749E0,2.642420128E0
7.179247070E0,-1.179560184E0,-1.288890839E-3,-2.991500854E0,3.215655649E0
7.187458224E0,-1.893350601E0,4.803891182E-1,-3.305637360E0,3.839633909E0
7.195668570E0,-2.369191170E0,1.026344299E0,-3.175493240E0,4.092701643E0
7.203893223E0,-2.483265400E0,1.562094212E0,-2.528600216E0,3.873056212E0
7.212103223E0,-2.631602287E0,1.894561768E0,-1.558448553E0,3.597701597E0
7.220313377E0,-2.736793995E0,2.045498371E0,-6.187577248E-1,3.472314225E0
7.228523723E0,-2.528618336E0,2.116570473E0,2.812771797E-1,3.309516295E0
7.236733993E0,-1.952708721E0,2.080147266E0,5.585920811E-1,2.907251127E0
7.244952954E0,-7.159042358E-1,1.912232399E0,1.075049162E0,2.307570654E0
7.253163877E0,-3.234148026E-2,1.759844780E0,1.045101881E0,2.047031402E0
7.261388992E0,9.158530235E-1,1.406460762E0,1.141514063E0,2.029771660E0
7.269597646E0,1.714963436E0,1.014971256E0,1.356514692E0,2.410684208E0
7.277806954E0,2.122312069E0,6.219344139E-1,1.747192621E0,2.818455781E0
7.286045069E0,2.247314930E0,3.387999535E-1,2.072514296E0,3.075796695E0
7.294255031E0,2.183651924E0,2.904796600E-2,2.309415102E0,3.178455226E0
7.302464185E0,1.942059994E0,-3.453397751E-2,2.209037542E0,2.941536415E0
7.310673838E0,1.584664822E0,1.041393280E-1,1.960348606E0,2.522890060E0
7.318883800E0,1.167357445E0,4.373331070E-1,1.944072485E0,2.309415830E0
7.327096185E0,9.125676155E-1,9.296479225E-1,2.009178162E0,2.394539997E0
7.335307069E0,6.387267113E-1,1.367996216E0,2.210082054E0,2.676536595E0
7.343534069E0,2.234830856E-1,1.716586590E0,2.305924892E0,2.883384092E0
7.351744031E0,-9.141206741E-2,1.889000893E0,2.404115200E0,3.058831547E0
7.359953838E0,-5.190811157E-1,2.011816978E0,2.499280691E0,3.250116418E0
7.368193031E0,-6.208300591E-1,1.879081726E0,2.493886709E0,3.183684817E0
7.376404261E0,-7.373495102E-1,1.620275974E0,2.234071255E0,2.856580631E0
7.384612761E0,-8.867678642E-1,1.310818195E0,1.813799977E0,2.407170942E0
7.392821415E0,-7.401165962E-1,1.028048992E0,1.690186024E0,2.112199352E0
7.401030146E0,-4.626884460E-1,6.726956367E-1,1.592869997E0,1.789925933E0
7.409242223E0,-3.330659866E-1,2.956190109E-1,1.247847795E0,1.324933082E0
7.417451261E0,-5.706930161E-2,-3.467035294E-2,1.048843861E0,1.050967356E0
7.425676761E0,4.222679138E-1,-4.021868706E-1,1.040865421E0,1.193090648E0
7.433886492E0,7.638626099E-1,-6.697268486E-1,1.050221682E0,1.461159033E0
7.442096184E0,8.920855522E-1,-8.520150185E-1,9.785287380E-1,1.574568104E0
7.450336184E0,9.467387199E-1,-1.003267765E0,9.623620510E-1,1.681963474E0
7.458548146E0,1.024811268E0,-1.071333885E0,9.099900723E-1,1.739562117E0
7.466757876E0,1.084102154E0,-1.113730431E0,7.978818417E-1,1.747079960E0
7.474967299E0,1.068484783E0,-1.087787628E0,7.640843391E-1,1.705510637E0
7.483177338E0,1.101824760E0,-1.015480518E0,5.793781281E-1,1.606517196E0
7.491394069E0,9.333944321E-1,-9.730401039E-1,4.155735970E-1,1.410933600E0
7.499606069E0,7.786002159E-1,-8.628282547E-1,2.382206917E-1,1.186355761E0
7.507833684E0,6.453008652E-1,-7.547068596E-1,5.201482773E-2,9.943345477E-1
7.516043876E0,4.633216858E-1,-5.558848381E-1,-2.289748192E-2,7.240160443E-1
7.524255799E0,4.052271843E-1,-4.869780540E-1,-5.953741074E-2,6.363186303E-1
7.532496838E0,2.964420319E-1,-3.536524773E-1,-4.071760178E-2,4.632557350E-1
7.540707799E0,1.928930283E-1,-2.703247070E-1,-3.195238113E-2,3.336227244E-1
7.548918953E0,1.041517258E-1,-1.677594185E-1,-5.521655083E-2,2.050357821E-1
7.557129761E0,-7.831096649E-3,-6.960868835E-2,-7.934165001E-2,1.058385232E-1
7.565339837E0,-8.590793610E-2,2.112674713E-2,-7.866168022E-2,1.183814718E-1
7.573553607E0,-1.613502502E-1,1.071395874E-1,-9.045886993E-2,2.137652956E-1
7.581764184E0,-1.983351707E-1,1.835994720E-1,-9.067368507E-2,2.850742417E-1
7.589990453E0,-1.539859772E-1,2.024388313E-1,-6.246638298E-2,2.619068739E-1
7.598200453E0,-6.643486023E-2,1.658015251E-1,3.862690926E-2,1.827451080E-1
7.606410030E0,1.193308830E-1,7.373476028E-2,1.074712276E-1,1.767108918E-1
7.614648991E0,1.330928802E-1,-3.465890884E-2,1.595497131E-1,2.106444058E-1
7.622857799E0,5.776405334E-2,-5.406808853E-2,6.765890121E-2,1.041046155E-1
7.631067530E0,3.400945663E-2,-1.405711174E-1,5.486083031E-2,1.546822320E-1
7.639278568E0,6.429386139E-2,-2.269043922E-1,8.803749084E-2,2.517337952E-1
7.647489337E0,6.746768951E-2,-3.057184219E-1,1.287109852E-1,3.384998676E-1
7.655704337E0,2.998590469E-2,-3.696861267E-1,2.135007381E-1,4.279597551E-1
7.663916029E0,1.723623276E-2,-3.278017044E-1,3.813481331E-1,5.031674112E-1
7.672143529E0,-4.162693024E-2,-2.781209946E-1,4.648385048E-1,5.432853067E-1
7.680353568E0,-1.563572884E-1,-2.056279182E-1,3.774559498E-1,4.573876216E-1
7.688563337E0,-2.584514618E-1,-1.763238907E-1,2.055690289E-1,3.743606525E-1
7.696802606E0,-4.254169464E-1,-1.238079071E-1,7.192730904E-2,4.488669223E-1
7.705011145E0,-4.629549980E-1,-1.126422882E-1,5.006575584E-2,4.790847474E-1
7.713219645E0,-6.619973183E-1,-7.262754440E-2,-2.656557560E-1,7.169994354E-1
7.721429952E0,-7.314934731E-1,-2.893495560E-2,-5.046207905E-1,8.891355774E-1
7.729638375E0,-6.670718193E-1,-3.980922699E-2,-5.384471416E-1,8.581928169E-1
7.737854798E0,-5.034475327E-1,-9.228706360E-2,-5.329077244E-1,7.388957727E-1
7.746063068E0,-3.861403465E-1,-1.929574013E-1,-6.027865410E-1,7.414098326E-1
7.754290144E0,-3.671345711E-1,-2.568554878E-1,-6.272361279E-1,7.708357121E-1
7.762501452E0,-6.504931450E-1,-2.019762993E-1,-8.309810162E-1,1.074460426E0
7.770710298E0,-9.616041183E-1,-1.028933525E-1,-1.036096334E0,1.417309118E0
7.778948337E0,-1.499256134E0,4.873657227E-2,-1.239908218E0,1.946154310E0
7.787157529E0,-2.296084881E0,3.233604431E-1,-1.619616985E0,2.828378853E0
7.795368106E0,-2.905059814E0,5.655646324E-1,-1.797522545E0,3.462704605E0
7.803578414E0,-3.526430607E0,9.252696037E-1,-1.892424107E0,4.107688604E0
7.811787375E0,-4.155658245E0,1.304581165E0,-1.906290054E0,4.754510410E0
7.820001067E0,-4.578693390E0,1.625387669E0,-1.689196587E0,5.143899624E0
7.828210106E0,-4.595688820E0,1.786092758E0,-1.318130016E0,5.103719213E0
7.836436336E0,-3.343225002E0,1.448110104E0,-6.070382595E-1,3.693598751E0
7.844646529E0,-1.750005245E0,9.026470184E-1,-2.568554878E-2,1.969251062E0
7.852856029E0,-4.181251526E-1,3.029484749E-1,3.537333012E-1,6.258863076E-1
7.861080567E0,4.135255814E-1,-1.261124611E-1,8.291904926E-1,9.351281369E-1
7.869291259E0,1.113932610E0,-4.403333664E-1,8.914484978E-1,1.493124160E0
7.877500990E0,1.910608768E0,-5.072646141E-1,8.802349567E-1,2.163921633E0
7.885712452E0,2.606916189E0,-5.638532639E-1,1.150102377E0,2.904596013E0
7.893924605E0,2.889153957E0,-3.710169792E-1,1.502692938E0,3.277644010E0
7.902140490E0,3.044588327E0,-5.665349960E-2,1.861941338E0,3.569251076E0
7.910351144E0,3.231388092E0,4.512653351E-1,2.221244097E0,3.947079267E0
7.918579182E0,3.339450359E0,1.057057381E0,2.535679817E0,4.324230700E0
7.926789221E0,3.325132370E0,1.522536278E0,2.681616306E0,4.534940794E0
7.935000298E0,3.012595892E0,2.040952206E0,2.582214832E0,4.461956225E0
7.943239951E0,2.602075815E0,2.448804855E0,2.148066044E0,4.169128386E0
7.951449144E0,1.952922821E0,2.697921276E0,1.443500757E0,3.629928538E0
7.959662374E0,1.471509933E0,2.695568562E0,6.055202484E-1,3.130189471E0
7.967874451E0,1.001520634E0,2.373727322E0,-2.194805145E-1,2.585690754E0
7.976086528E0,5.502924919E-1,1.967678547E0,-1.033823013E0,2.289840762E0
7.984306221E0,1.921968460E-1,1.617651939E0,-1.659267426E0,2.325275428E0
7.992518336E0,1.914572716E-1,1.353919506E0,-1.970389366E0,2.398371983E0
8.000747605E0,5.298132896E-1,9.134774208E-1,-1.769581795E0,2.060719012E0
8.008958720E0,1.061444283E0,5.877022743E-1,-1.281824589E0,1.764973712E0
8.017169374E0,1.592056274E0,3.401594162E-1,-6.302552223E-1,1.745730006E0
8.025392951E0,1.745770454E0,2.669057846E-1,-1.149029732E-1,1.769789781E0
8.033604259E0,1.728810787E0,1.794915199E-1,2.602119446E-1,1.757473812E0
8.041817836E0,1.765739918E0,-2.650737762E-3,4.588537216E-1,1.824387903E0
8.050029528E0,1.814363003E0,-1.045022011E-1,4.827446938E-1,1.880392580E0
8.058242989E0,1.696892262E0,-8.111906052E-2,4.565048218E-1,1.759096445E0
8.066458874E0,1.661442757E0,-9.700012207E-2,4.604277611E-1,1.726787416E0
8.074671836E0,1.601010323E0,-1.691613197E-1,4.339847565E-1,1.667390888E0
8.082899374E0,1.491437912E0,-2.184162140E-1,4.279184341E-1,1.566909976E0
8.091110182E0,1.339600563E0,-2.947883606E-1,4.021658897E-1,1.429394015E0
8.099320297E0,1.179303169E0,-4.789175987E-1,4.482588768E-1,1.349464357E0
8.107559220E0,8.665494919E-1,-5.669403076E-1,3.659110069E-1,1.098280565E0
8.115769912E0,6.335124969E-1,-6.841287613E-1,2.457809448E-1,9.642502365E-1
8.123981758E0,3.816537857E-1,-7.084665298E-1,1.289005280E-1,8.149845288E-1
8.132192566E0,2.141284943E-1,-7.602801323E-1,7.002401352E-2,7.929566533E-1
8.140404066E0,-5.096340179E-2,-8.034162521E-1,2.633333206E-2,8.054615986E-1
8.148617451E0,-2.533369064E-1,-7.755274773E-1,5.805015564E-2,8.179194806E-1
8.156827951E0,-3.846240044E-1,-7.205591202E-1,7.764816284E-3,8.168239485E-1
8.165072374E0,-5.592446327E-1,-7.418570518E-1,-1.353330612E-1,9.388404987E-1
8.173284181E0,-7.309217453E-1,-7.137141228E-1,-3.011474609E-1,1.065046591E0
8.181496297E0,-9.066138268E-1,-7.461781502E-1,-4.611144066E-1,1.261489976E0
8.189735374E0,-1.076401711E0,-7.718539238E-1,-5.960364342E-1,1.452466369E0
8.197945027E0,-1.207553864E0,-9.011850357E-1,-6.693029404E-1,1.648722908E0
8.206154527E0,-1.307628155E0,-1.057240009E0,-7.636308670E-1,1.846829697E0
8.214365297E0,-1.439942837E0,-1.272944450E0,-8.573398590E-1,2.104484398E0
8.222577681E0,-1.479102612E0,-1.425549507E0,-1.054629803E0,2.309151349E0
8.230797720E0,-1.495921612E0,-1.582551479E0,-1.305571556E0,2.539048590E0
8.239011489E0,-1.531574726E0,-1.701789856E0,-1.641636848E0,2.817229383E0
8.247239296E0,-1.596644878E0,-1.803198814E0,-1.946387291E0,3.096647271E0
8.255451989E0,-1.666395664E0,-1.878147125E0,-2.210462570E0,3.345213881E0
8.263665643E0,-1.668439865E0,-1.890388966E0,-2.327631474E0,3.431490974E0
8.271880489E0,-1.573981762E0,-1.898235321E0,-2.318382740E0,3.384614372E0
8.280092373E0,-1.302593231E0,-1.842337132E0,-2.282579899E0,3.209536762E0
8.288302527E0,-1.113623619E0,-1.701154709E0,-2.173568726E0,2.976320869E0
8.296513181E0,-7.256999016E-1,-1.581252575E0,-2.009427071E0,2.657968624E0
8.304723989E0,-4.977917671E-1,-1.399948597E0,-1.867489815E0,2.386455725E0
8.312937296E0,-4.540877342E-1,-1.291932106E0,-1.698070526E0,2.181450836E0
8.321146488E0,-5.574607849E-1,-1.186944962E0,-1.537679195E0,2.020905286E0
8.329373642E0,-7.846217155E-1,-1.156376839E0,-1.268627167E0,1.887393313E0
8.337584604E0,-1.089777946E0,-1.184885025E0,-9.545726776E-1,1.871570862E0
8.345793758E0,-1.529148579E0,-1.233603954E0,-5.785694122E-1,2.048125156E0
8.354025834E0,-1.754367828E0,-1.365557671E0,-3.493494987E-1,2.250466463E0
8.362235681E0,-1.711442471E0,-1.552768230E0,-5.417246819E-1,2.373518514E0
8.370446181E0,-1.300069809E0,-1.807056427E0,-1.007853985E0,2.443645656E0
8.378659027E0,-7.231249809E-1,-1.759980679E0,-1.312161446E0,2.311322000E0
8.386869142E0,-2.505922318E-1,-1.303184986E0,-1.254593849E0,1.826223782E0
8.395083065E0,-2.335305214E-1,-5.325899124E-1,-1.135993481E0,1.276193444E0
8.403291834E0,-5.439448357E-1,1.709761620E-1,-9.870171547E-1,1.139873544E0
8.411516527E0,-1.085344315E0,9.169778824E-1,-7.356228828E-1,1.599988045E0
8.419724911E0,-1.652553082E0,1.569879055E0,-3.794536591E-1,2.310722185E0
8.427933950E0,-2.062989235E0,2.073154926E0,9.270763397E-2,2.926173378E0
8.436172373E0,-2.401453972E0,2.375098228E0,6.670775414E-1,3.442828085E0
8.444383757E0,-2.483016491E0,2.513641357E0,1.300439596E0,3.764957757E0
8.452593526E0,-2.327935219E0,2.402439594E0,2.083912849E0,3.941280395E0
8.460802411E0,-1.976875782E0,2.246120930E0,2.663220406E0,4.005725904E0
8.469012603E0,-1.664021969E0,2.029648304E0,2.950113297E0,3.948621255E0
8.477232488E0,-1.141710758E0,1.534714222E0,3.206813097E0,3.733965913E0
8.485442988E0,-8.001027107E-1,1.052199364E0,3.005670309E0,3.283495372E0
8.493668449E0,-6.501698494E-1,5.602169037E-1,2.631122589E0,2.767556664E0
8.501877872E0,-6.108903885E-1,1.611351967E-1,2.229023933E0,2.316829582E0
8.510086026E0,-6.026892662E-1,-2.705001831E-1,1.844764829E0,1.959480026E0
8.518317334E0,-6.540493965E-1,-5.785202980E-1,1.519636869E0,1.752644449E0
8.526527372E0,-8.129396439E-1,-8.296713829E-1,1.163388491E0,1.643988518E0
8.534735180E0,-9.309878349E-1,-1.029676914E0,1.030740499E0,1.728987818E0
8.542943141E0,-1.033780098E0,-1.233440399E0,1.041696548E0,1.917083255E0
8.551149680E0,-1.084128380E0,-1.393200397E0,1.165055037E0,2.115111092E0
8.559362488E0,-1.217058659E0,-1.515962601E0,1.357853413E0,2.371316148E0
8.567571257E0,-1.359433174E0,-1.596230030E0,1.587801695E0,2.630042411E0
8.575799257E0,-1.586496353E0,-1.617648125E0,1.688223839E0,2.825571776E0
8.584010411E0,-1.757802486E0,-1.621188164E0,1.717340469E0,2.944041258E0
8.592220834E0,-1.891226768E0,-1.594746590E0,1.696493506E0,2.999674248E0
8.600459487E0,-1.992764473E0,-1.532935143E0,1.645885825E0,3.004985948E0
8.608669141E0,-2.082293034E0,-1.514021397E0,1.561360359E0,3.010988416E0
8.616879833E0,-2.122570038E0,-1.500451088E0,1.517887831E0,3.010089783E0
8.625090372E0,-2.120828629E0,-1.537350178E0,1.425583363E0,2.982221917E0
8.633300949E0,-2.036906719E0,-1.570581913E0,1.343668580E0,2.901923807E0
8.641513218E0,-1.942006588E0,-1.618861675E0,1.355771065E0,2.868835633E0
8.649722680E0,-1.860887527E0,-1.686670780E0,1.416317940E0,2.883351733E0
8.657948372E0,-1.867836475E0,-1.736299992E0,1.454774499E0,2.935969959E0
8.666157410E0,-1.821949482E0,-1.780130863E0,1.497354865E0,2.954731358E0
8.674367333E0,-1.832869530E0,-1.788916588E0,1.582480907E0,3.010627691E0
8.682607449E0,-1.862865448E0,-1.743831635E0,1.638851285E0,3.032663842E0
8.690818141E0,-1.986463547E0,-1.680781364E0,1.698299050E0,3.107295139E0
8.699029410E0,-2.046191692E0,-1.617101192E0,1.770298719E0,3.152122184E0
8.707239525E0,-2.145076275E0,-1.499946594E0,1.759662390E0,3.153982203E0
8.715449872E0,-2.202306271E0,-1.387239456E0,1.613994241E0,3.062607325E0
8.723666679E0,-2.232562065E0,-1.266943455E0,1.408325553E0,2.927944664E0
8.731876064E0,-2.286704063E0,-1.151449680E0,1.171709180E0,2.815626794E0
8.740102448E0,-2.331385612E0,-1.062227249E0,1.043500900E0,2.766329650E0
8.748312795E0,-2.317932129E0,-1.023313522E0,9.618947506E-1,2.710206898E0
8.756524102E0,-2.384436607E0,-9.435162544E-1,9.615433216E-1,2.738672382E0
8.764764833E0,-2.503952980E0,-8.709168434E-1,1.047902346E0,2.850679919E0
8.772976910E0,-2.594736576E0,-8.296070099E-1,1.217528343E0,2.983836617E0
8.781190371E0,-2.772033691E0,-7.765326500E-1,1.499748111E0,3.245984926E0
8.789403525E0,-2.880413055E0,-7.213492393E-1,1.705650568E0,3.424378477E0
8.797615756E0,-2.906670570E0,-7.266230583E-1,1.903971076E0,3.549904327E0
8.805830756E0,-2.905948162E0,-7.011947632E-1,2.150262356E0,3.682368398E0
8.814042487E0,-2.941918850E0,-7.068672180E-1,2.347628593E0,3.829609353E0
8.822269794E0,-2.913960934E0,-6.908569336E-1,2.599100351E0,3.965321458E0
8.830481833E0,-2.867021561E0,-6.964864731E-1,2.769040108E0,4.046293261E0
8.838694948E0,-2.810454369E0,-6.757988930E-1,2.976874352E0,4.149354023E0
8.846946756E0,-2.724618912E0,-6.502771378E-1,3.068573713E0,4.154822885E0
8.855159833E0,-2.626379967E0,-5.961079597E-1,3.180588245E0,4.167656178E0
8.863372063E0,-2.584871292E0,-5.006465912E-1,3.167651415E0,4.119007416E0
8.871583679E0,-2.525800228E0,-3.948721886E-1,3.137637377E0,4.047265638E0
8.879797025E0,-2.506657600E0,-3.072133064E-1,3.093589306E0,3.993495603E0
8.888013832E0,-2.546849251E0,-1.660022736E-1,3.061984539E0,3.986194574E0
8.896226909E0,-2.564920425E0,-2.682971954E-2,3.051312685E0,3.986232021E0
8.904453140E0,-2.592074394E0,1.004166603E-1,3.070757151E0,4.019761516E0
8.912661871E0,-2.523040771E0,1.599359512E-1,3.176559925E0,4.059784132E0
8.920873525E0,-2.436200619E0,1.688814163E-1,3.298954248E0,4.104472380E0
8.929116640E0,-2.310171604E0,1.553049088E-1,3.393949032E0,4.108515850E0
8.937329678E0,-2.132703781E0,1.285886765E-1,3.508621931E0,4.107966446E0
8.945542294E0,-1.975772858E0,1.033997536E-1,3.586395264E0,4.095924912E0
8.953755448E0,-1.801516533E0,8.870792389E-2,3.648528337E0,4.070023335E0
8.961968140E0,-1.617553711E0,1.038022041E-1,3.667320251E0,4.009550191E0
8.970186178E0,-1.497786045E0,1.320719719E-1,3.702349424E0,3.996022685E0
8.978399024E0,-1.413760185E0,1.616554260E-1,3.701613426E0,3.965701993E0
8.986626871E0,-1.296695709E0,1.732378006E-1,3.709073782E0,3.933021665E0
8.994839332E0,-1.068164349E0,1.092610359E-1,3.696875811E0,3.849649829E0
9.003050217E0,-8.726162910E-1,8.471584320E-2,3.561812639E0,3.668125576E0
9.011289409E0,-6.915278435E-1,2.855157852E-2,3.450100183E0,3.518837482E0
9.019501870E0,-5.650534630E-1,-6.626844406E-2,3.329653263E0,3.377908787E0
9.027713063E0,-4.733142853E-1,-9.357738495E-2,3.184822559E0,3.221160951E0
9.035923832E0,-3.268232346E-1,-1.750974655E-1,3.066467285E0,3.088801412E0
9.044134755E0,-1.897840500E-1,-2.246432304E-1,2.983305693E0,2.997765071E0
9.052348986E0,-7.937192917E-2,-2.687444687E-1,2.938144445E0,2.951476965E0
9.060561639E0,1.550197601E-3,-2.854423523E-1,2.915840626E0,2.929779223E0
9.068789793E0,9.657239914E-2,-2.222867012E-1,2.941356421E0,2.951324313E0
9.077001562E0,1.569347382E-1,-1.438097954E-1,2.978531837E0,2.986128208E0
9.085214178E0,2.195534706E-1,-7.294940948E-2,3.017734051E0,3.026589524E0
9.093456101E0,1.220889091E-1,9.905338287E-2,3.059929609E0,3.063965811E0
9.101668255E0,3.069877625E-3,3.179850578E-1,3.018740177E0,3.035443325E0
9.109880562E0,-1.908059120E-1,5.530128479E-1,2.936593533E0,2.994296525E0
9.118093870E0,-4.764618874E-1,8.326973915E-1,2.827842236E0,2.986150128E0
9.126305908E0,-8.782243729E-1,1.120501518E0,2.641696930E0,3.000893929E0
9.134521293E0,-1.233333111E0,1.390100956E0,2.426105022E0,3.056055760E0
9.142732947E0,-1.415075779E0,1.571975708E0,2.135847092E0,3.005892527E0
9.150959985E0,-1.488024235E0,1.620189190E0,1.896901011E0,2.904731069E0
9.159172216E0,-1.509619236E0,1.651881218E0,1.603601813E0,2.753034793E0
9.167382831E0,-1.306807518E0,1.515639305E0,1.370745301E0,2.425665079E0
9.175623254E0,-1.026974201E0,1.201941967E0,1.287271023E0,2.038726855E0
9.183835524E0,-7.422928810E-1,9.028806686E-1,1.170666695E0,1.654283148E0
9.192047639E0,-2.800245285E-1,4.259185791E-1,1.248056650E0,1.348134183E0
9.200259754E0,1.012988091E-1,-7.105827332E-3,1.412475228E0,1.416120832E0
9.208470793E0,2.145614624E-1,-4.219183922E-1,1.833472967E0,1.893587831E0
9.216688793E0,2.293672562E-1,-6.338238716E-1,1.995157599E0,2.105942992E0
9.224900562E0,1.856908798E-1,-6.037845612E-1,1.829202652E0,1.935205219E0
9.233127408E0,6.059694290E-2,-2.761650085E-1,1.362969398E0,1.391985877E0
9.241338754E0,-1.655702591E-1,4.151759148E-1,-4.084413052E-1,6.054823289E-1
9.249549639E0,-8.635282516E-2,1.114615440E0,-2.313193083E0,2.569180147E0
9.257790793E0,5.337586403E-1,1.553105354E0,-3.844319344E0,4.180409758E0
9.266002369E0,1.490516663E0,1.829514980E0,-4.510265827E0,5.090310680E0
9.274215062E0,2.344870567E0,1.921286106E0,-4.483158112E0,5.411881829E0
9.282428331E0,2.589839697E0,2.031116009E0,-4.039260864E0,5.210405956E0
9.290643023E0,2.549271822E0,2.191947460E0,-3.350222826E0,4.746305245E0
9.298860792E0,2.164104462E0,2.352055073E0,-2.431921959E0,4.016186699E0
9.307071715E0,1.832137585E0,2.432591915E0,-1.800365925E0,3.537732186E0
9.315300908E0,1.476799011E0,2.486952782E0,-1.408964157E0,3.217304688E0
9.323512485E0,1.079304218E0,2.437299252E0,-1.039931297E0,2.861255378E0
9.331724254E0,8.792805672E-1,2.266557217E0,-6.006736755E-1,2.504241361E0
9.339958600E0,7.383084297E-1,2.058396339E0,-1.279616356E-1,2.190540803E0
9.348171254E0,5.887384415E-1,1.743908882E0,3.273088932E-1,1.869481814E0
9.356384254E0,3.990402222E-1,1.507899761E0,6.994471550E-1,1.709450529E0
9.364595561E0,4.594016075E-1,1.144366264E0,1.135998249E0,1.676638305E0
9.372806946E0,5.176091194E-1,8.858232498E-1,1.449547052E0,1.775890956E0
9.381023100E0,6.249427795E-1,5.335392952E-1,1.837222815E0,2.012611569E0
9.389234869E0,6.967697144E-1,1.517066956E-1,2.091288090E0,2.209522308E0
9.397464138E0,7.343544960E-1,-1.998820305E-1,1.866209745E0,2.015432501E0
9.405676523E0,6.983294487E-1,-4.819993973E-1,1.392507315E0,1.630663687E0
9.413888946E0,6.623783112E-1,-6.661553383E-1,8.382461071E-1,1.259033160E0
9.422130830E0,5.963373184E-1,-6.781883240E-1,3.191578388E-1,9.578200907E-1
9.430345446E0,5.515174866E-1,-6.016407013E-1,-1.300401688E-1,8.264705179E-1
9.438558600E0,4.744219780E-1,-3.798604012E-1,-4.542174339E-1,7.587381728E-1
9.446772023E0,5.189976692E-1,-5.047130585E-2,-6.509504318E-1,8.340517958E-1
9.454984446E0,6.794061661E-1,2.687373161E-1,-6.665940285E-1,9.890197583E-1
9.463202946E0,9.901051521E-1,6.219377518E-1,-4.626498222E-1,1.257441703E0
9.471414215E0,1.210692406E0,9.189352989E-1,-1.550879478E-1,1.527831946E0
9.479643869E0,1.155931473E0,1.307950974E0,2.030544281E-1,1.757311702E0
9.487856022E0,1.279905796E0,1.521600246E0,6.392836571E-1,2.088566434E0
9.496068292E0,1.481824875E0,1.564704418E0,1.033702850E0,2.390114319E0
9.504302984E0,1.693309307E0,1.643434048E0,1.267829180E0,2.678724082E0
9.512513792E0,1.823620796E0,1.726366043E0,1.246841431E0,2.803666542E0
9.520725292E0,1.874885559E0,1.769548893E0,1.080603361E0,2.795389556E0
9.528936484E0,2.045787811E0,1.718972206E0,7.477700710E-1,2.774756439E0
9.537148368E0,2.108680248E0,1.596117020E0,4.615421295E-1,2.684612275E0
9.545364907E0,2.199157238E0,1.335886478E0,8.279871941E-2,2.574439914E0
9.553577022E0,1.972976685E0,9.235906601E-1,-2.925832272E-1,2.198013114E0
9.561805791E0,1.508487701E0,4.988412857E-1,-5.369844437E-1,1.677119574E0
9.570017291E0,7.877669334E-1,1.183195114E-1,-8.107428551E-1,1.136609091E0
9.578230253E0,8.204936981E-2,2.457952499E-2,-1.018405914E0,1.022001398E0
9.586471484E0,-4.667716026E-1,6.477832794E-3,-1.142540455E0,1.234227038E0
9.594685099E0,-9.066023827E-1,-2.361774445E-3,-1.136582375E0,1.453875150E0
9.602899522E0,-1.191206455E0,-1.399564743E-2,-1.093858242E0,1.617310901E0
9.611113099E0,-1.361530304E0,-3.801536560E-2,-1.023519993E0,1.703761460E0
9.619326022E0,-1.469415665E0,-2.791357040E-2,-9.754600525E-1,1.763939873E0
9.627543253E0,-1.370543957E0,4.156494141E-2,-9.078454971E-1,1.644476156E0
9.635755791E0,-1.070078373E0,1.632542610E-1,-7.553448677E-1,1.319949070E0
9.643983791E0,-6.594300270E-1,3.150987625E-1,-6.546287537E-1,9.811595160E-1
9.652197714E0,-2.372856140E-1,3.766751289E-1,-6.132795811E-1,7.578261410E-1
9.660411522E0,7.171773911E-2,4.269676208E-1,-6.599893570E-1,7.893229597E-1
9.668654791E0,2.556595802E-1,2.824692726E-1,-7.552258968E-1,8.458823004E-1
9.676869176E0,2.856235504E-1,9.971714020E-2,-8.709254265E-1,9.219736542E-1
9.685080945E0,3.445253372E-1,-1.622290611E-1,-9.500398636E-1,1.023519281E0
9.693293868E0,3.177638054E-1,-3.714523315E-1,-9.280583858E-1,1.048924706E0
9.701505406E0,2.680296898E-1,-5.640182495E-1,-9.424276352E-1,1.130542502E0
9.709723099E0,2.774982452E-1,-7.020297050E-1,-9.783277512E-1,1.235708773E0
9.717933406E0,2.622227669E-1,-7.429151535E-1,-1.069480896E0,1.328334706E0
9.726161022E0,3.259820938E-1,-7.070050240E-1,-1.322895288E0,1.534982858E0
9.734371791E0,3.121299744E-1,-6.352033615E-1,-1.535753012E0,1.690989575E0
9.742583675E0,3.800806999E-1,-5.570988655E-1,-1.734107971E0,1.860631866E0
9.750823291E0,2.280173302E-1,-3.667044640E-1,-1.978285074E0,2.024864416E0
9.759034752E0,-1.607875824E-1,-1.522755623E-1,-1.968662739E0,1.981078866E0
9.767245752E0,-5.587177277E-1,3.240633011E-2,-1.957049608E0,2.035499653E0
9.775457637E0,-9.491171837E-1,3.414754868E-1,-1.283657789E0,1.632545943E0
9.783668983E0,-1.120976448E0,6.240596771E-1,-3.133988380E-1,1.320703415E0
9.791883175E0,-1.078650951E0,6.059846878E-1,6.921787262E-1,1.417680044E0
9.800095483E0,-8.747673035E-1,3.332037926E-1,1.475740194E0,1.747584540E0
9.808324329E0,-4.572186470E-1,-9.855413437E-2,1.624534607E0,1.690524918E0
9.816538367E0,5.396366119E-3,-2.894234657E-1,1.368677378E0,1.398954191E0
9.824749598E0,2.892723083E-1,-2.449274063E-1,1.132754326E0,1.194487449E0
9.832980521E0,5.481538773E-1,-1.327643394E-1,1.030443668E0,1.174697066E0
9.841191560E0,6.581301689E-1,-6.548023224E-2,7.748439312E-1,1.018727686E0
9.849402290E0,4.495973587E-1,1.953492165E-1,7.386326790E-1,8.864972283E-1
9.857613829E0,1.522865295E-1,3.148941994E-1,6.618680954E-1,7.486113274E-1
9.865824983E0,-3.326950073E-1,4.953036308E-1,5.284790993E-1,7.970582243E-1
9.874039175E0,-8.548932076E-1,7.909975052E-1,5.533866882E-1,1.289479072E0
9.882249636E0,-1.208580971E0,9.552407265E-1,9.020085335E-1,1.785153272E0
9.890477406E0,-1.567819595E0,1.101213455E0,1.306054592E0,2.318729815E0
9.898689252E0,-1.882385731E0,1.156796455E0,1.702936769E0,2.789542564E0
9.906901752E0,-1.983934879E0,1.159996986E0,2.119353533E0,3.126219764E0
9.915144982E0,-1.952856064E0,1.101450443E0,2.560796976E0,3.403604125E0
9.923356367E0,-2.040232658E0,9.640827179E-1,2.432235718E0,3.317796765E0
9.931566598E0,-1.579586029E0,6.209707260E-1,2.210926533E0,2.787273363E0
9.939777290E0,-1.184575081E0,2.592945099E-1,1.982933760E0,2.324323140E0
9.947987098E0,-7.984333038E-1,1.483821869E-2,1.774672866E0,1.946067752E0
9.956202598E0,-2.285957336E-2,-3.528847694E-1,1.732805848E0,1.768520944E0
9.964412251E0,7.251710892E-1,-6.380062103E-1,1.574842215E0,1.847445002E0
9.972638405E0,1.413008690E0,-9.331521988E-1,1.498730421E0,2.261318080E0
9.980849021E0,1.726560593E0,-1.148313999E0,1.264373541E0,2.428636855E0
9.989059021E0,1.901306152E0,-1.306339264E0,1.076285481E0,2.545560409E0
9.997286482E0,2.149237156E0,-1.454915524E0,9.641174078E-1,2.768667894E0
1.000550033E1,2.208072662E0,-1.496841908E0,7.899737358E-1,2.782117733E0
1.001371237E1,2.149905205E0,-1.480659008E0,5.903389454E-1,2.676367605E0
1.002192325E1,1.886060715E0,-1.410627365E0,4.315333366E-1,2.394434297E0
1.003013310E1,1.514465332E0,-1.240118504E0,2.539811134E-1,1.973830173E0
1.003834610E1,1.182329178E0,-1.026783466E0,1.098959446E-1,1.569797340E0
1.004655683E1,9.709229469E-1,-7.385573387E-1,6.806921959E-2,1.221798564E0
1.005478402E1,6.247634888E-1,-3.592529297E-1,9.174776077E-2,7.265051521E-1
1.006299421E1,2.368702888E-1,1.035685539E-1,9.941601753E-2,2.769792838E-1
1.007120602E1,-1.434173584E-1,5.344872475E-1,5.395317078E-2,5.560180762E-1
1.007944564E1,-2.655115128E-1,8.025054932E-1,-1.696610451E-2,8.454580289E-1
1.008765583E1,-3.563113213E-1,9.839701653E-1,-1.309714317E-1,1.054660400E0
1.009586756E1,-3.252177238E-1,1.095582485E0,-3.468899727E-1,1.194319975E0
1.010407894E1,-4.027509689E-1,1.235157967E0,-5.994400978E-1,1.430787188E0
1.011229090E1,-5.544810295E-1,1.331434727E0,-1.045212746E0,1.781189863E0
1.012050587E1,-5.906753540E-1,1.317285061E0,-1.405896187E0,2.015113246E0
1.012871517E1,-4.592828751E-1,1.212667942E0,-1.652737856E0,2.100725284E0
1.013694221E1,-2.777695656E-1,1.026946545E0,-1.723613262E0,2.025491993E0
1.014515348E1,-1.985578537E-1,8.852334023E-1,-1.681401491E0,1.910542952E0
1.015336371E1,-2.022566795E-1,6.516528130E-1,-1.532416344E0,1.677456111E0
1.016159510E1,-2.316942215E-1,4.503397942E-1,-1.315065384E0,1.409214358E0
1.016981302E1,-3.450350761E-1,3.307619095E-1,-9.840354919E-1,1.093973717E0
1.017802898E1,-4.423680305E-1,2.632179260E-1,-5.592243671E-1,7.600691046E-1
1.018624352E1,-5.645833015E-1,2.660336494E-1,-2.032313347E-1,6.563773171E-1
1.019445379E1,-7.587738037E-1,3.498744965E-1,4.678225517E-2,8.368622514E-1
1.020266837E1,-9.245176315E-1,4.451875687E-1,1.932728291E-1,1.044164359E0
1.021088048E1,-1.039997578E0,4.973816872E-1,2.678642273E-1,1.183526404E0
1.021909375E1,-1.146966934E0,5.851893425E-1,2.367823124E-1,1.309215635E0
1.022730560E1,-1.178092480E0,5.871014595E-1,1.414215565E-1,1.323854248E0
1.023551737E1,-1.109601974E0,5.774474144E-1,3.036069870E-2,1.251232924E0
1.024373387E1,-1.017233372E0,5.090847015E-1,-9.213757515E-2,1.141236303E0
1.025195302E1,-9.619278908E-1,3.690009117E-1,-2.357466221E-1,1.056902744E0
1.026016914E1,-9.435386658E-1,2.102928162E-1,-3.878693581E-1,1.041600173E0
1.026838356E1,-9.642415047E-1,6.440162659E-3,-4.873766899E-1,1.080434724E0
1.027659740E1,-8.634729385E-1,-2.255740166E-1,-5.568027496E-1,1.051902303E0
1.028484025E1,-7.271556854E-1,-4.713268280E-1,-4.891307354E-1,9.950644431E-1
1.029305398E1,-5.837430954E-1,-7.137904167E-1,-4.542686939E-1,1.027916731E0
1.030126706E1,-4.785857201E-1,-9.580407143E-1,-3.923709393E-1,1.140544280E0
1.030948021E1,-3.766145706E-1,-1.106488228E0,-4.129173756E-1,1.239619092E0
1.031769348E1,-2.605948448E-1,-1.239331245E0,-3.396160603E-1,1.311179117E0
1.032592610E1,-3.800268173E-1,-1.274996758E0,-4.631729126E-1,1.408746344E0
1.033414494E1,-3.271856308E-1,-1.367779732E0,-4.326713085E-1,1.471419822E0
1.034235844E1,-1.673145294E-1,-1.427110672E0,-3.956248760E-1,1.490355013E0
1.035057167E1,1.983251572E-1,-1.504699230E0,-2.127103806E-1,1.532546361E0
1.035878402E1,3.670048714E-1,-1.571139812E0,-1.168482304E-1,1.617660779E0
1.036702802E1,5.689806938E-1,-1.518445015E0,1.257371902E-2,1.621595631E0
1.037524283E1,6.149053574E-1,-1.243916512E0,-3.163957596E-2,1.387961797E0
1.038345540E1,4.627637863E-1,-8.865046501E-1,-1.207447052E-1,1.007283525E0
1.039166967E1,6.203684807E-1,-5.744185448E-1,1.016974449E-1,8.515609706E-1
1.039988456E1,1.068940639E0,-3.049974442E-1,3.840255737E-1,1.176066823E0
1.040810136E1,1.005220413E0,1.129479408E-1,4.042093754E-1,1.089316545E0
1.041632160E1,6.926398277E-1,6.848635674E-1,4.848201275E-1,1.088043470E0
1.042453921E1,3.959250450E-1,1.298518181E0,6.077275276E-1,1.487359693E0
1.043275633E1,8.213472366E-2,1.898635864E0,8.289167881E-1,2.073322768E0
1.044096925E1,-1.970133781E-1,2.374243259E0,1.144093990E0,2.642876536E0
1.044918440E1,-3.954238892E-1,2.993176460E0,1.372978449E0,3.316705473E0
1.045739725E1,-3.783807755E-1,3.521237373E0,1.667872906E0,3.914598917E0
1.046560933E1,-3.766317368E-1,3.827686787E0,1.847430468E0,4.266853283E0
1.047382071E1,-5.224175453E-1,3.911163330E0,1.732147694E0,4.309344999E0
1.048203256E1,-4.652271271E-1,3.675922871E0,1.470457315E0,3.986362997E0
1.049024994E1,-4.275269508E-1,3.163856983E0,9.905159473E-1,3.342737224E0
1.049846702E1,-3.925356865E-1,2.615444183E0,4.474568367E-1,2.682321786E0
1.050668237E1,-1.703171730E-1,2.039282799E0,-2.050399780E-3,2.046383756E0
1.051489783E1,2.342948914E-1,1.622905254E0,-1.942648888E-1,1.651197871E0
1.052311171E1,8.157844543E-1,1.195968151E0,-3.526616096E-1,1.490038357E0
1.053135367E1,1.517713547E0,1.011476994E0,-2.177371979E-1,1.836831404E0
1.053956563E1,2.213367939E0,8.943185806E-1,1.117081642E-1,2.389828879E0
1.054777940E1,2.825329304E0,7.334904671E-1,4.289245605E-1,2.950333916E0
1.055599171E1,3.301531792E0,6.839714050E-1,6.813607216E-1,3.439793815E0
1.056420306E1,3.721297264E0,6.026549339E-1,7.189593315E-1,3.837727038E0
1.057241944E1,4.138719559E0,4.311809540E-1,7.648553848E-1,4.230829748E0
1.058063902E1,4.243704319E0,4.042582512E-1,7.057924271E-1,4.320948279E0
1.058885560E1,4.330276489E0,2.553687096E-1,5.535264015E-1,4.372973717E0
1.059707017E1,4.240437984E0,1.257252693E-1,3.703813553E-1,4.258439091E0
1.060528106E1,3.858132601E0,3.740024567E-2,2.398633957E-1,3.865762589E0
1.061351960E1,3.318480015E0,-3.669834137E-2,1.698822975E-1,3.323028193E0
1.062173210E1,2.916697741E0,-1.884956360E-1,2.714829445E-1,2.935363573E0
1.062994475E1,2.432520628E0,-2.451205254E-1,3.105392456E-1,2.464482765E0
1.063815579E1,1.928128242E0,-3.497085571E-1,4.792551994E-1,2.017339867E0
1.064636490E1,1.510772228E0,-4.488439560E-1,4.910879135E-1,1.650775866E0
1.065458840E1,1.022596836E0,-5.907545090E-1,4.697766304E-1,1.270978073E0
1.066280521E1,5.899968147E-1,-6.434183121E-1,4.619836807E-1,9.876802554E-1
1.067102048E1,4.348106384E-1,-6.968755722E-1,4.525432587E-1,9.378119510E-1
1.067923552E1,3.423247337E-1,-6.815767288E-1,4.940009117E-1,9.087188572E-1
1.068744656E1,3.014926910E-1,-6.387281418E-1,6.113953590E-1,9.341711657E-1
1.069566360E1,1.584048271E-1,-5.373554230E-1,3.790369034E-1,6.763962699E-1
1.070387594E1,-7.349300385E-2,-3.661041260E-1,2.081012726E-2,3.739873181E-1
1.071208836E1,-5.181932449E-1,-1.753201485E-1,-3.347048759E-1,6.413179769E-1
1.072030133E1,-1.087339878E0,1.557207108E-2,-8.454666138E-1,1.377448473E0
1.072851406E1,-1.702457428E0,1.602659225E-1,-1.555969715E0,2.311944682E0
1.073673006E1,-2.131794930E0,2.445497513E-1,-2.140940666E0,3.031168279E0
1.074494771E1,-2.345462799E0,2.251267433E-1,-2.612048149E0,3.517765388E0
1.075316232E1,-2.552921772E0,1.374044418E-1,-2.879776478E0,3.850896274E0
1.076137652E1,-2.573410034E0,1.280450821E-2,-2.904349327E0,3.880444327E0
1.076958848E1,-2.488554478E0,-1.815266609E-1,-2.685338020E0,3.665637134E0
1.077782752E1,-2.141115665E0,-3.559651375E-1,-2.217361450E0,3.102866300E0
1.078603702E1,-1.641081810E0,-4.716520309E-1,-1.654012203E0,2.377259244E0
1.079424840E1,-1.092278481E0,-4.900479317E-1,-1.051276207E0,1.593235989E0
1.080246113E1,-8.118901253E-1,-3.961458206E-1,-7.249889374E-1,1.158320356E0
1.081067263E1,-7.528595924E-1,-2.492761612E-1,-7.413344383E-1,1.085593349E0
1.081890698E1,-7.169947624E-1,-1.434998512E-1,-9.003729820E-1,1.159890169E0
1.082712952E1,-6.266269684E-1,-1.142549515E-1,-1.177770615E0,1.338976912E0
1.083534956E1,-4.223985672E-1,-1.999983788E-1,-1.536949158E0,1.606434753E0
1.084356532E1,-4.640169144E-1,-3.410096169E-1,-1.953731537E0,2.036827478E0
1.085177809E1,-5.443058014E-1,-4.405260086E-1,-2.218066692E0,2.325973306E0
1.086001894E1,-5.588717461E-1,-4.916615486E-1,-2.368621826E0,2.482828641E0
1.086823125E1,-5.192389488E-1,-5.021753311E-1,-2.604838371E0,2.703141152E0
1.087644371E1,-6.249861717E-1,-4.052839279E-1,-2.658432484E0,2.760819814E0
1.088465598E1,-1.109536648E0,-6.352567673E-2,-2.492220402E0,2.728785374E0
1.089286863E1,-1.629345417E0,3.863158226E-1,-2.082674742E0,2.672366083E0
1.090108398E1,-1.822393894E0,7.356629372E-1,-1.497767210E0,2.470956511E0
1.090930283E1,-1.671120167E0,1.027931690E0,-1.023395538E0,2.212831806E0
1.091751986E1,-1.218637943E0,1.157170296E0,-5.940706730E-1,1.782425733E0
1.092573579E1,-1.094932556E0,1.054978848E0,-1.219687462E-1,1.525363578E0
1.093394875E1,-6.918616295E-1,7.624859810E-1,3.461048603E-1,1.086207144E0
1.094216417E1,1.504821777E-1,4.725894928E-1,1.206157446E0,1.304147806E0
1.095037683E1,6.326985359E-1,6.873559952E-2,1.533963203E0,1.660745354E0
1.095858925E1,9.499230385E-1,-1.370029449E-1,1.774135590E0,2.017097091E0
1.096680059E1,1.721141815E0,-3.881778717E-1,2.317588329E0,2.912769622E0
1.097501294E1,2.265474319E0,-5.032896996E-1,2.822280884E0,3.653894334E0
1.098323052E1,2.482345104E0,-5.188770294E-1,3.173623800E0,4.062407982E0
1.099144744E1,2.415510654E0,-6.243371964E-1,3.186022043E0,4.046631329E0
1.099966152E1,2.048075199E0,-6.644253731E-1,3.032009602E0,3.718757228E0
1.100787421E1,1.568717003E0,-4.060316086E-1,2.649685144E0,3.105892153E0
1.101608563E1,9.987468719E-1,2.418551445E-1,2.235908508E0,2.460747058E0
1.102432613E1,4.452767372E-1,1.057089806E0,2.011035919E0,2.315162132E0
1.103253902E1,-1.823129654E-1,1.892593384E0,1.800224543E0,2.618388080E0
1.104075206E1,-8.626823425E-1,2.511877537E0,1.665209413E0,3.134752298E0
1.104896452E1,-1.237515926E0,2.813002586E0,1.515780926E0,3.426663251E0
1.105717675E1,-1.730013847E0,3.025399208E0,1.199952126E0,3.685901977E0
1.106539079E1,-2.411075592E0,3.009637833E0,9.426205158E-1,3.969853754E0
1.107361094E1,-2.533731937E0,2.726795197E0,8.636264801E-1,3.821133375E0
1.108182944E1,-2.063658714E0,2.223070145E0,7.959620953E-1,3.135966169E0
1.109004832E1,-1.480228901E0,1.633910656E0,7.214810848E-1,2.319757872E0
1.109826244E1,-9.025230408E-1,1.107467175E0,7.626750469E-1,1.619476647E0
1.110650556E1,-2.630243301E-1,5.272626877E-1,8.695609570E-1,1.050392307E0
1.111471952E1,2.889218330E-1,8.170509338E-2,1.183205128E0,1.220707140E0
1.112293425E1,7.832617760E-1,-2.484712601E-1,1.291063786E0,1.530386446E0
1.113114986E1,1.221826077E0,-6.151208878E-1,1.459987164E0,2.000698674E0
1.113936521E1,1.554147243E0,-8.267087936E-1,1.575280190E0,2.362271949E0
1.114758463E1,1.693863869E0,-9.959497452E-1,1.622841001E0,2.548470838E0
1.115580482E1,1.774360657E0,-1.129461765E0,1.601001382E0,2.643339752E0
1.116402206E1,1.823986053E0,-1.214357853E0,1.553377509E0,2.685995496E0
1.117224025E1,1.897523880E0,-1.227336407E0,1.426814556E0,2.672592619E0
1.118045421E1,1.874920845E0,-1.144748688E0,1.348597288E0,2.577691288E0
1.118867082E1,1.677772045E0,-1.011572838E0,1.105585098E0,2.249559302E0
1.119688398E1,1.358910084E0,-7.924418449E-1,9.764105082E-1,1.851479996E0
1.120509613E1,1.171214104E0,-6.162381172E-1,7.720582485E-1,1.532176828E0
1.121330782E1,8.466348648E-1,-3.855519295E-1,5.743243694E-1,1.093292900E0
1.122151921E1,6.450929642E-1,-1.828336716E-1,3.665575981E-1,7.641580704E-1
1.122973405E1,5.285372734E-1,-3.640222549E-2,1.275320053E-1,5.449230990E-1
1.123795428E1,3.660306931E-1,2.613687515E-2,-2.065794468E-1,4.211136098E-1
1.124617286E1,1.550974846E-1,1.198587418E-1,-5.226478577E-1,5.581954235E-1
1.125438948E1,7.754278183E-2,2.356348038E-1,-7.497184277E-1,7.896925760E-1
1.126260298E1,-4.584455490E-2,3.189282417E-1,-9.375889301E-1,9.914080636E-1
1.127084425E1,-1.097164154E-1,3.310694695E-1,-1.044028044E0,1.100744858E0
1.127905717E1,-1.727361679E-1,3.182530403E-1,-1.168471336E0,1.223293932E0
1.128726875E1,-2.560811043E-1,2.416772842E-1,-1.186224461E0,1.237381878E0
1.129548117E1,-3.147659302E-1,1.923861504E-1,-1.191566467E0,1.247365491E0
1.130369344E1,-4.302000999E-1,7.445907593E-2,-1.065581083E0,1.151555177E0
1.131192548E1,-6.453433037E-1,-5.892944336E-2,-9.435222149E-1,1.144628686E0
1.132014432E1,-8.880128860E-1,-1.653723717E-1,-8.114712238E-1,1.214248926E0
1.132835963E1,-1.116708755E0,-1.587815285E-1,-6.723427773E-1,1.313124072E0
1.133657590E1,-1.264348507E0,-1.018471718E-1,-5.297410488E-1,1.374618337E0
1.134478932E1,-1.287638664E0,-4.508066177E-2,-3.345015049E-1,1.331141184E0
1.135300721E1,-1.336847305E0,5.773639679E-2,-2.155663967E-1,1.355346111E0
1.136122090E1,-1.365784168E0,9.692621231E-2,-2.131552696E-1,1.385711461E0
1.136943298E1,-1.323412418E0,1.124272346E-1,-2.399013042E-1,1.349671422E0
1.137764436E1,-1.207701206E0,5.773448944E-2,-3.546488285E-1,1.260020344E0
1.138585502E1,-1.070520401E0,3.286218643E-2,-3.802495003E-1,1.136522562E0
1.139407005E1,-8.728194237E-1,-4.632759094E-2,-3.913753033E-1,9.576714573E-1
1.140228821E1,-6.791434288E-1,-1.062569618E-1,-3.491764069E-1,7.710061621E-1
1.141050409E1,-3.620152473E-1,-1.967253685E-1,-2.611801624E-1,4.878227005E-1
1.141872071E1,-1.173620224E-1,-2.404932976E-1,-1.675298214E-1,3.157168218E-1
1.142693336E1,6.688165665E-2,-2.989282608E-1,-1.117768288E-1,3.260756362E-1
1.143515067E1,1.790714264E-2,-2.104692459E-1,-1.642236710E-1,2.675581868E-1
1.144336317E1,-2.608065605E-1,6.048679352E-2,-1.738998890E-1,3.192489398E-1
1.145157713E1,-8.070187569E-1,2.933158875E-1,-4.318764210E-1,9.611611346E-1
1.145978936E1,-1.266538620E0,4.577708244E-1,-6.077315807E-1,1.477501905E0
1.146800278E1,-1.471457958E0,4.757113457E-1,-7.722592354E-1,1.728546827E0
1.147623690E1,-1.726695061E0,5.089735985E-1,-8.784885406E-1,2.003065669E0
1.148445467E1,-1.902079582E0,4.785060883E-1,-9.198949337E-1,2.166352119E0
1.149266944E1,-2.052986622E0,4.399967194E-1,-8.593168259E-1,2.268650830E0
1.150088409E1,-1.975313187E0,3.478226662E-1,-6.007845402E-1,2.093748995E0
1.150909721E1,-1.324199677E0,1.984534264E-1,-1.428210735E-1,1.346583234E0
1.151734198E1,-5.009083748E-1,5.776405334E-3,2.621054649E-1,5.653687660E-1
1.152555463E1,2.339258194E-1,-1.747150421E-1,5.611727238E-1,6.325831651E-1
1.153376809E1,8.596258163E-1,-2.634334564E-1,7.851028442E-1,1.193624818E0
1.154198136E1,1.352190971E0,-2.218375206E-1,1.042691231E0,1.721870295E0
1.155019521E1,1.568509579E0,2.104187012E-2,1.183581352E0,1.965077575E0
1.155841121E1,1.770333290E0,4.010548592E-1,1.313462734E0,2.240560044E0
1.156662913E1,1.822716713E0,8.514161110E-1,1.555067301E0,2.542722934E0
1.157484567E1,1.752412796E0,1.330292702E0,1.804955721E0,2.845785381E0
1.158306132E1,1.659473419E0,1.820725918E0,2.134159565E0,3.259376006E0
1.159127505E1,1.578114033E0,2.428091526E0,2.277658463E0,3.684263893E0
1.159951717E1,1.359802723E0,2.936012745E0,2.362726688E0,4.006458747E0
1.160773044E1,1.172571182E0,3.266547680E0,2.248399019E0,4.135281740E0
1.161594259E1,7.127509117E-1,3.373659611E0,1.916132927E0,3.944763418E0
1.162415548E1,2.404084206E-1,3.164652348E0,1.200710297E0,3.393306044E0
1.163236824E1,-1.481995583E-1,2.847610474E0,5.032684803E-1,2.895535819E0
1.164059421E1,-2.424492836E-1,2.362239361E0,-2.576222420E-1,2.388582356E0
1.164881371E1,-3.988742828E-3,1.836117744E0,-7.046847343E-1,1.966704059E0
1.165703040E1,4.748744965E-1,1.334392071E0,-1.009066582E0,1.739058180E0
1.166524436E1,1.137782097E0,9.295244217E-1,-8.579692841E-1,1.701374457E0
1.167345667E1,1.809640884E0,6.261091232E-1,-4.541401863E-1,1.968008149E0
1.168167167E1,2.403371811E0,4.030709267E-1,-3.342533112E-2,2.437166282E0
1.168988371E1,2.762479782E0,3.323888779E-1,2.471609116E-1,2.793360956E0
1.169809701E1,3.138570547E0,3.903465271E-1,3.077301979E-1,3.177686795E0
1.170630905E1,3.407907248E0,3.987832069E-1,3.255381584E-1,3.446568576E0
1.171452017E1,3.423761129E0,3.992815018E-1,3.761591911E-1,3.467428691E0
1.172273490E1,3.271010876E0,3.941216469E-1,4.245529175E-1,3.321910475E0
1.173095313E1,2.914236784E0,4.690051079E-1,4.438581467E-1,2.984920749E0
1.173916840E1,2.652876616E0,5.097117424E-1,5.018281937E-1,2.747615682E0
1.174738382E1,2.333439350E0,4.752926826E-1,5.297846794E-1,2.439572533E0
1.175559721E1,1.950058937E0,4.421505928E-1,6.294040680E-1,2.096276815E0
1.176383832E1,1.666419983E0,3.197355270E-1,7.257652283E-1,1.845513894E0
1.177204863E1,1.319581032E0,1.829361916E-1,8.222491741E-1,1.565520186E0
1.178025936E1,1.042706490E0,-1.905536652E-2,8.475391865E-1,1.343846198E0
1.178847121E1,8.419170380E-1,-1.644649506E-1,9.032142162E-1,1.245660042E0
1.179668374E1,5.661754608E-1,-2.343378067E-1,9.940624237E-1,1.167745247E0
1.180491624E1,3.970346451E-1,-2.651267052E-1,9.547395706E-1,1.067453197E0
1.181313763E1,2.385649681E-1,-2.612400055E-1,8.530116081E-1,9.234654233E-1
1.182135401E1,1.248736382E-1,-2.254915237E-1,6.922318935E-1,7.386642317E-1
1.182957228E1,6.540346146E-2,-1.718649864E-1,5.401270390E-1,5.705719977E-1
1.183778628E1,-3.286838531E-3,-1.850562096E-1,3.035936356E-1,3.555639177E-1
1.184603124E1,-1.315932274E-1,-2.059736252E-1,-7.473659515E-2,2.555923912E-1
1.185424574E1,-3.154320717E-1,-2.266182899E-1,-5.202417374E-1,6.492339382E-1
1.186246059E1,-5.730528831E-1,-2.399067879E-1,-1.058756351E0,1.227562579E0
1.187067459E1,-9.949731827E-1,-2.935566902E-1,-1.481194019E0,1.808337050E0
1.187888932E1,-1.267335415E0,-3.970761299E-1,-1.925524235E0,2.339113526E0
1.188710567E1,-1.578917980E0,-7.060008049E-1,-2.434785843E0,2.986570144E0
1.189532559E1,-1.659767151E0,-9.828023911E-1,-2.842157364E0,3.434906988E0
1.190354067E1,-1.441436291E0,-1.240128040E0,-2.873070240E0,3.445314026E0
1.191175721E1,-1.109309196E0,-1.277451038E0,-2.607096195E0,3.107957307E0
1.191996967E1,-7.078490257E-1,-1.178521156E0,-2.119980335E0,2.526713078E0
1.192818520E1,-4.733815193E-1,-1.026179790E0,-1.665231228E0,2.012493495E0
1.193639774E1,-4.768242836E-1,-8.520283699E-1,-1.382521152E0,1.692536108E0
1.194460936E1,-4.383115768E-1,-8.287653923E-1,-1.176139832E0,1.504085775E0
1.195282344E1,-3.635096550E-1,-8.254065514E-1,-1.084043503E0,1.410172174E0
1.196103648E1,-2.835178375E-1,-8.902096748E-1,-1.109197140E0,1.450232369E0
1.196927009E1,-2.155752182E-1,-1.044255733E0,-1.082592487E0,1.519522690E0
1.197748878E1,-1.031765938E-1,-1.237359047E0,-1.041155338E0,1.620403425E0
1.198570509E1,-2.015256882E-2,-1.475679398E0,-9.002227783E-1,1.728709594E0
1.199391971E1,-3.764629364E-2,-1.693490028E0,-7.718734741E-1,1.861481770E0
1.200213255E1,-1.917657852E-1,-1.808106899E0,-7.918939590E-1,1.983209701E0
1.201037440E1,-6.490859985E-1,-1.732970238E0,-1.077877522E0,2.141569151E0
1.201858486E1,-1.480720520E0,-1.356032372E0,-1.560707092E0,2.543061871E0
1.202679624E1,-2.446897030E0,-5.250444412E-1,-1.959168911E0,3.178257315E0
1.203500763E1,-3.048825264E0,4.699287415E-1,-2.134108543E0,3.751078217E0
1.204321951E1,-3.034581661E0,1.501622200E0,-2.107933044E0,3.988350136E0
1.205143594E1,-3.262082100E0,2.176558495E0,-1.842770815E0,4.332942509E0
1.205965524E1,-3.164402962E0,2.560720921E0,-1.045275450E0,4.202777475E0
1.206787009E1,-2.440933704E0,2.679713726E0,4.801630974E-2,3.625097043E0
1.207608482E1,-1.687581539E0,2.615772247E0,9.673023224E-1,3.259734603E0
1.208429697E1,-9.204902649E-1,2.554162025E0,1.473775148E0,3.089184224E0
1.209253763E1,2.360792160E-1,2.252072334E0,1.907223582E0,2.960585244E0
1.210074890E1,1.180315018E0,2.032428265E0,2.307241678E0,3.293519752E0
1.210895982E1,2.039638042E0,1.729801178E0,2.578140259E0,3.714719727E0
1.211717101E1,2.596644402E0,1.421778202E0,2.847982407E0,4.107921517E0
1.212538286E1,3.126422167E0,1.060654640E0,2.857892036E0,4.366583415E0
1.213360094E1,3.248721838E0,7.330408096E-1,2.567387581E0,4.205118476E0
1.214181821E1,2.973614693E0,8.005990982E-1,2.289139748E0,3.837121843E0
1.215003240E1,2.411362171E0,1.130419731E0,2.061468601E0,3.367813695E0
1.215824590E1,1.739207745E0,1.642081261E0,1.918428421E0,3.066209721E0
1.216645705E1,1.135840893E0,2.131416321E0,1.930844069E0,3.092123685E0
1.217467067E1,5.056266785E-1,2.512504578E0,2.032614231E0,3.271063772E0
1.218288128E1,-1.030154228E-1,2.793370247E0,2.106739759E0,3.500268836E0
1.219109309E1,-4.921565056E-1,2.971207619E0,2.107296705E0,3.675730151E0
1.219930451E1,-7.506742477E-1,2.930327415E0,2.119748116E0,3.693732890E0
1.220751436E1,-8.882064819E-1,2.578908920E0,1.977567434E0,3.369043623E0
1.221573101E1,-8.581018448E-1,2.154906273E0,1.709283590E0,2.881251501E0
1.222395051E1,-7.115483284E-1,1.638389111E0,1.379915953E0,2.257163693E0
1.223216497E1,-3.343992233E-1,1.068668842E0,1.089012623E0,1.561993735E0
1.224037959E1,5.563259125E-3,5.181488991E-1,8.439662457E-1,9.903475427E-1
1.224859070E1,3.058714867E-1,1.054382324E-2,5.748691559E-1,6.512626851E-1
1.225683140E1,6.784086227E-1,-3.860158920E-1,5.195505619E-1,9.376456232E-1
1.226504347E1,1.170269966E0,-6.228852272E-1,4.703571796E-1,1.406681796E0
1.227325655E1,1.344563007E0,-7.541050911E-1,6.800608635E-1,1.684935295E0
1.228146867E1,1.213109970E0,-7.905406952E-1,6.459493637E-1,1.585509688E0
1.228968097E1,1.139106750E0,-8.302340508E-1,5.330412388E-1,1.506979008E0
1.229791282E1,1.268732548E0,-8.144450188E-1,5.379867554E-1,1.600760043E0
1.230613224E1,1.299489975E0,-7.245607376E-1,5.511479378E-1,1.586640005E0
1.231434867E1,1.240189075E0,-5.972623825E-1,4.578354359E-1,1.450656604E0
1.232256355E1,1.052440166E0,-4.446082115E-1,4.209692478E-1,1.217588548E0
1.233077597E1,8.406438828E-1,-3.098635674E-1,3.604781628E-1,9.657339560E-1
1.233901782E1,4.928646088E-1,-1.407785416E-1,2.646479607E-1,5.768645105E-1
1.234723028E1,2.568717003E-1,-3.251075745E-3,3.921673298E-1,4.688164400E-1
1.235544286E1,1.639785767E-1,8.118104935E-2,4.840676785E-1,5.174947862E-1
1.236365820E1,-1.763200760E-2,1.317114830E-1,5.730128288E-1,5.882197756E-1
1.237187401E1,-9.881162643E-2,2.055211067E-1,7.039005756E-1,7.399180247E-1
1.238009055E1,-2.002639771E-1,2.674503326E-1,7.483491898E-1,8.195497854E-1
1.238831043E1,-3.197121620E-1,2.915945053E-1,6.428518295E-1,7.749204455E-1
1.239652693E1,-5.075235367E-1,3.376770020E-1,4.352080822E-1,7.490073249E-1
1.240474363E1,-6.518063545E-1,4.005260468E-1,1.930429935E-1,7.890109222E-1
1.241295759E1,-6.623311043E-1,3.959980011E-1,5.611133575E-2,7.737217785E-1
1.242117090E1,-6.277050972E-1,3.937783241E-1,-4.681158066E-2,7.424731522E-1
1.242938224E1,-5.977082253E-1,3.513736725E-1,-1.610310078E-1,7.117932043E-1
1.243759447E1,-5.416669846E-1,2.563800812E-1,-2.104115486E-1,6.351432027E-1
1.244580551E1,-4.617519379E-1,1.336393356E-1,-2.216799259E-1,5.293546200E-1
1.245401717E1,-4.102630615E-1,-1.645278931E-2,-1.852133274E-1,4.504336251E-1
1.246225059E1,-4.277558327E-1,-1.483588219E-1,-9.640216827E-2,4.629025496E-1
1.247046890E1,-3.726549149E-1,-2.882790565E-1,4.435062408E-2,4.732266665E-1
1.247868413E1,-3.359498978E-1,-3.741383553E-1,1.505327225E-1,5.248827900E-1
1.248689928E1,-2.928338051E-1,-4.004440308E-1,1.858055592E-1,5.297459438E-1
1.249511005E1,-2.369313240E-1,-3.658385277E-1,2.263443470E-1,4.911273196E-1
1.250332732E1,-2.463078499E-1,-3.369178772E-1,2.613906860E-1,4.924492904E-1
1.251154182E1,-2.284626961E-1,-2.762665749E-1,2.167243958E-1,4.189127446E-1
1.251975559E1,-1.748614311E-1,-2.109131813E-1,2.607743740E-1,3.782382375E-1
1.252796955E1,-1.217179298E-1,-1.243858337E-1,2.978436947E-1,3.449608044E-1
1.253618455E1,-5.387592316E-2,-4.535198212E-2,3.129827976E-1,3.208078069E-1
1.254440205E1,2.389669418E-2,1.701831818E-2,3.083481789E-1,3.097406569E-1
1.255262305E1,1.300005913E-1,9.088420868E-2,3.074474335E-1,3.459537794E-1
1.256083947E1,2.155776024E-1,1.131858826E-1,2.780761719E-1,3.696093939E-1
1.256905797E1,3.218555450E-1,7.045841217E-2,1.923305988E-1,3.815054901E-1
1.257727336E1,4.651489258E-1,-1.361846924E-3,1.207265854E-1,4.805624686E-1
1.258551586E1,6.121006012E-1,-8.267498016E-2,3.519582748E-2,6.186606862E-1
1.259372978E1,6.561522484E-1,-5.047607422E-2,-5.780816078E-2,6.606250000E-1
1.260194266E1,6.139063835E-1,8.523988724E-2,-3.144891262E-1,6.950181988E-1
1.261015582E1,2.752737999E-1,3.725109100E-1,-5.660727024E-1,7.314221404E-1
1.261836928E1,-2.582159042E-1,7.149076462E-1,-7.053959370E-1,1.036991718E0
1.262660155E1,-7.871479988E-1,1.016694546E0,-6.901860237E-1,1.459323994E0
1.263482109E1,-1.450756073E0,1.392133713E0,-6.257288456E-1,2.105769704E0
1.264303797E1,-1.983557224E0,1.739603996E0,-4.295558929E-1,2.673058097E0
1.265125405E1,-2.386024475E0,2.103729725E0,-2.083649635E-1,3.187821750E0
1.265946670E1,-2.731805325E0,2.407549858E0,1.599788666E-2,3.641333902E0
1.266768316E1,-2.785569191E0,2.504235744E0,3.522956371E-1,3.762273860E0
1.267589805E1,-2.411184311E0,2.290754318E0,6.615076065E-1,3.391011271E0
1.268411124E1,-1.802495480E0,1.853002548E0,9.666619301E-1,2.759899216E0
1.269232282E1,-8.966860771E-1,1.331982613E0,1.091272593E0,1.941416872E0
1.270053532E1,-4.843902588E-2,7.756023407E-1,1.184480429E0,1.416650704E0
1.270875166E1,9.345846176E-1,2.822308540E-1,1.324104071E0,1.645100074E0
1.271697082E1,1.815352917E0,-8.757734299E-2,1.605247259E0,2.424870051E0
1.272518597E1,2.304815769E0,-1.711816788E-1,1.777687669E0,2.915759308E0
1.273340220E1,2.535725117E0,6.911134720E-2,1.747199178E0,3.080159608E0
1.274161420E1,2.610714674E0,4.185957909E-1,1.654088974E0,3.118824118E0
1.274985620E1,2.686961412E0,8.228397369E-1,1.404949188E0,3.141768465E0
1.275806886E1,2.611817598E0,1.331674576E0,1.263496876E0,3.192392942E0
1.276628163E1,2.411891460E0,1.867800713E0,1.132174492E0,3.253877533E0
1.277449590E1,2.242352486E0,2.437541008E0,1.025509119E0,3.467191917E0
1.278270851E1,2.095937729E0,3.016100407E0,8.561661243E-1,3.771317682E0
1.279092532E1,1.961340904E0,3.394736290E0,5.641894341E-1,3.960985021E0
1.279914378E1,1.874630928E0,3.615607738E0,1.546835899E-1,4.075633380E0
1.280735751E1,1.837790966E0,3.515537739E0,-4.104518890E-1,3.988101300E0
1.281557120E1,1.799314976E0,3.141503334E0,-1.043221951E0,3.767610598E0
1.282378351E1,1.723998070E0,2.629670143E0,-1.462677956E0,3.467962112E0
1.283202401E1,1.936336040E0,2.123015881E0,-1.489816189E0,3.236687499E0
1.284023559E1,2.105400562E0,1.723681450E0,-1.333219528E0,3.030059996E0
1.284844578E1,2.279312849E0,1.428112984E0,-1.048970222E0,2.887059453E0
1.285665582E1,2.325206995E0,1.252639294E0,-6.815261841E-1,2.727667632E0
1.286486639E1,2.419588566E0,1.119921207E0,-2.861642838E-1,2.681514933E0
1.287308247E1,2.509273529E0,1.044201374E0,1.614947319E-1,2.722662429E0
1.288130339E1,2.530553102E0,8.763904572E-1,5.574285984E-1,2.735413292E0
1.288951697E1,2.438314438E0,8.253145218E-1,8.252243996E-1,2.703241881E0
1.289773112E1,2.361499310E0,7.375044823E-1,9.893376827E-1,2.664466344E0
1.290594259E1,2.207048893E0,6.420831680E-1,1.127113581E0,2.560023561E0
1.291415774E1,2.020450354E0,5.511655807E-1,1.198185921E0,2.412810111E0
1.292237066E1,1.835121155E0,4.289159775E-1,1.279492378E0,2.277880443E0
1.293058232E1,1.660723209E0,3.351330757E-1,1.330191612E0,2.154002201E0
1.293879416E1,1.471397400E0,1.360311508E-1,1.366924763E0,2.012957548E0
1.294700732E1,1.205449581E0,7.185935974E-3,1.347179890E0,1.807775978E0
1.295523813E1,8.464531898E-1,-1.120281219E-1,1.271668434E0,1.531722530E0
1.296345562E1,4.414587021E-1,-9.997320175E-2,1.143136501E0,1.229488303E0
1.297167066E1,2.169051170E-1,-5.385446548E-2,1.082628250E0,1.105455590E0
1.297988578E1,3.606987000E-2,7.678937912E-2,1.014097452E0,1.017640058E0
1.298809736E1,-1.086692810E-1,2.298116684E-1,8.807871342E-1,9.167379076E-1
1.299633670E1,-1.895828247E-1,4.222493172E-1,6.725311279E-1,8.164154894E-1
1.300454474E1,-1.461510658E-1,5.560374260E-1,4.614059925E-1,7.371792476E-1
1.301275432E1,-1.336426735E-1,5.808601379E-1,3.498299122E-1,6.911149192E-1
1.302096320E1,-8.055877686E-2,5.166015625E-1,1.361112595E-1,5.402713817E-1
1.302917170E1,-6.448030472E-2,3.944349289E-1,-7.281875610E-2,4.062501619E-1
1.303738336E1,-3.829002380E-4,1.880083084E-1,-1.793510914E-1,2.598347256E-1
1.304559812E1,1.091141701E-1,-7.591438293E-2,-2.038266659E-1,2.433396913E-1
1.305381005E1,1.981701851E-1,-3.702344894E-1,-2.016665936E-1,4.658480593E-1
1.306202309E1,2.536697388E-1,-7.088584900E-1,-1.164665222E-1,7.618353799E-1
1.307023393E1,1.606230736E-1,-9.617123604E-1,-6.288337708E-2,9.770592382E-1
1.307847601E1,7.402420044E-2,-1.175068855E0,-4.266142845E-2,1.178170783E0
1.308668709E1,-7.481765747E-2,-1.239491940E0,-6.539654732E-2,1.243468801E0
1.309489928E1,-1.761455536E-1,-1.330455303E0,-1.246850491E-1,1.347844550E0
1.310310816E1,-1.488595009E-1,-1.316954613E0,-1.662774086E-1,1.335730804E0
1.311131805E1,-2.110657692E-1,-1.143754482E0,-2.614645958E-1,1.192093457E0
1.311954674E1,-3.786773682E-1,-9.477696419E-1,-4.483857155E-1,1.114770646E0
1.312776301E1,-6.097788811E-1,-7.142777443E-1,-5.326201916E-1,1.079679234E0
1.313597620E1,-7.703213692E-1,-5.147566795E-1,-5.256848335E-1,1.065229550E0
1.314418812E1,-1.006216049E0,-3.683562279E-1,-4.170126915E-1,1.149807216E0
1.315239878E1,-1.364525318E0,-1.071839333E-1,-3.831965923E-1,1.421357579E0
1.316061166E1,-1.393639088E0,9.660911560E-2,-1.544952393E-1,1.405500625E0
1.316882186E1,-1.444602966E0,3.239059448E-1,1.343748569E-1,1.486556219E0
1.317703255E1,-1.374230385E0,5.297093391E-1,4.956517220E-1,1.553953591E0
1.318524412E1,-1.223751545E0,6.607818604E-1,7.569510937E-1,1.583406287E0
1.319345616E1,-1.014657974E0,8.583970070E-1,9.758131504E-1,1.648813977E0
1.320167062E1,-7.331256866E-1,1.004513741E0,1.072966576E0,1.642491522E0
1.320988955E1,-3.262300491E-1,1.183396339E0,1.077642679E0,1.633452382E0
1.321810251E1,-1.166968346E-1,1.562901974E0,9.943373203E-1,1.856067735E0
1.322631724E1,1.339869499E-1,2.077393055E0,9.210336208E-1,2.276360547E0
1.323452985E1,4.805192947E-1,2.407332420E0,1.045532942E0,2.668199263E0
1.324277097E1,9.534187317E-1,2.688388348E0,1.391474485E0,3.173742338E0
1.325098424E1,1.162834167E0,2.874322414E0,1.523195982E0,3.454567794E0
1.325919647E1,1.140432835E0,3.091187477E0,1.536055803E0,3.635312160E0
1.326740812E1,1.230180264E0,3.211308956E0,1.509091854E0,3.755423667E0
1.327562082E1,1.507193089E0,3.081259251E0,1.392459154E0,3.701990285E0
1.328385451E1,1.763038635E0,2.733603477E0,1.277956486E0,3.494862799E0
1.329207297E1,1.789630413E0,2.467680454E0,1.189265966E0,3.272090674E0
1.330028732E1,1.747126579E0,2.181680679E0,1.332717657E0,3.096500965E0
1.330850093E1,1.431236267E0,2.117338181E0,1.596499085E0,3.013364822E0
1.331671278E1,9.547300339E-1,2.032196522E0,1.931217670E0,2.961576241E0
1.332495482E1,3.151006699E-1,1.948701382E0,2.169039249E0,2.932824027E0
1.333316758E1,-1.700768471E-1,1.901051998E0,2.210318089E0,2.920347734E0
1.334137862E1,-7.017416954E-1,1.894030094E0,2.100469589E0,2.914063126E0
1.334958932E1,-1.174141884E0,1.802946091E0,1.934183478E0,2.893145260E0
1.335780005E1,-1.579108238E0,1.641179562E0,1.829362869E0,2.921236329E0
1.336601362E1,-1.665701866E0,1.403522015E0,1.804807186E0,2.828739248E0
1.337423182E1,-1.572543144E0,1.072654247E0,1.854049087E0,2.657249911E0
1.338244605E1,-1.441666126E0,7.304921150E-1,1.998881340E0,2.570514844E0
1.339066174E1,-1.283487797E0,3.655276299E-1,2.146224976E0,2.527297572E0
1.339887439E1,-1.022746563E0,4.186820984E-2,2.321674585E0,2.537308881E0
1.340708885E1,-7.410135269E-1,-2.353863716E-1,2.497674704E0,2.615891190E0
1.341529947E1,-6.140809059E-1,-4.122953415E-1,2.643075943E0,2.744618962E0
