"Time (s)","Linear Acceleration x (m/s^2)","Linear Acceleration y (m/s^2)","Linear Acceleration z (m/s^2)","Absolute acceleration (m/s^2)"
1.771844900E-2,-1.145539284E-1,1.953134537E-1,1.023906469E-2,2.266600674E-1
2.594618000E-2,-1.263642311E-1,1.474552155E-1,-5.230447650E-2,2.011136935E-1
3.415414100E-2,-8.622074127E-2,9.204864502E-2,-5.108401179E-2,1.360755141E-1
4.236325700E-2,-1.409530640E-2,-1.218128204E-2,-6.326279044E-2,6.594878277E-2
5.061106400E-2,3.545093536E-2,-1.229810715E-1,-9.288492799E-2,1.581414639E-1
5.882110300E-2,3.307580948E-2,-1.601896286E-1,-1.104749441E-1,1.973814570E-1
6.707348700E-2,4.932880402E-2,-1.440982819E-1,-1.190665364E-1,1.933248195E-1
7.528329500E-2,4.515838623E-2,-1.463584900E-1,-1.108858585E-1,1.890919381E-1
8.349467900E-2,6.158542633E-2,-1.663255692E-1,-1.711860001E-1,2.464986944E-1
9.175675600E-2,7.675600052E-2,-2.025079727E-1,-2.136959434E-1,3.042481205E-1
9.996756400E-2,3.061389923E-2,-2.134380341E-1,-1.778790653E-1,2.795245375E-1
1.081788330E-1,-5.569028854E-2,-2.156629562E-1,-1.310056746E-1,2.584074413E-1
1.163922180E-1,-6.700229645E-2,-2.492408752E-1,-1.080819070E-1,2.798071126E-1
1.246047950E-1,-8.344411850E-2,-2.129602432E-1,1.831188798E-2,2.294565566E-1
1.328567180E-1,-1.309733391E-1,-1.259794235E-1,7.956600189E-2,1.983824069E-1
1.410679870E-1,-2.030782700E-1,-1.205177307E-1,1.869651675E-1,3.011997361E-1
1.493027950E-1,-2.626957893E-1,-9.975719452E-2,1.496525109E-1,3.183652770E-1
1.575478330E-1,-2.829928398E-1,-8.091831207E-2,7.598346472E-2,3.039838935E-1
1.657246020E-1,-2.756528854E-1,-1.139554977E-1,2.866581082E-2,2.996532954E-1
1.739909870E-1,-2.776260376E-1,-7.473373413E-2,-1.136594117E-1,3.091598448E-1
1.822010640E-1,-1.434998512E-1,-7.762813568E-2,1.223415136E-3,1.631558503E-1
1.904105640E-1,-1.807622910E-1,-1.220893860E-2,-5.062574148E-2,1.881144059E-1
1.986469100E-1,-3.105154037E-1,1.529703140E-1,-1.609971970E-1,3.817588642E-1
2.068582560E-1,-3.858466148E-1,3.412418365E-1,-1.250891536E-1,5.300668803E-1
2.151109100E-1,-4.578571320E-1,5.009517670E-1,-7.479688525E-2,6.827740477E-1
2.233224480E-1,-5.455412865E-1,6.818246841E-1,-1.814212799E-1,8.918597849E-1
2.315404870E-1,-4.385242462E-1,7.915325165E-1,1.544833183E-2,9.050225909E-1
2.397516020E-1,-5.093598366E-1,9.009017944E-1,4.565817118E-2,1.035932505E0
2.479631400E-1,-5.910320282E-1,9.027309418E-1,-6.115296483E-2,1.080732019E0
2.562296020E-1,-5.968914032E-1,8.326015472E-1,1.760141551E-2,1.024604555E0
2.644402940E-1,-5.748186111E-1,7.398767471E-1,-1.108735800E-1,9.434654140E-1
2.726704860E-1,-5.244612694E-1,6.102008820E-1,-1.065805554E-1,8.116428736E-1
2.809098330E-1,-4.135389328E-1,4.854307175E-1,3.160421550E-2,6.384796448E-1
2.891204090E-1,-3.906564713E-1,3.131923676E-1,4.755581915E-2,5.029547629E-1
2.973710250E-1,-4.455265999E-1,2.340040207E-1,-1.168961972E-1,5.166396750E-1
3.055813710E-1,-3.454599380E-1,1.731977463E-1,2.210047841E-2,3.870768131E-1
3.138054090E-1,-2.306637764E-1,8.057594299E-3,-1.029419079E-1,2.527206738E-1
3.220169860E-1,-7.633972168E-2,-1.689348221E-1,-4.324836731E-1,4.705410234E-1
3.302296020E-1,1.745014191E-1,-3.668308258E-1,-5.610501170E-1,6.926707976E-1
3.384983710E-1,3.294572830E-1,-4.809737206E-1,-9.503831863E-1,1.114946645E0
3.467097550E-1,4.416022301E-1,-5.541315079E-1,-1.173853517E0,1.371133231E0
3.549196780E-1,5.656557083E-1,-6.216769218E-1,-1.124081492E0,1.403569655E0
3.631559480E-1,5.512413979E-1,-6.083884239E-1,-1.222103477E0,1.472256927E0
3.713660630E-1,3.997068405E-1,-4.838781357E-1,-1.323570967E0,1.464835729E0
3.796178710E-1,3.604340553E-1,-3.803262711E-1,-1.141993046E0,1.256466831E0
3.878281010E-1,2.488956451E-1,-2.732729912E-1,-1.022885799E0,1.087622420E0
3.960464090E-1,1.633439064E-1,-1.713914871E-1,-9.707199335E-1,9.991763923E-1
4.042569860E-1,1.773853302E-1,-2.556133270E-2,-7.991659045E-1,8.190147008E-1
4.124669470E-1,9.162950516E-2,1.141738892E-1,-7.238762975E-1,7.385313380E-1
4.207337940E-1,2.846765518E-2,2.169895172E-1,-6.397480965E-1,6.761453135E-1
4.289454090E-1,-3.319740295E-3,2.385110855E-1,-4.461398423E-1,5.059044549E-1
4.371561400E-1,-5.306243896E-3,2.830562592E-1,-3.475126028E-1,4.482343262E-1
4.453936400E-1,-5.240297318E-2,3.478269577E-1,-3.535080254E-1,4.986958874E-1
4.536036010E-1,-5.342006683E-2,3.293247223E-1,-2.387371659E-1,4.102485962E-1
4.618552550E-1,-9.836339951E-2,3.677959442E-1,-3.254728913E-1,5.008810417E-1
4.700654860E-1,-8.740901947E-2,3.334712982E-1,-3.985191286E-1,5.269354223E-1
4.782901010E-1,-4.744529724E-3,3.135232925E-1,-3.786717057E-1,4.916417662E-1
4.865019860E-1,-4.792213440E-4,2.660570145E-1,-5.072253346E-1,5.727688056E-1
4.947128700E-1,2.648210526E-2,2.465200424E-1,-5.228057504E-1,5.786184285E-1
5.029823320E-1,1.271843910E-1,2.003393173E-1,-4.443880320E-1,5.037781598E-1
5.111935240E-1,1.283016205E-1,9.093093872E-2,-4.718526900E-1,4.973677739E-1
5.194242930E-1,1.559100151E-1,-1.524257660E-2,-5.415326357E-1,5.637356335E-1
5.276611390E-1,2.526602745E-1,-1.383666992E-1,-4.615507722E-1,5.440695480E-1
5.358720620E-1,2.356600761E-1,-1.915168762E-1,-4.960083365E-1,5.815828877E-1
5.441245620E-1,2.159042358E-1,-1.921844482E-1,-4.300131798E-1,5.181320642E-1
5.523348320E-1,2.536187172E-1,-2.622284889E-1,-3.367047608E-1,4.964436827E-1
5.605508700E-1,2.705659866E-1,-3.189811707E-1,-3.866875470E-1,5.696333903E-1
5.687582160E-1,3.016629219E-1,-3.590755463E-1,-3.496955037E-1,5.849980442E-1
5.769669080E-1,3.662056923E-1,-4.446673393E-1,-2.624713778E-1,6.330299171E-1
5.852301010E-1,3.506369591E-1,-4.160528183E-1,-2.974207997E-1,6.200849593E-1
5.934401010E-1,3.242602348E-1,-3.571224213E-1,-2.739975750E-1,5.547574198E-1
6.016510620E-1,3.283143044E-1,-2.794666290E-1,-1.810451150E-1,4.676208003E-1
6.098869470E-1,2.364153862E-1,-4.784679413E-2,-2.434098274E-1,3.426804555E-1
6.180966390E-1,2.119789124E-1,6.281757355E-2,-2.089049071E-1,3.041748955E-1
6.263540620E-1,2.172918320E-1,1.056947708E-1,-2.204769701E-1,3.271042940E-1
6.345659470E-1,2.532444000E-1,1.755752563E-1,-2.879623771E-1,4.217602724E-1
6.427895230E-1,2.022356987E-1,3.169651031E-1,-2.393506169E-1,4.457071598E-1
6.509986000E-1,1.665034294E-1,4.280080795E-1,-8.308511972E-2,4.667091656E-1
6.592079850E-1,6.218481064E-2,5.120058060E-1,-1.576220989E-2,5.160090535E-1
6.674752540E-1,6.241273880E-2,4.736709595E-1,1.448550373E-1,4.992419350E-1
6.756853700E-1,2.664136887E-2,4.475164413E-1,3.732677996E-1,5.833605901E-1
6.839122930E-1,-4.095888138E-2,4.210929871E-1,7.083607912E-1,8.250890523E-1
6.921513690E-1,-6.185293198E-2,4.702615738E-1,8.273080587E-1,9.536300944E-1
7.003627920E-1,-2.280745506E-1,5.771560669E-1,8.887751698E-1,1.083996508E0
7.086158310E-1,-2.825403214E-1,6.116085052E-1,9.211907387E-1,1.141265251E0
7.168249850E-1,-2.353053093E-1,5.596122742E-1,8.391890526E-1,1.035747436E0
7.250431390E-1,-6.028223038E-2,4.611988068E-1,6.515241861E-1,8.005136175E-1
7.332552540E-1,8.459806442E-2,3.978080750E-1,5.158455372E-1,6.568901851E-1
7.414672540E-1,2.482719421E-1,2.959175110E-1,2.940130532E-1,4.854377468E-1
7.497352540E-1,3.455619812E-1,2.711515427E-1,8.803543448E-2,4.479804456E-1
7.579456380E-1,4.217910767E-1,3.353910446E-1,-1.299333572E-2,5.390396015E-1
7.661779080E-1,4.526467323E-1,4.406280518E-1,-7.679510117E-2,6.363486716E-1
7.744178310E-1,3.787002563E-1,5.225896835E-1,-8.959960938E-2,6.515688386E-1
7.826304080E-1,3.258175850E-1,5.520114899E-1,-6.705695391E-2,6.444923729E-1
7.908826000E-1,2.457327843E-1,5.047264099E-1,-4.319912195E-2,5.630270991E-1
7.990940610E-1,2.294087410E-1,3.662939072E-1,-1.705694199E-2,4.325396353E-1
8.073181000E-1,2.046790123E-1,1.556043625E-1,-3.790539503E-2,2.598904282E-1
8.155292150E-1,2.006745338E-1,-9.613037109E-2,2.618479729E-2,2.240467817E-1
8.237417920E-1,1.273674965E-1,-2.688531876E-1,1.869546473E-1,3.513638510E-1
8.320096770E-1,6.944179535E-3,-3.000879288E-1,3.929185569E-1,4.944552346E-1
8.402231770E-1,-1.596674919E-1,-2.875690460E-1,6.720768809E-1,7.482492887E-1
8.484364460E-1,-2.174038887E-1,-2.625598907E-1,6.798503995E-1,7.605252874E-1
8.566755610E-1,-3.385257721E-1,-1.986007690E-1,5.800877213E-1,7.003882697E-1
8.648893690E-1,-3.988952637E-1,-6.473636627E-2,3.924962282E-1,5.633484869E-1
8.731436380E-1,-4.803118706E-1,1.509485245E-1,1.670463681E-1,5.304615341E-1
8.813555990E-1,-6.615209579E-1,3.194246292E-1,-9.711712599E-2,7.409951469E-1
8.895749840E-1,-8.205585480E-1,3.640079498E-1,-2.729334235E-1,9.382487793E-1
8.977868300E-1,-8.981037140E-1,2.316427231E-1,-3.256955743E-1,9.830189415E-1
9.059994840E-1,-8.918495178E-1,1.064548492E-1,-2.288362384E-1,9.268733578E-1
9.142690990E-1,-9.474563599E-1,6.995677948E-2,-1.295320988E-1,9.588253592E-1
9.224830610E-1,-1.040622711E0,1.367225647E-1,-5.615442991E-2,1.051067080E0
9.306951760E-1,-1.136188984E0,1.843261719E-1,-7.718932629E-2,1.153628942E0
9.389342150E-1,-1.236450672E0,2.321043015E-1,-1.854480505E-1,1.271642108E0
9.471454070E-1,-1.346942425E0,2.784442902E-1,-4.529779553E-1,1.448093280E0
9.553967150E-1,-1.430517197E0,1.959972382E-1,-7.611380816E-1,1.632214920E0
9.636077910E-1,-1.539355278E0,2.086830139E-2,-9.219400287E-1,1.794442413E0
9.718303680E-1,-1.658286572E0,-2.250318527E-1,-9.339827299E-1,1.916475261E0
9.800409450E-1,-1.715296745E0,-5.763254166E-1,-9.292379022E-1,2.034177227E0
9.882510220E-1,-1.765852928E0,-1.003726482E0,-7.681400776E-1,2.171576062E0
9.965166760E-1,-1.795966625E0,-1.382657051E0,-6.079527736E-1,2.346666405E0
1.004728061E0,-1.827331066E0,-1.625861168E0,-4.248164296E-1,2.482545541E0
1.012958868E0,-1.822464943E0,-1.811608315E0,-2.684504390E-1,2.583673507E0
1.021196599E0,-1.925187111E0,-1.904000759E0,-2.379471660E-1,2.718121255E0
1.029408484E0,-1.969893456E0,-1.914790630E0,-2.844254375E-1,2.761847428E0
1.037660676E0,-1.989568710E0,-1.933429241E0,-4.096162915E-1,2.804339100E0
1.045874060E0,-1.980598450E0,-1.910160065E0,-6.535893083E-1,2.828190353E0
1.054091830E0,-2.010647297E0,-1.835726738E0,-8.272729516E-1,2.845518537E0
1.062303483E0,-2.017708778E0,-1.715716362E0,-9.462091327E-1,2.812497657E0
1.070514522E0,-1.977246284E0,-1.683979034E0,-1.055486917E0,2.803451603E0
1.078822676E0,-2.073416710E0,-1.617412567E0,-1.098333836E0,2.849810078E0
1.087033329E0,-2.168168068E0,-1.552509785E0,-1.011350393E0,2.852028930E0
1.095243676E0,-2.211397648E0,-1.528571129E0,-9.055840373E-1,2.836704373E0
1.103482329E0,-2.261730194E0,-1.569447517E0,-8.417389393E-1,2.878734691E0
1.111693483E0,-2.302960873E0,-1.602142811E0,-7.553867698E-1,2.905357042E0
1.119944676E0,-2.302941799E0,-1.678824902E0,-6.199789643E-1,2.916567828E0
1.128156175E0,-2.324915886E0,-1.664749146E0,-5.120619535E-1,2.904966616E0
1.136379791E0,-2.399754524E0,-1.595725536E0,-5.014815331E-1,2.925174438E0
1.144591175E0,-2.500905514E0,-1.466862679E0,-4.448086023E-1,2.933269370E0
1.152801868E0,-2.594854832E0,-1.214731216E0,-4.939361215E-1,2.907372769E0
1.161070175E0,-2.615746021E0,-1.112765312E0,-6.073208451E-1,2.906752913E0
1.169281291E0,-2.649344921E0,-1.027925491E0,-6.997781992E-1,2.926661725E0
1.177493560E0,-2.664790154E0,-9.843573570E-1,-6.812363267E-1,2.921326565E0
1.185733060E0,-2.619113922E0,-9.773049355E-1,-7.236021161E-1,2.887643104E0
1.193943637E0,-2.598207951E0,-1.023435116E0,-8.969380856E-1,2.933019250E0
1.202196060E0,-2.447799683E0,-1.105520248E0,-1.039128304E0,2.879876028E0
1.210408444E0,-2.317994118E0,-1.135925770E0,-1.113535643E0,2.811296091E0
1.218629329E0,-2.250521183E0,-1.126504421E0,-1.172215104E0,2.776318796E0
1.226842175E0,-2.140214443E0,-1.157279491E0,-1.196325541E0,2.711274328E0
1.235054867E0,-2.136247158E0,-1.034629345E0,-1.081048012E0,2.608193744E0
1.243325714E0,-2.307823181E0,-8.159060478E-1,-8.679043055E-1,2.597115399E0
1.251537637E0,-2.472485542E0,-5.441169739E-1,-6.289032698E-1,2.608594902E0
1.259769790E0,-2.596408367E0,-2.584819794E-1,-5.366492867E-1,2.663858442E0
1.268006829E0,-2.669347763E0,1.814842224E-3,-4.877630472E-1,2.713546308E0
1.276214675E0,-2.647097588E0,2.241172791E-1,-5.036036372E-1,2.703880696E0
1.284469213E0,-2.553752899E0,3.125572205E-1,-6.202297807E-1,2.646512964E0
1.292678790E0,-2.472528458E0,3.344545364E-1,-8.217214346E-1,2.626877029E0
1.300901867E0,-2.414536476E0,3.020467758E-1,-9.888652563E-1,2.626608677E0
1.309148752E0,-2.321663857E0,2.059316635E-1,-1.117305994E0,2.584744397E0
1.317357136E0,-2.247866631E0,7.534408569E-2,-1.429339886E0,2.664881541E0
1.325605636E0,-1.957944393E0,-1.661128998E-1,-2.127955914E0,2.896435070E0
1.333842675E0,-1.633001804E0,-4.482121468E-1,-2.542817593E0,3.055079431E0
1.342053905E0,-1.564333439E0,-4.693331718E-1,-2.441073656E0,2.937048404E0
1.350290405E0,-1.791998863E0,-2.692427635E-1,-1.924538612E0,2.643406980E0
1.358500059E0,-2.162783623E0,1.733779907E-3,-1.256268978E0,2.501169277E0
1.366711482E0,-2.434192181E0,2.711353302E-1,-7.649275064E-1,2.565915047E0
1.374920790E0,-2.611126900E0,5.470314026E-1,-2.892931104E-1,2.683452542E0
1.383158559E0,-2.682035446E0,7.717170715E-1,-2.762830257E-2,2.790989913E0
1.391368213E0,-2.778832912E0,9.259362221E-1,-1.922848821E-1,2.935343884E0
1.399579444E0,-2.822552681E0,1.005298138E0,-3.970552087E-1,3.022429622E0
1.407814059E0,-2.669167995E0,9.695696831E-1,-3.444529176E-1,2.860624227E0
1.416052405E0,-2.254673004E0,7.443733215E-1,-2.249719501E-1,2.385006158E0
1.424264636E0,-1.869573593E0,3.765153885E-1,-2.678506970E-1,1.925827940E0
1.432500867E0,-1.482350826E0,-2.112674713E-2,-3.877466321E-1,1.532369982E0
1.440712059E0,-1.153600693E0,-2.939333916E-1,-3.485848904E-1,1.240444607E0
1.448953867E0,-7.744293213E-1,-4.743084908E-1,-2.709873319E-1,9.477043063E-1
1.457165482E0,-3.610873222E-1,-4.681296349E-1,-2.387794852E-1,6.376088549E-1
1.465390828E0,-8.307266235E-2,-2.414641380E-1,-1.998614669E-1,3.242693373E-1
1.473600482E0,1.114940643E-2,2.388510704E-1,-1.554232240E-1,2.851850656E-1
1.481810097E0,5.049562454E-2,9.946365356E-1,-5.407118797E-2,9.973842487E-1
1.490058174E0,-1.109313965E-2,1.812909126E0,1.577753425E-1,1.819795488E0
1.498295828E0,-1.287345886E-1,2.674629211E0,4.108523130E-1,2.709061394E0
1.506526828E0,-2.733688354E-1,3.384289265E0,5.882698298E-1,3.445896943E0
1.514762212E0,-2.696037292E-1,3.770219803E0,7.802379131E-1,3.859535559E0
1.522970982E0,-1.465244293E-1,3.936975002E0,1.016364336E0,4.068689966E0
1.531194482E0,-2.351284027E-3,3.859765530E0,1.231792808E0,4.051556367E0
1.539403097E0,1.202254295E-1,3.626284122E0,1.461110592E0,3.911423635E0
1.547646751E0,3.735013008E-1,3.246654034E0,1.694944024E0,3.681453637E0
1.555856328E0,6.657452583E-1,2.738202572E0,1.965840578E0,3.435913161E0
1.564066328E0,9.413352013E-1,2.202249527E0,2.282220602E0,3.308254195E0
1.572305520E0,1.251088619E0,1.634010792E0,2.562726974E0,3.286758821E0
1.580542789E0,1.586622715E0,1.261572838E0,2.680926800E0,3.360997794E0
1.588753597E0,1.902194500E0,9.459986687E-1,2.665319920E0,3.408399576E0
1.596991828E0,2.208183289E0,6.367573738E-1,2.491584778E0,3.389620642E0
1.605203635E0,2.552047729E0,4.584865570E-1,2.157601357E0,3.373188573E0
1.613436020E0,2.852652073E0,4.237794876E-1,1.846090317E0,3.424217043E0
1.621646943E0,3.089790344E0,5.457820892E-1,1.573662758E0,3.510142011E0
1.629872443E0,3.356137753E0,7.491974831E-1,1.317343473E0,3.682438229E0
1.638083097E0,3.540244579E0,9.184460640E-1,1.121746063E0,3.825596566E0
1.646294904E0,3.655389309E0,1.172296047E0,9.601725340E-1,3.957029229E0
1.654541520E0,3.786588669E0,1.392361641E0,8.303630352E-1,4.119032345E0
1.662781135E0,3.850611210E0,1.638564110E0,7.529589534E-1,4.251946168E0
1.670992596E0,3.866181374E0,1.917102337E0,7.749906778E-1,4.384432727E0
1.679229981E0,3.871978283E0,2.117390633E0,9.000293016E-1,4.503955113E0
1.687440596E0,3.796168804E0,2.272283554E0,1.085606217E0,4.555514351E0
1.695680789E0,3.765426159E0,2.378268719E0,1.338745117E0,4.650466078E0
1.703890443E0,3.731856346E0,2.474998951E0,1.500140429E0,4.722583287E0
1.712106327E0,3.679253101E0,2.526614189E0,1.655919075E0,4.760541002E0
1.720314981E0,3.667581081E0,2.551780701E0,1.725080729E0,4.789429951E0
1.728523519E0,3.658963203E0,2.509908199E0,1.691564918E0,4.748583237E0
1.736771019E0,3.752004147E0,2.375266075E0,1.591447949E0,4.717216406E0
1.745008635E0,3.815617085E0,2.268648148E0,1.483247042E0,4.680354681E0
1.753239481E0,3.871790409E0,2.152476788E0,1.384044886E0,4.641066423E0
1.761478635E0,3.863326550E0,2.113618851E0,1.290224552E0,4.588829488E0
1.769687327E0,3.778415680E0,2.104790211E0,1.208099723E0,4.490664964E0
1.777927519E0,3.715202808E0,2.147607803E0,1.188304901E0,4.452754173E0
1.786136981E0,3.621128082E0,2.239880085E0,1.218986988E0,4.428945773E0
1.794362750E0,3.536653519E0,2.367166996E0,1.203162909E0,4.422555673E0
1.802574365E0,3.502387047E0,2.452984810E0,1.170702100E0,4.433327521E0
1.810785481E0,3.436587811E0,2.540001869E0,1.059616566E0,4.402786906E0
1.819034442E0,3.360558510E0,2.685211658E0,1.067879915E0,4.432164557E0
1.827272904E0,3.231006622E0,2.864588737E0,1.119520783E0,4.460784596E0
1.835483557E0,3.056795597E0,3.088936329E0,1.158444047E0,4.497501482E0
1.843723250E0,2.887643337E0,3.261335850E0,1.141640782E0,4.503125497E0
1.851935903E0,2.696709156E0,3.421758652E0,1.137555003E0,4.502744044E0
1.860177596E0,2.509532452E0,3.569091797E0,1.065997243E0,4.491382805E0
1.868388442E0,2.278205395E0,3.583956718E0,9.293202162E-1,4.347252195E0
1.876606096E0,2.087885380E0,3.583681107E0,8.573814631E-1,4.235225921E0
1.884818365E0,1.883707047E0,3.463572979E0,7.787164450E-1,4.018841788E0
1.893029365E0,1.778640747E0,3.219745159E0,6.501771212E-1,3.735378439E0
1.901253519E0,1.692282200E0,2.865209103E0,5.469383597E-1,3.372296519E0
1.909492173E0,1.594376087E0,2.578691006E0,3.520517349E-1,3.052150526E0
1.917703288E0,1.537541866E0,2.499351025E0,1.807171702E-1,2.939974359E0
1.925941634E0,1.423053265E0,2.584345818E0,3.614807129E-2,2.950462774E0
1.934155172E0,1.287950516E0,2.792207241E0,-3.991758823E-2,3.075196127E0
1.942399672E0,9.924802780E-1,2.897454739E0,-7.237255573E-2,3.063576154E0
1.950613480E0,6.906366348E-1,3.123695850E0,-2.585779428E-1,3.209566525E0
1.958826249E0,3.915815353E-1,3.271158218E0,-3.986918926E-1,3.318548992E0
1.967038595E0,1.202092171E-1,3.261567116E0,-3.716899157E-1,3.284878034E0
1.975251057E0,-3.290843964E-2,3.099321365E0,-1.761667728E-1,3.104498450E0
1.983487903E0,-1.925220490E-1,2.812858582E0,9.052073956E-2,2.820892083E0
1.991725941E0,-4.241280556E-1,2.439785957E0,2.698842883E-1,2.491039473E0
1.999957018E0,-6.123871803E-1,1.947243214E0,3.431225419E-1,2.069905136E0
2.008195557E0,-6.851725578E-1,1.249587059E0,2.886989117E-1,1.454055127E0
2.016406364E0,-6.167483330E-1,4.875698090E-1,1.698567867E-1,8.043346025E-1
2.024647287E0,-4.633054733E-1,-4.334130287E-1,9.021979570E-2,6.408107573E-1
2.032857826E0,-2.582650185E-1,-1.307544708E0,3.276240826E-2,1.333209421E0
2.041102941E0,-1.857376099E-2,-2.044624329E0,7.715749741E-2,2.046163950E0
2.049313057E0,1.473321915E-1,-2.538649082E0,1.409808397E-1,2.546825776E0
2.057524980E0,2.797722816E-1,-2.745636940E0,1.297066212E-1,2.762900386E0
2.065760480E0,2.035136223E-1,-2.532258511E0,8.068394661E-2,2.541704322E0
2.073998710E0,-3.658533096E-2,-2.141654491E0,-7.367837429E-2,2.143233760E0
2.082208710E0,-2.408537865E-1,-1.488918781E0,-2.901338339E-1,1.535925560E0
2.090445980E0,-4.625377655E-1,-8.738660812E-1,-4.606523514E-1,1.090772067E0
2.098656864E0,-7.535257339E-1,-6.320428848E-2,-5.666717887E-1,9.449405960E-1
2.106883556E0,-1.053781033E0,6.228675842E-1,-5.020607710E-1,1.323058392E0
2.115094287E0,-1.306976318E0,1.159716129E0,-3.042476773E-1,1.773610793E0
2.123309249E0,-1.582747459E0,1.500700951E0,-6.798690557E-2,2.182158354E0
2.131519479E0,-1.831581116E0,1.604643822E0,2.289814949E-1,2.445813505E0
2.139730018E0,-2.006584644E0,1.628882408E0,4.376812577E-1,2.621298289E0
2.147963479E0,-2.077103615E0,1.537135124E0,6.689975858E-1,2.669213664E0
2.156204325E0,-2.079864502E0,1.265749931E0,8.035516143E-1,2.563913889E0
2.164418441E0,-2.086647034E0,9.008159637E-1,7.984113693E-1,2.408947064E0
2.172658248E0,-2.005044460E0,4.764080048E-1,7.402537465E-1,2.189781606E0
2.180871325E0,-1.856328964E0,-5.336761475E-3,6.897680163E-1,1.980344824E0
2.189116671E0,-1.710793018E0,-4.337377548E-1,6.627484560E-1,1.885252425E0
2.197329941E0,-1.507250786E0,-8.178501129E-1,5.853910446E-1,1.812006185E0
2.205548787E0,-1.321319103E0,-1.092526436E0,4.527677596E-1,1.773272915E0
2.213759402E0,-1.166067123E0,-1.333596230E0,2.511550188E-1,1.789209402E0
2.221970402E0,-9.953846931E-1,-1.600466251E0,2.971041203E-2,1.884984249E0
2.230220864E0,-8.542666435E-1,-1.804220200E0,-2.180603147E-1,2.008116612E0
2.238461556E0,-6.832289696E-1,-2.016710758E0,-5.116299391E-1,2.189906231E0
2.246694171E0,-5.800709724E-1,-2.131175041E0,-6.760877967E-1,2.309866684E0
2.254933017E0,-5.665273666E-1,-2.146743774E0,-7.664040923E-1,2.348794866E0
2.263193979E0,-6.305131912E-1,-2.099088669E0,-7.784045339E-1,2.325861935E0
2.271437979E0,-7.007236481E-1,-2.067401409E0,-6.843464971E-1,2.287682746E0
2.279678056E0,-8.485903740E-1,-2.053659439E0,-5.655234456E-1,2.292910701E0
2.287889633E0,-1.009534836E0,-1.983716965E0,-4.458738565E-1,2.270043409E0
2.296127633E0,-1.187659264E0,-1.838033199E0,-3.466504216E-1,2.215641461E0
2.304341133E0,-1.375899792E0,-1.695641994E0,-3.026958108E-1,2.204524158E0
2.312582517E0,-1.514198780E0,-1.577965260E0,-2.966670990E-1,2.206985200E0
2.320794363E0,-1.663116932E0,-1.442346573E0,-3.261368871E-1,2.225463285E0
2.329019825E0,-1.772328377E0,-1.296003342E0,-3.271840811E-1,2.219869807E0
2.337231748E0,-1.873105049E0,-1.146191597E0,-2.707818151E-1,2.212600392E0
2.345442979E0,-1.961130619E0,-9.908275604E-1,-1.837728024E-1,2.204891154E0
2.353693325E0,-1.995841980E0,-8.683109283E-1,-1.358998418E-1,2.180783768E0
2.361931632E0,-2.088611126E0,-7.420501709E-1,-2.063853741E-1,2.226101933E0
2.370144786E0,-2.195803642E0,-5.820889473E-1,-3.103244305E-1,2.292745610E0
2.378386171E0,-2.346522331E0,-3.959474564E-1,-3.727440238E-1,2.408709104E0
2.386598286E0,-2.509688377E0,-2.004747391E-1,-3.920722008E-1,2.548027960E0
2.394841363E0,-2.661639214E0,-2.461719513E-2,-4.072229862E-1,2.692723504E0
2.403053709E0,-2.791139126E0,1.215543747E-1,-3.685626984E-1,2.817990693E0
2.411275940E0,-2.913016796E0,2.110099792E-1,-2.939072251E-1,2.935400062E0
2.419486940E0,-2.996105194E0,2.173357010E-1,-1.613254547E-1,3.008306341E0
2.427698132E0,-3.072554111E0,2.438478470E-1,-8.722794056E-2,3.083449246E0
2.435932209E0,-3.123219967E0,2.138910294E-1,-1.685059071E-2,3.130580821E0
2.444170170E0,-3.186212063E0,1.682834625E-1,2.101618052E-2,3.190722224E0
2.452380709E0,-3.134945869E0,8.289813995E-2,5.272650719E-2,3.136484942E0
2.460617978E0,-2.949095249E0,-8.709335327E-2,1.376294494E-1,2.953589326E0
2.468829324E0,-2.835961342E0,-2.787923813E-1,2.043249011E-1,2.856947775E0
2.477071478E0,-2.712384701E0,-4.001593590E-1,1.878337860E-1,2.748170266E0
2.485282516E0,-2.592560768E0,-4.774236679E-1,1.570429206E-1,2.640826987E0
2.493513132E0,-2.480168343E0,-5.578832626E-1,1.580392718E-1,2.547046359E0
2.501725439E0,-2.430470943E0,-6.249227524E-1,1.414020061E-1,2.513505914E0
2.509935978E0,-2.264964581E0,-6.288151741E-1,8.047258854E-2,2.352009548E0
2.518184132E0,-2.097236633E0,-6.204261780E-1,-1.598197222E-2,2.187140956E0
2.526422516E0,-1.846947193E0,-4.542388916E-1,-7.869011164E-2,1.903612103E0
2.534633247E0,-1.663313389E0,-6.875038147E-3,-9.752547741E-2,1.666184238E0
2.542871285E0,-1.715001106E0,5.705995560E-1,-2.370744944E-1,1.822914415E0
2.551082132E0,-1.815470695E0,1.172939301E0,-5.827058554E-1,2.238585840E0
2.559307324E0,-1.922566414E0,1.695273399E0,-1.081310034E0,2.781985784E0
2.567520285E0,-1.973593235E0,2.120341301E0,-1.553724051E0,3.287092319E0
2.575763978E0,-1.906068325E0,2.333972931E0,-1.630340099E0,3.426154541E0
2.583975747E0,-1.776030064E0,2.215721130E0,-1.679046869E0,3.298924265E0
2.592187785E0,-1.624992371E0,1.728983402E0,-1.684797049E0,2.910073007E0
2.600423131E0,-1.435032845E0,1.116153717E0,-1.657689095E0,2.460295007E0
2.608661554E0,-1.147396564E0,3.347845078E-1,-1.430585742E0,1.864182155E0
2.616872516E0,-7.648315430E-1,-4.038209915E-1,-9.835892916E-1,1.309765848E0
2.625110631E0,-4.968528748E-1,-9.366202354E-1,-5.310355425E-1,1.185798883E0
2.633321670E0,-3.425345421E-1,-1.213140488E0,-2.478300035E-1,1.284702092E0
2.641556247E0,-2.638940811E-1,-1.293840885E0,-4.464900494E-2,1.321233460E0
2.649770247E0,-1.822886467E-1,-1.195456028E0,4.132804275E-2,1.209980278E0
2.657987093E0,-7.426261902E-2,-8.630194664E-1,8.219605684E-2,8.700998378E-1
2.666199785E0,-1.608467102E-2,-3.959946632E-1,8.364623785E-2,4.050520745E-1
2.674411554E0,7.542133331E-3,2.430686951E-1,6.159693003E-2,2.508654143E-1
2.682666016E0,9.546232224E-2,1.024364948E0,1.111587882E-2,1.028863531E0
2.690905439E0,1.523909569E-1,1.805202484E0,3.761982918E-2,1.812013870E0
2.699144862E0,1.425385475E-1,2.499873161E0,2.949845791E-2,2.504107270E0
2.707383977E0,1.151046753E-1,3.045527935E0,1.103506982E-1,3.049699455E0
2.715594554E0,3.464221954E-3,3.330537796E0,2.542091310E-1,3.340226982E0
2.723848862E0,-3.873014450E-2,3.372199059E0,4.678244591E-1,3.404715295E0
2.732059246E0,3.972816467E-2,3.204627037E0,7.944020629E-1,3.301861204E0
2.740291285E0,2.801637650E-1,2.832752705E0,1.247529864E0,3.107943111E0
2.748501862E0,4.857363701E-1,2.434865475E0,1.581104755E0,2.943535620E0
2.756711977E0,6.511483192E-1,1.966561794E0,1.944441795E0,2.841164078E0
2.764960477E0,8.715968132E-1,1.563361645E0,2.238450527E0,2.866084681E0
2.773198554E0,1.143298149E0,1.220564365E0,2.408410072E0,2.932123310E0
2.781409477E0,1.446258068E0,9.275112152E-1,2.348564625E0,2.909930455E0
2.789647938E0,1.745209217E0,7.487711906E-1,2.123381138E0,2.848712159E0
2.797857246E0,2.014187336E0,7.016558647E-1,1.868701935E0,2.835721865E0
2.806086977E0,2.336060524E0,7.232770920E-1,1.596490622E0,2.920460722E0
2.814297054E0,2.657222271E0,7.893581390E-1,1.356163859E0,3.085951536E0
2.822521592E0,2.852291107E0,9.431786537E-1,1.145201087E0,3.215063928E0
2.830732784E0,2.994167805E0,1.115163803E0,1.083258271E0,3.373733782E0
2.838944361E0,3.110522270E0,1.258873463E0,1.142356873E0,3.544727128E0
2.847187861E0,3.250759125E0,1.488380909E0,1.267820954E0,3.793426234E0
2.855427130E0,3.307821751E0,1.705731392E0,1.461247563E0,3.998305736E0
2.863639707E0,3.384829998E0,1.889567852E0,1.545541406E0,4.173276772E0
2.871878323E0,3.437520504E0,2.004533291E0,1.564648151E0,4.275841995E0
2.880090976E0,3.499308586E0,2.141067982E0,1.596256733E0,4.401973221E0
2.888332861E0,3.553228855E0,2.236149788E0,1.679520249E0,4.521790512E0
2.896544284E0,3.600968361E0,2.367301941E0,1.796097875E0,4.668732075E0
2.904769323E0,3.648323536E0,2.375176430E0,1.873887181E0,4.739533823E0
2.912979092E0,3.682993412E0,2.428687572E0,1.894221067E0,4.801149576E0
2.921190669E0,3.716766834E0,2.515175819E0,1.992562056E0,4.910271749E0
2.929441515E0,3.732779026E0,2.641461372E0,2.053848505E0,5.012908449E0
2.937679899E0,3.821223259E0,2.696271420E0,2.016319513E0,5.092854911E0
2.945890553E0,3.946547985E0,2.711508274E0,1.848145366E0,5.132558759E0
2.954128399E0,4.032036781E0,2.692190647E0,1.627923965E0,5.114229905E0
2.962339745E0,4.091604233E0,2.707301140E0,1.462169170E0,5.119437796E0
2.970580707E0,4.194702148E0,2.764451504E0,1.276303530E0,5.183306756E0
2.978791938E0,4.226870537E0,2.840668201E0,1.131700516E0,5.216950874E0
2.987023168E0,4.154056549E0,2.945150375E0,9.871873856E-1,5.186967850E0
2.995233207E0,4.067083359E0,2.970069408E0,1.006197810E0,5.135651212E0
3.003443399E0,4.004447460E0,2.951461315E0,1.020339131E0,5.078170468E0
3.011691745E0,3.877672672E0,2.965694904E0,1.132868290E0,5.011495005E0
3.019928899E0,3.689157963E0,2.971858978E0,1.270591021E0,4.904715466E0
3.028139245E0,3.539879322E0,2.934380531E0,1.388778448E0,4.803128178E0
3.036375937E0,3.411124229E0,2.822447300E0,1.451985717E0,4.659424835E0
3.044585937E0,3.281484127E0,2.688870907E0,1.461772442E0,4.487197734E0
3.052825476E0,3.201571465E0,2.519869804E0,1.418020248E0,4.313998736E0
3.061035937E0,3.068652630E0,2.397074699E0,1.322166324E0,4.112264566E0
3.069259168E0,2.877615452E0,2.468729496E0,1.152949572E0,3.962901554E0
3.077468553E0,2.723904133E0,2.624450207E0,1.061086178E0,3.928523449E0
3.085679860E0,2.643941879E0,2.867622375E0,1.068684340E0,4.044227116E0
3.093930245E0,2.462478161E0,3.054507256E0,1.009651661E0,4.051321975E0
3.102166976E0,2.338896275E0,3.216233730E0,9.009248018E-1,4.077531200E0
3.110377629E0,2.159836292E0,3.486939430E0,7.928998470E-1,4.177598541E0
3.118615745E0,1.978295326E0,3.783338547E0,6.913250685E-1,4.324954717E0
3.126827937E0,1.791813374E0,3.987973690E0,6.680734158E-1,4.422765131E0
3.135069399E0,1.516238213E0,4.332934856E0,7.081815600E-1,4.644870710E0
3.143281629E0,1.244851589E0,4.320089817E0,8.256085515E-1,4.571045940E0
3.151501437E0,8.037991524E-1,3.952447891E0,6.709797382E-1,4.088783587E0
3.159712399E0,6.068334579E-1,3.296421528E0,4.580973387E-1,3.382971313E0
3.167923706E0,5.023226738E-1,2.458658218E0,3.401426077E-1,2.532395170E0
3.176172206E0,5.030231476E-1,1.715238571E0,4.203472733E-1,1.836237314E0
3.184412552E0,6.059069633E-1,9.555840492E-1,6.021616459E-1,1.281742084E0
3.192643668E0,6.217813492E-1,3.114900589E-1,6.092021465E-1,9.245352121E-1
3.200881744E0,6.486349106E-1,-1.436338425E-1,5.833241940E-1,8.840956075E-1
3.209093283E0,6.920022964E-1,-3.445711136E-1,4.692114592E-1,9.042985259E-1
3.217327244E0,6.331939697E-1,-3.097639084E-1,2.197655439E-1,7.383665597E-1
3.225538898E0,4.563312531E-1,-5.770921707E-2,-5.922901630E-2,4.637635633E-1
3.233770014E0,2.226214409E-1,3.698301315E-1,-2.865711451E-1,5.181289929E-1
3.241981014E0,-1.968860626E-3,7.781014442E-1,-4.040373564E-1,8.767507738E-1
3.250191821E0,-2.329201698E-1,1.096818924E0,-5.235240459E-1,1.237473630E0
3.258440014E0,-5.060682297E-1,1.482030869E0,-5.642564893E-1,1.664603837E0
3.266678129E0,-8.132009506E-1,1.664420128E0,-5.130804777E-1,1.922197109E0
3.274889667E0,-1.094599247E0,1.617903709E0,-4.152765274E-1,1.997051456E0
3.283129667E0,-1.299695969E0,1.383924961E0,-2.775830030E-1,1.918726200E0
3.291341898E0,-1.306085587E0,1.159488678E0,-6.784313917E-2,1.747820427E0
3.299584552E0,-1.387439251E0,7.494378090E-1,2.859884501E-1,1.602633488E0
3.307798167E0,-1.323977947E0,2.367229462E-1,5.760480762E-1,1.463142763E0
3.316022898E0,-1.244915962E0,-2.947735786E-1,7.233785987E-1,1.469688339E0
3.324234744E0,-1.210237980E0,-7.308897972E-1,7.043068409E-1,1.579532839E0
3.332446821E0,-1.112214565E0,-1.129940987E0,5.397937298E-1,1.674862724E0
3.340697206E0,-1.026962757E0,-1.374550343E0,2.715238631E-1,1.737171942E0
3.348936859E0,-9.158811569E-1,-1.577948570E0,-4.992401600E-2,1.825171880E0
3.357149167E0,-8.270587921E-1,-1.668588161E0,-3.566285372E-1,1.896153109E0
3.365389590E0,-8.891968727E-1,-1.634295464E0,-6.412178874E-1,1.967931178E0
3.373602436E0,-9.338583946E-1,-1.581605911E0,-8.177016973E-1,2.010523520E0
3.381839128E0,-9.385604858E-1,-1.554671764E0,-9.099074602E-1,2.031214333E0
3.390051128E0,-9.759449959E-1,-1.515786171E0,-9.010755420E-1,2.015443744E0
3.398275667E0,-1.116163254E0,-1.434327126E0,-8.628268242E-1,2.011861039E0
3.406489167E0,-1.232850552E0,-1.315396786E0,-8.084112406E-1,1.975782863E0
3.414701513E0,-1.431498051E0,-1.197440624E0,-7.186746001E-1,1.999885971E0
3.422952205E0,-1.590425491E0,-1.152592182E0,-6.488912106E-1,2.068569986E0
3.431190321E0,-1.654737473E0,-1.180999279E0,-6.519216895E-1,2.134927935E0
3.439402359E0,-1.673167706E0,-1.307195187E0,-5.731889009E-1,2.199271457E0
3.447547551E0,-1.700059891E0,-1.396699429E0,-5.162932873E-1,2.259984886E0
3.455759320E0,-1.739045143E0,-1.453582764E0,-4.232459068E-1,2.305714197E0
3.464003090E0,-1.771202564E0,-1.410935402E0,-4.751765430E-1,2.313804222E0
3.472214513E0,-1.831148148E0,-1.349331379E0,-5.457961559E-1,2.339164841E0
3.480446282E0,-1.933723450E0,-1.276284695E0,-6.066867113E-1,2.395048594E0
3.488658551E0,-1.943253040E0,-1.137467384E0,-6.941632628E-1,2.356252759E0
3.496871320E0,-2.000743389E0,-9.293761253E-1,-7.499226332E-1,2.330042499E0
3.505120359E0,-2.026250362E0,-7.535848618E-1,-7.979927659E-1,2.304424685E0
3.513358782E0,-2.041162968E0,-5.502829552E-1,-8.198224306E-1,2.267436087E0
3.521569551E0,-2.121616840E0,-4.009890556E-1,-8.557415009E-1,2.322572659E0
3.529806859E0,-2.153880119E0,-3.016872406E-1,-9.304668903E-1,2.365583098E0
3.538017359E0,-2.185197830E0,-2.568082809E-1,-9.515189528E-1,2.397170909E0
3.546258051E0,-2.234461784E0,-2.111597061E-1,-9.485200644E-1,2.436616137E0
3.554467859E0,-2.306006908E0,-2.171516418E-1,-9.075353742E-1,2.487658166E0
3.562691820E0,-2.323012829E0,-2.291841507E-1,-7.881445289E-1,2.463754407E0
3.570902974E0,-2.384882450E0,-2.178287506E-1,-6.221346855E-1,2.474300958E0
3.579112205E0,-2.458010674E0,-2.332849503E-1,-5.503129959E-1,2.529640831E0
3.587360089E0,-2.453486443E0,-2.944550514E-1,-4.855971038E-1,2.518353440E0
3.595597974E0,-2.399836063E0,-3.557224274E-1,-4.093056321E-1,2.460341984E0
3.603809858E0,-2.337208748E0,-4.167079926E-1,-3.596761823E-1,2.401157479E0
3.612046551E0,-2.210879803E0,-4.656209946E-1,-3.390133679E-1,2.284671197E0
3.620257204E0,-2.039865494E0,-5.023241043E-1,-4.142328501E-1,2.141254210E0
3.628497974E0,-1.934891701E0,-4.265918732E-1,-4.512272477E-1,2.032090684E0
3.636708704E0,-1.821077347E0,-1.398134232E-1,-4.817968607E-1,1.888914691E0
3.644933281E0,-1.733615398E0,3.992824554E-1,-5.270520449E-1,1.855433288E0
3.653142974E0,-1.811173916E0,9.803133011E-1,-6.330357194E-1,2.154553166E0
3.661353474E0,-1.990231514E0,1.631434441E0,-8.461550474E-1,2.708981022E0
3.669585858E0,-2.196371078E0,2.195655823E0,-1.067453027E0,3.283961993E0
3.677864781E0,-2.305793762E0,2.613362312E0,-1.269703746E0,3.709244539E0
3.686093320E0,-2.400994301E0,2.898148537E0,-1.349450827E0,3.998131577E0
3.694330512E0,-2.440932274E0,3.003036499E0,-1.342403650E0,4.096147720E0
3.702541973E0,-2.368291378E0,2.690790653E0,-1.170039773E0,3.770696416E0
3.710777973E0,-2.106627464E0,1.999488354E0,-9.143208265E-1,3.044965603E0
3.718997858E0,-1.731094837E0,1.188626289E0,-6.171805859E-1,2.188705934E0
3.727229242E0,-1.360361099E0,4.424710274E-1,-2.116927505E-1,1.446090160E0
3.735466358E0,-1.013205528E0,-2.896389961E-1,1.558242142E-1,1.065249913E0
3.743688781E0,-7.829566002E-1,-8.813738823E-1,4.228127301E-1,1.252442239E0
3.751913435E0,-5.680389404E-1,-1.346276760E0,5.623615384E-1,1.565688300E0
3.760124858E0,-3.423175812E-1,-1.538363457E0,5.952952504E-1,1.684672041E0
3.768340742E0,-9.239625931E-2,-1.607203484E0,5.623819232E-1,1.705260547E0
3.776551165E0,1.784453392E-1,-1.505316734E0,4.547294080E-1,1.582592823E0
3.784762588E0,4.919147491E-1,-1.272951126E0,2.756325006E-1,1.392249247E0
3.793006088E0,7.253012657E-1,-8.790411949E-1,1.228291094E-1,1.146238343E0
3.801245165E0,9.190158844E-1,-2.774796486E-1,1.261812449E-2,9.600751888E-1
3.809457704E0,1.064766884E0,4.326376915E-1,-6.239068508E-2,1.150998039E0
3.817697242E0,1.134778500E0,1.231721401E0,-1.091887355E-1,1.678327153E0
3.825920627E0,1.126754761E0,1.945425034E0,-9.165072441E-2,2.250034379E0
3.834148357E0,1.051284313E0,2.668612480E0,-3.204345703E-3,2.868222715E0
3.842361050E0,9.295649529E-1,3.286317348E0,1.264023185E-1,3.417594221E0
3.850602857E0,8.187665939E-1,3.709927559E0,3.111024499E-1,3.811918934E0
3.858813857E0,7.355251312E-1,3.838858128E0,5.735960007E-1,3.950549495E0
3.867026011E0,7.567615509E-1,3.732995510E0,8.583055735E-1,3.904437473E0
3.875260550E0,8.614468575E-1,3.349169254E0,1.179236650E0,3.653713790E0
3.883480357E0,1.040863514E0,2.885993004E0,1.540823698E0,3.433145808E0
3.891692242E0,1.204494476E0,2.374405384E0,1.851872921E0,3.243152970E0
3.899931934E0,1.385990143E0,1.974136829E0,2.046404839E0,3.163219509E0
3.908156280E0,1.573873043E0,1.491300583E0,2.232899427E0,3.112377489E0
3.916391588E0,1.723533630E0,1.148781300E0,2.360958576E0,3.140762972E0
3.924604203E0,1.896969795E0,9.458689690E-1,2.420032263E0,3.217097864E0
3.932819742E0,2.043616772E0,8.628296852E-1,2.399277210E0,3.267625393E0
3.941032819E0,2.214275837E0,9.027295113E-1,2.275813818E0,3.301100814E0
3.949244588E0,2.313372135E0,1.058970928E0,2.075520992E0,3.283427699E0
3.957494088E0,2.400216579E0,1.259770393E0,1.880357742E0,3.299061429E0
3.965712895E0,2.488332272E0,1.490598679E0,1.655516863E0,3.339823049E0
3.973943472E0,2.604083538E0,1.699543953E0,1.507292628E0,3.455666620E0
3.982182049E0,2.715272427E0,1.969555378E0,1.408573270E0,3.638121960E0
3.990404895E0,2.799501896E0,2.127438545E0,1.364958048E0,3.771778904E0
3.998647357E0,2.836629391E0,2.236960888E0,1.298957229E0,3.838977754E0
4.006860049E0,2.923614502E0,2.306214333E0,1.356715083E0,3.963183332E0
4.015079472E0,2.969656467E0,2.313566208E0,1.484504461E0,4.046628427E0
4.023291472E0,3.044165611E0,2.270612717E0,1.621182680E0,4.129268659E0
4.031502087E0,3.085236073E0,2.222885609E0,1.808452845E0,4.210748597E0
4.039752741E0,3.141688347E0,2.173543930E0,2.020820856E0,4.321830147E0
4.047972741E0,3.165853500E0,2.182293892E0,2.163245440E0,4.411877814E0
4.056183395E0,3.179462910E0,2.239555359E0,2.261246443E0,4.498647361E0
4.064421126E0,3.165943623E0,2.347891808E0,2.314696312E0,4.570953290E0
4.072641933E0,3.194198132E0,2.489660263E0,2.265447855E0,4.640427126E0
4.080882664E0,3.282638073E0,2.642483711E0,2.116739035E0,4.715826229E0
4.089093395E0,3.339709282E0,2.805949211E0,1.899071336E0,4.757465817E0
4.097317933E0,3.374294281E0,2.895501614E0,1.699662805E0,4.760109782E0
4.105528587E0,3.471801758E0,2.955850124E0,1.493672132E0,4.798073972E0
4.113738741E0,3.557586193E0,2.948351860E0,1.313582540E0,4.803612942E0
4.121986318E0,3.658092022E0,2.911494255E0,1.162135839E0,4.817571561E0
4.130205279E0,3.719086170E0,2.954121113E0,1.094465852E0,4.874042367E0
4.138415010E0,3.668642521E0,2.985038757E0,1.093397379E0,4.854370418E0
4.146650510E0,3.578694344E0,3.018560886E0,1.119625449E0,4.813764034E0
4.154870818E0,3.528563976E0,3.042963028E0,1.279859781E0,4.832021190E0
4.163113472E0,3.393598080E0,3.005110264E0,1.476910353E0,4.767437447E0
4.171324125E0,3.344180584E0,2.912569046E0,1.558870316E0,4.700710466E0
4.179542395E0,3.294026852E0,2.820147038E0,1.632383108E0,4.633413086E0
4.187752510E0,3.293431759E0,2.665576935E0,1.612835050E0,4.533567033E0
4.195962471E0,3.342797279E0,2.509335518E0,1.538326621E0,4.453931655E0
4.204210933E0,3.351472855E0,2.301834106E0,1.371100187E0,4.290772223E0
4.212429433E0,3.326525211E0,2.143749237E0,1.133316636E0,4.116532202E0
4.220661318E0,3.338986397E0,1.984122753E0,8.736504316E-1,3.981059951E0
4.228896779E0,3.374798775E0,1.842613697E0,6.612053514E-1,3.901497728E0
4.237117433E0,3.350247860E0,1.758111000E0,4.234744310E-1,3.807157155E0
4.245357971E0,3.289515972E0,1.803006649E0,2.905465364E-1,3.762468019E0
4.253567817E0,3.210551739E0,1.974229813E0,3.427706957E-1,3.784536639E0
4.261791625E0,3.058163643E0,2.161795616E0,4.047463536E-1,3.766901215E0
4.270000779E0,2.839186668E0,2.537999630E0,4.091483951E-1,3.830120816E0
4.278211433E0,2.543324947E0,2.896265030E0,5.004711151E-1,3.886814152E0
4.286462894E0,2.276710510E0,3.230339527E0,5.417103767E-1,3.988979110E0
4.294698817E0,2.003270626E0,3.504727840E0,5.983791351E-1,4.080964105E0
4.302909240E0,1.712316036E0,3.713222504E0,6.286147237E-1,4.137052579E0
4.311147279E0,1.348170757E0,3.836007595E0,5.748223662E-1,4.106450951E0
4.319370433E0,1.050370216E0,3.730065823E0,5.251257420E-1,3.910553117E0
4.327596509E0,9.543175697E-1,3.327185154E0,4.512170255E-1,3.490627433E0
4.335807279E0,9.593520164E-1,2.830741405E0,4.004886746E-1,3.015600168E0
4.344024817E0,1.025273323E0,2.226967812E0,2.728828788E-1,2.466786591E0
4.352233817E0,1.047392845E0,1.614487171E0,2.336117625E-1,1.938601314E0
4.360443855E0,1.151143074E0,1.077721596E0,1.243926883E-1,1.581798899E0
4.368692932E0,1.167324066E0,6.769337654E-1,1.101145148E-1,1.353886998E0
4.376929394E0,1.044733047E0,5.133848190E-1,1.525824070E-1,1.174015547E0
4.385139778E0,9.258990288E-1,4.682836533E-1,3.114706874E-1,1.083324781E0
4.393377009E0,7.793059349E-1,5.217576027E-1,4.060878158E-1,1.021986326E0
4.401600855E0,5.339045525E-1,6.745262146E-1,4.317553639E-1,9.625239631E-1
4.409842894E0,3.328175545E-1,1.043498039E0,4.456400871E-1,1.182476541E0
4.418056432E0,7.314538956E-2,1.461223602E0,4.026438296E-1,1.517447435E0
4.426281201E0,-2.233777046E-1,1.940382481E0,3.218857050E-1,1.979543426E0
4.434492163E0,-5.571427345E-1,2.262841225E0,2.843418717E-1,2.347702863E0
4.442703317E0,-6.890487671E-1,2.354768276E0,2.323912978E-1,2.464493366E0
4.450939355E0,-7.436261177E-1,2.216691017E0,1.545949578E-1,2.343202610E0
4.459175855E0,-7.019567490E-1,1.948944569E0,2.110027671E-1,2.082222461E0
4.467406778E0,-5.366373062E-1,1.581641197E0,3.818330765E-1,1.713290686E0
4.475644624E0,-3.420271873E-1,1.161442280E0,4.432502389E-1,1.289341514E0
4.483866393E0,-2.055406570E-1,6.748504639E-1,4.146019816E-1,8.182694626E-1
4.492105124E0,-1.291713715E-1,2.584934235E-1,2.993330956E-1,4.160581633E-1
4.500315163E0,-8.291244507E-3,-7.712507248E-2,1.762038469E-1,1.925222512E-1
4.508531586E0,7.120227814E-2,-3.153300285E-1,9.759646654E-2,3.376801173E-1
4.516742970E0,1.317868233E-1,-4.245100021E-1,9.123802185E-2,4.537630277E-1
4.524953624E0,1.264271736E-1,-4.545578957E-1,7.458877563E-2,4.776716406E-1
4.533200009E0,6.649112701E-2,-4.633340836E-1,-3.039890528E-2,4.690667718E-1
4.541419355E0,-6.387710571E-3,-4.886574745E-1,-1.021826267E-1,4.992676832E-1
4.549629586E0,-1.287989616E-1,-5.143208504E-1,-6.950837374E-2,5.347396784E-1
4.557866278E0,-2.054190636E-1,-5.214681625E-1,-1.454591751E-3,5.604713660E-1
4.566088816E0,-3.157558441E-1,-5.247697830E-1,7.379788160E-2,6.168721145E-1
4.574328008E0,-3.834724426E-1,-6.153893471E-1,1.540200710E-1,7.412673910E-1
4.582539624E0,-4.396901131E-1,-7.549781799E-1,2.639577985E-1,9.126845934E-1
4.590761124E0,-3.514952660E-1,-8.796024323E-1,3.296689391E-1,1.002961101E0
4.598971547E0,-2.593894005E-1,-9.768137932E-1,3.204045296E-1,1.060239176E0
4.607182816E0,-2.748937607E-1,-9.693732262E-1,2.966279089E-1,1.050351916E0
4.615433085E0,-3.211479187E-1,-8.810815811E-1,2.827756107E-1,9.794910843E-1
4.623653931E0,-3.641271591E-1,-7.834353447E-1,2.322375476E-1,8.945914184E-1
4.631865547E0,-3.997182846E-1,-6.744465828E-1,1.719990969E-1,8.026435008E-1
4.640104893E0,-4.569220543E-1,-5.088005066E-1,8.098140359E-2,6.886317644E-1
4.648328124E0,-5.263853073E-1,-3.656110764E-1,1.794776320E-2,6.411513652E-1
4.656569470E0,-5.772275925E-1,-2.665748596E-1,-1.660802960E-2,6.360264742E-1
4.664780047E0,-5.713133812E-1,-2.524995804E-1,-3.430181742E-2,6.255650504E-1
4.672997854E0,-5.898494720E-1,-2.275562286E-1,1.675647497E-2,6.324436863E-1
4.681209623E0,-6.443486214E-1,-2.202472687E-1,1.118283868E-1,6.900721653E-1
4.689419777E0,-6.707124710E-1,-2.524709702E-1,2.453656197E-1,7.574965986E-1
4.697667008E0,-7.116751671E-1,-3.336286545E-1,3.999035954E-1,8.818800985E-1
4.705885393E0,-7.794804573E-1,-3.849439621E-1,5.784723759E-1,1.044223121E0
4.714115662E0,-7.799801826E-1,-3.868732452E-1,7.679232359E-1,1.160924670E0
4.722353508E0,-7.483692169E-1,-3.845710754E-1,9.664874077E-1,1.281424717E0
4.730575354E0,-6.606221199E-1,-3.325042725E-1,1.133301973E0,1.353275301E0
4.738816354E0,-5.543155670E-1,-1.559486389E-1,1.183268666E0,1.315944703E0
4.747025085E0,-5.135154724E-1,4.923725128E-2,1.138686895E0,1.250092114E0
4.755249085E0,-5.025157928E-1,2.710704803E-1,1.012996912E0,1.162825899E0
4.763458969E0,-4.674496651E-1,4.993238449E-1,9.169380665E-1,1.143944452E0
4.771667662E0,-3.735704422E-1,6.136264801E-1,8.889169693E-1,1.142919818E0
4.779916123E0,-2.447943687E-1,7.121973038E-1,8.671952486E-1,1.148554257E0
4.788135008E0,-2.011866570E-1,7.397632599E-1,8.610525131E-1,1.152882120E0
4.796362008E0,-1.513104439E-1,7.803907394E-1,9.130666256E-1,1.210617702E0
4.804600738E0,-5.687570572E-2,8.507623672E-1,1.057420969E0,1.358370552E0
4.812824546E0,2.532434464E-2,9.776268005E-1,1.298284650E0,1.625404108E0
4.821096854E0,9.766101837E-3,1.135114670E0,1.472993255E0,1.859647767E0
4.829309161E0,-2.021932602E-2,1.294294357E0,1.529804707E0,2.003973339E0
4.837528084E0,-1.132926941E-1,1.440352440E0,1.485425711E0,2.072182407E0
4.845739969E0,-1.472520828E-2,1.457404137E0,1.492215037E0,2.085892942E0
4.853949084E0,5.315065384E-2,1.480331421E0,1.438200235E0,2.064612803E0
4.862196930E0,1.111845970E-1,1.448246002E0,1.359317303E0,1.989352163E0
4.870414238E0,1.707572937E-1,1.317658424E0,1.341899395E0,1.888405614E0
4.878622853E0,3.280658722E-1,1.158934593E0,1.316668510E0,1.784481038E0
4.886858392E0,5.221867561E-1,9.904880524E-1,1.313091636E0,1.725675298E0
4.895077969E0,7.200818062E-1,7.647314072E-1,1.223753929E0,1.612732344E0
4.903317815E0,8.975834846E-1,6.036138535E-1,1.039951801E0,1.500501764E0
4.911527123E0,1.059823036E0,5.216798782E-1,8.713849783E-1,1.467885058E0
4.919750161E0,1.193627834E0,5.652313232E-1,7.347545624E-1,1.511323302E0
4.927963853E0,1.259293556E0,7.206182480E-1,6.329569221E-1,1.582954638E0
4.936177315E0,1.233548164E0,1.002737045E0,5.295857191E-1,1.675584581E0
4.944426238E0,1.109935284E0,1.318763733E0,4.331801236E-1,1.777284203E0
4.952644430E0,1.016939163E0,1.660956383E0,4.238222837E-1,1.993129874E0
4.960876430E0,9.323978424E-1,1.923537254E0,4.597374797E-1,2.186485732E0
4.969113507E0,7.331380844E-1,2.151223183E0,5.829316378E-1,2.346286838E0
4.977336392E0,5.878396034E-1,2.192244530E0,6.752100587E-1,2.367994954E0
4.985578045E0,4.897370338E-1,2.150502682E0,7.393346429E-1,2.326181390E0
4.993789199E0,4.760375023E-1,1.934185028E0,8.168667555E-1,2.152894499E0
5.002008468E0,4.926571846E-1,1.577510357E0,8.628560901E-1,1.864341884E0
5.010219622E0,5.704760551E-1,1.152146339E0,8.835089207E-1,1.559959015E0
5.018430391E0,6.107330322E-1,7.311878204E-1,9.097620845E-1,1.317306918E0
5.026680122E0,6.438312531E-1,4.283037186E-1,1.015623927E0,1.276500967E0
5.034902122E0,7.002830505E-1,1.800279617E-1,1.232294083E0,1.428759995E0
5.043115391E0,7.864379883E-1,-1.018524170E-2,1.401319981E0,1.606949326E0
5.051353084E0,7.872552872E-1,-1.335759163E-1,1.517989635E0,1.715198515E0
5.059576199E0,7.781715393E-1,-1.294612885E-1,1.510854483E0,1.704403836E0
5.067816276E0,8.048911095E-1,-5.277442932E-2,1.555144310E0,1.751887172E0
5.076027853E0,8.326172829E-1,7.650279999E-2,1.499575615E0,1.716924938E0
5.084253007E0,8.425321579E-1,3.066205978E-1,1.354402065E0,1.624278788E0
5.092463545E0,9.358534813E-1,5.335617065E-1,1.230553627E0,1.635473039E0
5.100675276E0,9.150605202E-1,7.854452133E-1,1.214152336E0,1.711264396E0
5.108924430E0,7.725601196E-1,1.028649330E0,1.262155652E0,1.802222371E0
5.117142545E0,6.914381981E-1,1.204847336E0,1.301216602E0,1.903393950E0
5.125353929E0,6.394319534E-1,1.279726982E0,1.367431998E0,1.979000920E0
5.133592622E0,5.823616982E-1,1.298291206E0,1.480016470E0,2.053084011E0
5.141815160E0,5.085148811E-1,1.248645782E0,1.695932508E0,2.166538886E0
5.150055929E0,4.981579781E-1,1.196939468E0,1.879263759E0,2.283080756E0
5.158266852E0,5.006465912E-1,1.056475639E0,2.096227169E0,2.400199185E0
5.166484045E0,4.664673805E-1,8.851594925E-1,2.228767395E0,2.443052035E0
5.174693045E0,4.510045052E-1,6.614742279E-1,2.332773209E0,2.466330079E0
5.182902237E0,4.068760872E-1,4.191036224E-1,2.301630259E0,2.374594248E0
5.191149237E0,3.607192039E-1,2.299385071E-1,2.354788303E0,2.393327812E0
5.199367083E0,2.770051956E-1,5.568790436E-2,2.356455803E0,2.373334568E0
5.207597006E0,1.799006462E-1,-1.562538147E-1,2.313428879E0,2.325668221E0
5.215832429E0,1.077184677E-1,-3.794364929E-1,2.243702412E0,2.278107950E0
5.224053814E0,9.417533875E-2,-5.396900177E-1,2.203045845E0,2.270142133E0
5.232294391E0,6.351757050E-2,-6.458501816E-1,2.161581516E0,2.256898666E0
5.240506352E0,-5.969905853E-2,-6.726040840E-1,2.059855938E0,2.167710017E0
5.248732237E0,-1.438179016E-1,-7.345957756E-1,1.903058290E0,2.044980538E0
5.256942660E0,-2.205100060E-1,-7.554082870E-1,1.774224997E0,1.940912332E0
5.265153775E0,-3.590750694E-1,-7.084469795E-1,1.694290757E0,1.871217037E0
5.273403275E0,-4.693713188E-1,-6.013164520E-1,1.655005932E0,1.822343421E0
5.281624121E0,-6.322565079E-1,-5.293879509E-1,1.575466037E0,1.778227524E0
5.289835660E0,-7.663145065E-1,-5.070767403E-1,1.596404552E0,1.841975092E0
5.298074429E0,-9.026689529E-1,-4.410634041E-1,1.542447090E0,1.840785482E0
5.306297698E0,-1.005395412E0,-4.343805313E-1,1.491600513E0,1.850507626E0
5.314539890E0,-1.083453655E0,-2.904376984E-1,1.387661695E0,1.784329247E0
5.322752429E0,-1.182136059E0,-1.814832687E-1,1.321713686E0,1.782500745E0
5.330972736E0,-1.191444874E0,-1.660919189E-2,1.255555153E0,1.730963747E0
5.339187159E0,-1.209106445E0,2.020177841E-1,1.248646259E0,1.749819151E0
5.347398544E0,-1.296667099E0,5.251750946E-1,1.284854650E0,1.899475169E0
5.355648582E0,-1.483603954E0,9.023380280E-1,1.399418592E0,2.230171968E0
5.363887005E0,-1.682545185E0,1.289799690E0,1.324851394E0,2.499954551E0
5.372098929E0,-2.011816502E0,1.591416359E0,1.230085969E0,2.844841499E0
5.380337698E0,-2.333379745E0,1.629246712E0,1.157771587E0,3.072383591E0
5.388560505E0,-2.542169571E0,1.447134972E0,1.085392118E0,3.120080416E0
5.396788159E0,-2.592324257E0,1.050968170E0,1.088164687E0,3.001463232E0
5.404999390E0,-2.322747707E0,3.378696442E-1,1.175146699E0,2.624934775E0
5.413238582E0,-1.982613564E0,-2.983551025E-1,1.268525362E0,2.372536386E0
5.421450813E0,-1.730893612E0,-9.539518356E-1,1.330683351E0,2.382589973E0
5.429664467E0,-1.365214825E0,-1.454666615E0,1.348970771E0,2.408233506E0
5.437902505E0,-1.123570442E0,-1.838736534E0,1.152898550E0,2.443877584E0
5.446124351E0,-8.884072304E-1,-2.002207756E0,8.055439591E-1,2.333881826E0
5.454355351E0,-8.260817528E-1,-1.893211842E0,4.478895068E-1,2.113591055E0
5.462593390E0,-8.226480484E-1,-1.609204769E0,1.216661930E-1,1.811378608E0
5.470815967E0,-7.782068253E-1,-1.291400433E0,-2.507740259E-1,1.528466078E0
5.479054428E0,-6.953563690E-1,-1.078292370E0,-6.627554893E-1,1.444119023E0
5.487267043E0,-6.431469917E-1,-9.610137939E-1,-1.047167540E0,1.560046609E0
5.495518890E0,-6.104049683E-1,-9.205703735E-1,-1.519551158E0,1.878584510E0
5.503732851E0,-5.629844666E-1,-1.105045795E0,-1.742284536E0,2.138605416E0
5.511947274E0,-4.658422470E-1,-1.408154964E0,-1.642912269E0,2.213384315E0
5.520192889E0,-4.699988365E-1,-1.630106926E0,-1.406809926E0,2.203919614E0
5.528432928E0,-5.534563065E-1,-1.829098225E0,-1.061859131E0,2.186197386E0
5.536646889E0,-6.885852814E-1,-1.930152893E0,-5.811237097E-1,2.130104375E0
5.544888928E0,-9.410409927E-1,-1.846107006E0,-1.229869127E-1,2.075763717E0
5.553113812E0,-1.282687187E0,-1.651163578E0,3.011607528E-1,2.112421686E0
5.561351466E0,-1.738683224E0,-1.439090729E0,4.447048903E-1,2.300383428E0
5.569562774E0,-2.057563305E0,-1.220522881E0,4.434096813E-1,2.433075215E0
5.577777274E0,-2.291024685E0,-8.410177231E-1,4.255403876E-1,2.477335169E0
5.585987505E0,-2.370681763E0,-6.699323654E-1,4.835866690E-1,2.510537285E0
5.594198428E0,-2.325264454E0,-7.695107460E-1,2.485445142E-1,2.461864323E0
5.602441774E0,-2.278927326E0,-9.336485863E-1,-2.032549381E-1,2.471137797E0
5.610678389E0,-2.141502857E0,-1.050835609E0,-6.417396069E-1,2.470246888E0
5.618889158E0,-1.997184277E0,-1.158864021E0,-8.938009739E-1,2.476003036E0
5.627127581E0,-1.877279282E0,-1.271349907E0,-1.019753337E0,2.486042026E0
5.635350428E0,-1.797421455E0,-1.337533474E0,-1.051262736E0,2.474848081E0
5.643586581E0,-1.744678974E0,-1.412054062E0,-9.886932373E-1,2.452614057E0
5.651799543E0,-1.735442638E0,-1.530579090E0,-8.172808886E-1,2.454054106E0
5.660053197E0,-1.769415379E0,-1.549426079E0,-5.977627039E-1,2.426699859E0
5.668262889E0,-1.844886303E0,-1.566926479E0,-4.223351479E-1,2.457077744E0
5.676473850E0,-1.856829643E0,-1.556702137E0,-3.353310823E-1,2.446136710E0
5.684722543E0,-1.890251160E0,-1.533672333E0,-3.386588097E-1,2.457618778E0
5.692960504E0,-1.952425480E0,-1.469000816E0,-3.645563126E-1,2.470390649E0
5.701189504E0,-1.961000443E0,-1.430358410E0,-3.593871593E-1,2.453692533E0
5.709427120E0,-1.902444363E0,-1.453796387E0,-4.503101110E-1,2.436308208E0
5.717647620E0,-1.819658756E0,-1.515082836E0,-5.618351698E-1,2.433576123E0
5.725888735E0,-1.793566704E0,-1.546857834E0,-6.553221941E-1,2.457457600E0
5.734100043E0,-1.767283916E0,-1.424879551E0,-7.780629396E-1,2.399782514E0
5.742326158E0,-1.834712982E0,-1.302568436E0,-8.884793520E-1,2.419142785E0
5.750537004E0,-1.821159840E0,-1.187170029E0,-1.047040343E0,2.412942046E0
5.758749504E0,-1.836985111E0,-1.022484303E0,-1.234873533E0,2.438216785E0
5.766998581E0,-1.802451134E0,-9.281930923E-1,-1.319043517E0,2.418728655E0
5.775236273E0,-1.853533745E0,-8.302211761E-1,-1.291605473E0,2.406885797E0
5.783446273E0,-2.007372379E0,-7.903084755E-1,-1.173562288E0,2.455886765E0
5.791680850E0,-2.249872684E0,-8.199114799E-1,-9.080064297E-1,2.560987623E0
5.798898542E0,-2.391626358E0,-9.023489952E-1,-6.978518963E-1,2.649737273E0
5.807139850E0,-2.533188343E0,-1.015863419E0,-4.794741869E-1,2.771085918E0
5.815349696E0,-2.604130745E0,-1.084619522E0,-3.027598858E-1,2.837174650E0
5.823568234E0,-2.590078831E0,-1.097835541E0,-2.828787565E-1,2.827325877E0
5.831779119E0,-2.508017063E0,-1.179891109E0,-4.635970592E-1,2.810198365E0
5.839990542E0,-2.365788937E0,-1.213789940E0,-7.436597347E-1,2.761027546E0
5.848242773E0,-2.256398678E0,-1.201692581E0,-1.063457966E0,2.768816155E0
5.856482927E0,-2.101394176E0,-1.160611153E0,-1.276140451E0,2.718714804E0
5.864692888E0,-1.964969635E0,-1.097502232E0,-1.463871717E0,2.684871919E0
5.872928850E0,-1.889558315E0,-9.328670502E-1,-1.686446667E0,2.699032034E0
5.881151196E0,-1.875175476E0,-6.523418427E-1,-1.833990932E0,2.702842149E0
5.889393042E0,-1.984106064E0,-3.516945839E-1,-1.961679578E0,2.812214913E0
5.897606157E0,-2.131703377E0,-9.407472610E-2,-2.068125725E0,2.971557395E0
5.905830926E0,-2.205144405E0,7.050704956E-2,-2.145534754E0,3.077491263E0
5.914042273E0,-2.345724106E0,2.211747169E-1,-2.115797997E0,3.166692438E0
5.922255003E0,-2.522940636E0,2.329592705E-1,-1.964520454E0,3.206063020E0
5.930490388E0,-2.705709457E0,1.871652603E-1,-1.847779512E0,3.281795793E0
5.938728580E0,-2.734921455E0,4.926681519E-2,-1.691535234E0,3.216133398E0
5.946961696E0,-2.617314816E0,-2.762293816E-1,-1.505527020E0,3.032037454E0
5.955201542E0,-2.408837795E0,-6.181807518E-1,-1.372834682E0,2.840655212E0
5.963426657E0,-2.141536236E0,-9.084072113E-1,-1.292831182E0,2.661351833E0
5.971677926E0,-1.894505024E0,-1.118778706E0,-1.217339039E0,2.514503811E0
5.979888580E0,-1.673783779E0,-1.207574368E0,-1.228931308E0,2.402094951E0
5.988145003E0,-1.559334278E0,-1.111339092E0,-1.210544229E0,2.265395175E0
5.996356965E0,-1.514640331E0,-9.061217308E-1,-1.163272619E0,2.113857874E0
6.004569388E0,-1.483524799E0,-6.143331528E-1,-1.092626572E0,1.942185336E0
6.012818618E0,-1.411791801E0,-3.490214348E-1,-1.085251093E0,1.814591411E0
6.021038734E0,-1.309083939E0,-7.617616653E-2,-1.156337261E0,1.748319029E0
6.029250657E0,-1.207732677E0,1.529912949E-1,-1.167515039E0,1.686747143E0
6.037489003E0,-1.020299911E0,3.543686867E-1,-1.223380089E0,1.631946052E0
6.045712157E0,-7.808690071E-1,5.658650398E-1,-1.289256096E0,1.610012711E0
6.053954426E0,-6.523246765E-1,7.898373604E-1,-1.242352247E0,1.610220372E0
6.062169272E0,-5.400266647E-1,9.630994797E-1,-1.098121405E0,1.557260423E0
6.070396926E0,-4.870567322E-1,1.064152718E0,-9.821352959E-1,1.527820345E0
6.078609464E0,-4.101915359E-1,1.090004444E0,-8.396388292E-1,1.435743761E0
6.086820618E0,-3.677792549E-1,1.080387115E0,-6.524550915E-1,1.314608514E0
6.095069349E0,-3.312234879E-1,9.679903984E-1,-4.163838625E-1,1.104576811E0
6.103288272E0,-2.173514366E-1,6.969118118E-1,-2.096510530E-1,7.595270137E-1
6.111499926E0,-2.616596222E-2,3.005332947E-1,-5.993664265E-3,3.017297513E-1
6.119739349E0,1.756763458E-1,-8.453893661E-2,1.358159781E-1,2.376025887E-1
6.127963041E0,4.419054985E-1,-4.263615608E-1,2.716445923E-1,6.714576939E-1
6.136204772E0,6.511421204E-1,-6.813921928E-1,3.516635895E-1,1.005956590E0
6.144416118E0,8.261175156E-1,-9.037137032E-1,4.078001678E-1,1.290530737E0
6.152634733E0,1.013188362E0,-1.032577038E0,4.428831935E-1,1.512914908E0
6.160847695E0,1.143906593E0,-9.975314140E-1,4.545297623E-1,1.584357447E0
6.169059964E0,1.220889568E0,-8.749208450E-1,4.476189911E-1,1.567297223E0
6.177310541E0,1.305867672E0,-6.626796722E-1,3.856286705E-1,1.514313110E0
6.185530310E0,1.412772179E0,-4.592475891E-1,2.748506665E-1,1.510753609E0
6.193763425E0,1.466571808E0,-2.629771233E-1,1.931199431E-1,1.502426420E0
6.202002348E0,1.598099232E0,-3.145790100E-2,2.027528286E-1,1.611216765E0
6.210225348E0,1.694111824E0,1.340889931E-1,2.622170746E-1,1.719521016E0
6.218466541E0,1.814372540E0,2.287883759E-1,4.438917935E-1,1.881842649E0
6.226678925E0,1.900687218E0,4.218463898E-1,6.216638684E-1,2.043778912E0
6.234903848E0,1.884666920E0,6.325111389E-1,7.344523072E-1,2.119306474E0
6.243117694E0,1.872071743E0,9.353222847E-1,8.819345236E-1,2.270966510E0
6.251331002E0,1.924373627E0,1.284696579E0,1.016415238E0,2.527203809E0
6.259583156E0,1.942864418E0,1.634016037E0,9.982473850E-1,2.727861506E0
6.267805425E0,1.824459076E0,1.879916668E0,9.070435166E-1,2.772267220E0
6.276019656E0,1.537569046E0,2.076556206E0,7.239502668E-1,2.683339009E0
6.284259540E0,1.488506794E0,2.133810043E0,7.823939323E-1,2.716788185E0
6.292484463E0,1.504543304E0,2.108162403E0,1.036479473E0,2.789675424E0
6.300728579E0,1.590689659E0,2.088228703E0,1.255458951E0,2.909840182E0
6.308942233E0,1.707372189E0,2.027510166E0,1.447053790E0,3.019914227E0
6.317162079E0,1.759749889E0,1.984781742E0,1.660423040E0,3.129390182E0
6.325374886E0,1.836778641E0,1.977699757E0,1.769020081E0,3.227147990E0
6.333587540E0,1.837808132E0,2.023135662E0,1.759688258E0,3.250710600E0
6.341813771E0,1.890357494E0,2.107729912E0,1.624326944E0,3.264110118E0
6.350000271E0,1.943949223E0,2.176458359E0,1.448476791E0,3.257912611E0
6.358214848E0,1.960521698E0,2.287204266E0,1.223366618E0,3.251395787E0
6.366455309E0,1.968685150E0,2.392096519E0,9.260591865E-1,3.233486137E0
6.374680232E0,1.898927212E0,2.462352276E0,7.722665668E-1,3.203981732E0
6.382904155E0,1.906089306E0,2.458662987E0,7.277429104E-1,3.194966333E0
6.391118348E0,1.913661480E0,2.448163033E0,7.561624050E-1,3.198028154E0
6.399346502E0,1.877641678E0,2.333998203E0,8.019064665E-1,3.100990143E0
6.407560925E0,1.800339699E0,2.235699654E0,8.279252648E-1,2.987479911E0
6.415773963E0,1.722176075E0,2.068924427E0,8.750818968E-1,2.830566559E0
6.424026732E0,1.682871342E0,1.909196854E0,8.898694515E-1,2.696100187E0
6.432248617E0,1.706233025E0,1.684844017E0,8.087342381E-1,2.530608931E0
6.440483271E0,1.741789818E0,1.407840729E0,6.127762794E-1,2.321926367E0
6.448722924E0,1.754209042E0,1.167703152E0,4.225578606E-1,2.149263864E0
6.456948617E0,1.727278709E0,8.407082558E-1,2.669458389E-1,1.939469565E0
6.465192309E0,1.738547325E0,6.028671265E-1,7.023090124E-2,1.841447244E0
6.473404924E0,1.805646420E0,5.464167595E-1,-1.084346771E-1,1.889626510E0
6.481625386E0,1.768043995E0,7.908701897E-1,-1.589198112E-1,1.943376117E0
6.489838963E0,1.674307823E0,1.234064102E0,-3.894025087E-2,2.080321427E0
6.498052117E0,1.289574146E0,1.715565205E0,1.586868763E-1,2.152056452E0
6.506305309E0,9.559907913E-1,2.149056911E0,2.824926972E-1,2.369001082E0
6.514524270E0,5.226712227E-1,2.403432369E0,3.555216789E-1,2.485169617E0
6.522736193E0,1.645703316E-1,2.402118683E0,3.685421944E-1,2.435791639E0
6.530974732E0,-1.376881599E-1,2.177656651E0,3.071560264E-1,2.203517947E0
6.539196463E0,-2.097697258E-1,1.672580719E0,2.718725204E-1,1.707467208E0
6.547437463E0,-9.688758850E-2,9.230575562E-1,3.678709269E-1,9.983744165E-1
6.555648347E0,9.785461426E-2,2.232646942E-1,4.825283587E-1,5.406073123E-1
6.563860462E0,1.973876953E-1,-4.340748787E-1,4.662681222E-1,6.669249316E-1
6.572072270E0,4.025292397E-1,-9.733133316E-1,4.017600417E-1,1.127288677E0
6.580285847E0,5.517621040E-1,-1.223931313E0,3.147600889E-1,1.378957284E0
6.588527039E0,5.432176590E-1,-1.183172703E0,2.784513235E-1,1.331359534E0
6.596746770E0,4.459719658E-1,-8.302454948E-1,1.379187703E-1,9.524810566E-1
6.604961116E0,1.892886162E-1,-3.625087738E-1,-1.371478438E-1,4.313378286E-1
6.613201347E0,-2.008376122E-1,2.561378479E-1,-4.061245918E-1,5.204608801E-1
6.621425693E0,-5.592846870E-1,9.064111710E-1,-7.016130686E-1,1.275398553E0
6.629651885E0,-8.870167732E-1,1.377392769E0,-9.085135460E-1,1.873340988E0
6.637864770E0,-1.291526318E0,1.739295483E0,-9.765227437E-1,2.376296630E0
6.646110731E0,-1.646814346E0,1.905862808E0,-1.014253616E0,2.715330723E0
6.654322731E0,-1.923762321E0,1.712720871E0,-8.163824081E-1,2.701990838E0
6.662535501E0,-1.967165470E0,1.274730682E0,-6.440244913E-1,2.430935179E0
6.670771077E0,-1.865073681E0,5.350770950E-1,-4.545364380E-1,1.992839860E0
6.679010116E0,-1.814078808E0,-2.658100128E-1,-1.786269546E-1,1.842130417E0
6.687243577E0,-1.770097256E0,-9.357080460E-1,9.856617451E-2,2.004621943E0
6.695482731E0,-1.686640263E0,-1.493706703E0,2.038648725E-1,2.262183895E0
6.703707616E0,-1.624463558E0,-2.006715298E0,1.762912273E-1,2.587830507E0
6.711942923E0,-1.564760685E0,-2.377896786E0,1.160655618E-1,2.848919153E0
6.720157116E0,-1.520956039E0,-2.641224861E0,-1.150870323E-2,3.047869500E0
6.728372270E0,-1.435400486E0,-2.775337696E0,-1.299047470E-1,3.127259044E0
6.736586577E0,-1.523051739E0,-2.750470638E0,-4.518032670E-1,3.176303122E0
6.744799577E0,-1.491521358E0,-2.770613194E0,-6.513093114E-1,3.213275159E0
6.753050308E0,-1.480372906E0,-2.675838947E0,-7.427414656E-1,3.146948188E0
6.761289616E0,-1.562093258E0,-2.502508163E0,-7.403554916E-1,3.041514213E0
6.769501846E0,-1.665066719E0,-2.341698170E0,-7.411136031E-1,2.967363623E0
6.777742039E0,-1.696911812E0,-2.203545094E0,-8.058990240E-1,2.895616327E0
6.785966192E0,-1.789797783E0,-2.052470684E0,-8.485953808E-1,2.852389548E0
6.794207923E0,-1.882246017E0,-1.934408665E0,-8.422878981E-1,2.827407975E0
6.802420654E0,-1.928476810E0,-1.870723724E0,-8.557195663E-1,2.819731554E0
6.810639846E0,-1.998064041E0,-1.816043854E0,-8.077847362E-1,2.818295827E0
6.818851961E0,-2.076162815E0,-1.789276600E0,-7.972469926E-1,2.854394078E0
6.827062923E0,-2.163381100E0,-1.872210979E0,-7.719547749E-1,2.963326831E0
6.835313384E0,-2.254217148E0,-1.949559212E0,-7.017536163E-1,3.061818774E0
6.843533231E0,-2.309806347E0,-2.059399128E0,-6.841367483E-1,3.169285916E0
6.851744654E0,-2.331954479E0,-2.143965721E0,-6.572750211E-1,3.235214237E0
6.859982884E0,-2.374965668E0,-2.109456062E0,-6.091425419E-1,3.234396611E0
6.868207307E0,-2.497978687E0,-1.991397858E0,-5.734182596E-1,3.245669646E0
6.876479846E0,-2.626330376E0,-1.746431828E0,-6.239765882E-1,3.215117751E0
6.884693346E0,-2.737044334E0,-1.474454403E0,-7.638988495E-1,3.201401088E0
6.892919115E0,-2.785762310E0,-1.148648262E0,-9.440987706E-1,3.157718633E0
6.901131346E0,-2.941076756E0,-8.006596565E-1,-1.098373890E0,3.239971230E0
6.909343615E0,-3.140633583E0,-5.395913124E-1,-1.136291265E0,3.383178377E0
6.917593807E0,-3.356209755E0,-3.322219849E-1,-1.172754288E0,3.570695729E0
6.925813961E0,-3.511085510E0,-2.000608444E-1,-1.196017146E0,3.714593223E0
6.934045192E0,-3.568347454E0,-1.520500183E-1,-1.114457011E0,3.741421814E0
6.942286653E0,-3.639872551E0,-1.312952042E-1,-9.731360674E-1,3.770000587E0
6.950511730E0,-3.676511288E0,-1.370201111E-1,-8.291326761E-1,3.771335407E0
6.958750846E0,-3.674604893E0,-1.229591370E-1,-7.637228370E-1,3.755144823E0
6.966965076E0,-3.667409420E0,-1.583747864E-1,-6.526023149E-1,3.728386274E0
6.975209345E0,-3.650455952E0,-1.188974380E-1,-5.121878386E-1,3.688129829E0
6.983421999E0,-3.579887867E0,-1.380710602E-1,-4.571831822E-1,3.611603137E0
6.991633653E0,-3.470503330E0,-2.209405899E-1,-4.528600574E-1,3.506891835E0
6.999868576E0,-3.374986649E0,-3.195934296E-1,-4.808727205E-1,3.424020066E0
7.008087538E0,-3.200982571E0,-4.203152657E-1,-4.929255545E-1,3.265873534E0
7.016299345E0,-2.965612411E0,-5.759744644E-1,-4.637181461E-1,3.056409344E0
7.024538384E0,-2.619165421E0,-6.599421501E-1,-5.417454243E-1,2.754821092E0
7.032761384E0,-2.366656303E0,-6.044974327E-1,-6.718833447E-1,2.533358726E0
7.041004114E0,-2.197680473E0,-2.101993561E-1,-8.894172907E-1,2.380135784E0
7.049217114E0,-2.179336548E0,4.114522934E-1,-1.079869151E0,2.466762689E0
7.057429614E0,-2.098608017E0,9.613294601E-1,-1.387632847E0,2.693294425E0
7.065641384E0,-1.967296124E0,1.411775589E0,-1.814689755E0,3.025964848E0
7.073854307E0,-1.882248402E0,1.843523979E0,-2.225082159E0,3.448540318E0
7.082090845E0,-1.705688477E0,2.155228138E0,-2.462669134E0,3.690409296E0
7.090331422E0,-1.459963322E0,2.351101875E0,-2.542613029E0,3.758198231E0
7.098544499E0,-1.463993073E0,2.353549004E0,-2.630657196E0,3.821364404E0
7.106783807E0,-1.383053303E0,2.083281994E0,-2.620536089E0,3.622169198E0
7.115008691E0,-1.102671623E0,1.446535110E0,-2.362933874E0,2.981912981E0
7.123237114E0,-8.082323074E-1,7.219376564E-1,-1.760895610E0,2.067652483E0
7.131451499E0,-5.869021416E-1,-5.836677551E-2,-9.126207232E-1,1.086617407E0
7.139696537E0,-5.196080208E-1,-6.837921143E-1,-7.088965178E-2,8.617363248E-1
7.147910153E0,-5.016174316E-1,-1.078750610E0,7.294359803E-1,1.395492664E0
7.156122960E0,-4.700388908E-1,-1.233326435E0,1.271855116E0,1.832933739E0
7.164366999E0,-3.739924431E-1,-1.139779568E0,1.587121606E0,1.989452890E0
7.172606191E0,-1.437458992E-1,-8.451843262E-1,1.726339817E0,1.927498014E0
7.180839922E0,1.986784935E-1,-4.812321663E-1,1.671314001E0,1.750527929E0
7.189079768E0,6.405968666E-1,3.823328018E-2,1.346218228E0,1.491351618E0
7.197302998E0,9.962840080E-1,6.743254662E-1,8.656243086E-1,1.482093824E0
7.205548383E0,1.248237133E0,1.455633640E0,3.678840399E-1,1.952512203E0
7.213759960E0,1.451080322E0,2.188313007E0,1.351385415E-1,2.629184350E0
7.221976998E0,1.507966042E0,2.761325359E0,-6.579288840E-2,3.146936292E0
7.230188806E0,1.595683575E0,3.123980045E0,-1.929293573E-1,3.513214928E0
7.238401191E0,1.661369801E0,3.227832794E0,-2.610106766E-1,3.639667668E0
7.246645152E0,1.713039875E0,3.022809505E0,-1.846802831E-1,3.479366282E0
7.254865614E0,1.848582268E0,2.658561230E0,-2.375781536E-3,3.238087376E0
7.263078498E0,1.993850231E0,2.088935375E0,3.571218252E-1,2.909746680E0
7.271318037E0,2.203144073E0,1.559167385E0,8.745852709E-1,2.837207454E0
7.279541152E0,2.357425690E0,1.004708767E0,1.340464592E0,2.892013297E0
7.287775960E0,2.537830353E0,5.232052803E-1,1.591427803E0,3.040882950E0
7.295989229E0,2.643830776E0,1.509933472E-1,1.685700655E0,3.139144288E0
7.304240767E0,2.736105919E0,-7.191324234E-2,1.652581334E0,3.197260105E0
7.312452806E0,2.789035320E0,-1.061582565E-2,1.522806644E0,3.177698977E0
7.320664152E0,2.790224552E0,1.093711853E-1,1.305855513E0,3.082624487E0
7.328904844E0,2.854208946E0,2.877182961E-1,1.098040104E0,3.071641678E0
7.337125152E0,2.914887428E0,5.157318115E-1,8.842243552E-1,3.089401355E0
7.345337152E0,2.982525349E0,7.843346596E-1,7.232023478E-1,3.167595294E0
7.353574998E0,3.048797607E0,1.061111450E0,7.191910744E-1,3.307319181E0
7.361796806E0,3.108474731E0,1.316972256E0,7.186898589E-1,3.451600526E0
7.370036498E0,3.153668880E0,1.465164185E0,6.557175517E-1,3.538686056E0
7.378247382E0,3.221749306E0,1.559514523E0,6.789149046E-1,3.643168893E0
7.386472305E0,3.291038513E0,1.678898335E0,7.484195232E-1,3.769584313E0
7.394682805E0,3.306704044E0,1.766087055E0,8.424772620E-1,3.842280971E0
7.402893036E0,3.264232159E0,1.814091682E0,1.007771015E0,3.868041189E0
7.411142421E0,3.197451115E0,1.863791466E0,1.182710767E0,3.885385054E0
7.419360767E0,3.048877239E0,1.991347313E0,1.421675920E0,3.909255551E0
7.427590959E0,2.894863605E0,2.112123966E0,1.632787943E0,3.937930854E0
7.435829382E0,2.758957386E0,2.261198521E0,1.742476702E0,3.970023887E0
7.444052036E0,2.635849476E0,2.365820408E0,1.742260695E0,3.947186465E0
7.452292190E0,2.566124439E0,2.368393898E0,1.665890932E0,3.869040823E0
7.460502651E0,2.592623234E0,2.371716499E0,1.535914660E0,3.834810064E0
7.468719805E0,2.633962154E0,2.304295063E0,1.401782513E0,3.769950475E0
7.476930382E0,2.623585701E0,2.286917210E0,1.230067015E0,3.691376046E0
7.485142190E0,2.605041981E0,2.306147099E0,1.099125624E0,3.648648421E0
7.493391151E0,2.553890228E0,2.342442036E0,1.010020018E0,3.609644086E0
7.501610728E0,2.460655212E0,2.355613232E0,9.048422575E-1,3.524553487E0
7.509821959E0,2.320445061E0,2.407887936E0,8.767995238E-1,3.457045993E0
7.518059959E0,2.147427559E0,2.429637909E0,9.634248018E-1,3.382716784E0
7.526282036E0,1.960746765E0,2.432815552E0,1.067553282E0,3.301937219E0
7.534523690E0,1.797391415E0,2.447507381E0,1.126148343E0,3.238690842E0
7.542733343E0,1.639122486E0,2.427027702E0,1.182231784E0,3.158299856E0
7.550968651E0,1.528636932E0,2.385253906E0,1.179799795E0,3.068891433E0
7.559180036E0,1.375547886E0,2.406782627E0,1.147680402E0,3.000317467E0
7.567391074E0,1.268496990E0,2.374350071E0,1.104286671E0,2.909651513E0
7.575639997E0,1.157194138E0,2.288195610E0,1.031847715E0,2.763991159E0
7.583860112E0,1.061657429E0,2.125309467E0,9.585001469E-1,2.561792216E0
7.592071997E0,9.790339470E-1,1.913892269E0,8.907856941E-1,2.327013159E0
7.600313112E0,8.452553749E-1,1.743129253E0,8.425877690E-1,2.112560151E0
7.608535574E0,6.678175926E-1,1.725835323E0,6.936822534E-1,1.976280084E0
7.616777343E0,5.912356377E-1,1.917856693E0,6.777526140E-1,2.118273467E0
7.624990112E0,4.573187828E-1,2.199409485E0,8.202408552E-1,2.391513665E0
7.633206997E0,2.129988670E-1,2.536575317E0,8.819766045E-1,2.693968372E0
7.641418458E0,-4.694652557E-2,2.957482815E0,8.782511950E-1,3.085487601E0
7.649629689E0,-3.637795448E-1,3.339566708E0,7.846961021E-1,3.449752067E0
7.657867651E0,-5.720181465E-1,3.410510063E0,6.578530669E-1,3.520163960E0
7.666089804E0,-7.039089203E-1,3.179084778E0,4.528720975E-1,3.287424665E0
7.674322612E0,-8.219614029E-1,2.628686428E0,2.405717075E-1,2.764685811E0
7.682561727E0,-8.481006622E-1,1.966907024E0,6.607055664E-2,2.142980003E0
7.690786150E0,-8.823685646E-1,1.215806961E0,5.951541662E-2,1.503430389E0
7.699030843E0,-8.684086800E-1,3.645381927E-1,1.521908045E-1,9.540355184E-1
7.707243958E0,-7.068319321E-1,-5.022430420E-1,1.879760623E-1,8.872397948E-1
7.715488843E0,-5.061607361E-1,-1.196557522E0,2.053469419E-1,1.315338725E0
7.723700535E0,-4.059405327E-1,-1.748753071E0,1.173325777E-1,1.799080863E0
7.731911150E0,-3.628859520E-1,-2.061906815E0,-3.345686197E-2,2.093863722E0
7.740152227E0,-3.866248131E-1,-2.019634247E0,-2.197819948E-1,2.068019672E0
7.748371958E0,-3.838915825E-1,-1.761675358E0,-3.879804611E-1,1.844288928E0
7.756585496E0,-5.755047798E-1,-1.384458542E0,-5.791244507E-1,1.607269839E0
7.764824496E0,-8.098235130E-1,-8.149833679E-1,-8.564678431E-1,1.433020997E0
7.773045650E0,-1.123802185E0,-1.922588348E-1,-1.122362614E0,1.599872697E0
7.781273035E0,-1.349096298E0,3.634700775E-1,-1.223424792E0,1.857132074E0
7.789485727E0,-1.604348660E0,7.196178436E-1,-1.262609959E0,2.164709766E0
7.797737650E0,-1.819886684E0,8.148002625E-1,-1.232624531E0,2.344195010E0
7.805949150E0,-2.014555931E0,6.475887299E-1,-1.102408886E0,2.386024332E0
7.814159265E0,-2.040312290E0,2.632141113E-1,-8.866695166E-1,2.240164892E0
7.822408842E0,-1.971638680E0,-2.163829803E-1,-5.575619936E-1,2.060353381E0
7.830628342E0,-1.883888245E0,-6.155619621E-1,-3.058931828E-1,2.005373304E0
7.838839458E0,-1.744694233E0,-1.110696316E0,-7.308277488E-2,2.069527812E0
7.847077842E0,-1.630373001E0,-1.621136665E0,6.363108754E-3,2.299182616E0
7.855301381E0,-1.534023285E0,-2.047515392E0,-1.249526516E-1,2.561476115E0
7.863535573E0,-1.379265308E0,-2.391049862E0,-3.230400980E-1,2.779181019E0
7.871747650E0,-1.215530872E0,-2.599678993E0,-5.605734587E-1,2.924053483E0
7.879964111E0,-1.099782467E0,-2.656932354E0,-8.275333643E-1,2.992260429E0
7.888176804E0,-1.006751060E0,-2.592229843E0,-1.102321744E0,2.991373679E0
7.896390496E0,-9.502654076E-1,-2.508244514E0,-1.365288258E0,3.009702131E0
7.904634150E0,-9.396553040E-1,-2.450366020E0,-1.516213536E0,3.030866083E0
7.912852842E0,-9.532756805E-1,-2.344347954E0,-1.602995157E0,2.995712824E0
7.921083419E0,-9.776935577E-1,-2.205116272E0,-1.491822004E0,2.836186764E0
7.929319957E0,-1.105447292E0,-2.029805183E0,-1.325222254E0,2.664270411E0
7.937542457E0,-1.260810375E0,-1.806972504E0,-1.135114670E0,2.478563646E0
7.945783573E0,-1.392193317E0,-1.678509235E0,-1.022962451E0,2.408744001E0
7.953994265E0,-1.454997063E0,-1.568322182E0,-9.664397240E-1,2.347478788E0
7.962212265E0,-1.514422894E0,-1.486305714E0,-9.189303517E-1,2.312361210E0
7.970421880E0,-1.639800549E0,-1.353386879E0,-8.662386537E-1,2.295859597E0
7.978632803E0,-1.656681538E0,-1.308608532E0,-8.069330454E-1,2.260130737E0
7.986881957E0,-1.594065189E0,-1.340152740E0,-7.770265341E-1,2.222796309E0
7.995100303E0,-1.576340199E0,-1.402451992E0,-7.630015612E-1,2.243633525E0
8.003313188E0,-1.623670578E0,-1.382170200E0,-7.005045414E-1,2.244416900E0
8.011551842E0,-1.654768467E0,-1.320911407E0,-6.888836026E-1,2.226572757E0
8.019777265E0,-1.638092518E0,-1.134128094E0,-7.079039812E-1,2.114408115E0
8.028020034E0,-1.632596016E0,-8.785624504E-1,-7.567699552E-1,2.002484081E0
8.036233649E0,-1.634454250E0,-6.360068321E-1,-8.539075851E-1,1.950667463E0
8.044459226E0,-1.600798607E0,-4.246740341E-1,-9.315508008E-1,1.900181862E0
8.052671918E0,-1.607172012E0,-2.133550644E-1,-9.908932447E-1,1.900103072E0
8.060884534E0,-1.658667088E0,4.051494598E-2,-1.065699816E0,1.971936628E0
8.069136572E0,-1.694222450E0,2.177486420E-1,-1.079056621E0,2.020437421E0
8.077357918E0,-1.729385853E0,3.240289688E-1,-1.004599571E0,2.026077614E0
8.085572034E0,-1.829237938E0,4.064388275E-1,-8.943536282E-1,2.076336284E0
8.093812841E0,-1.847998142E0,4.456319809E-1,-7.559078932E-1,2.045747232E0
8.102036841E0,-1.909804344E0,4.107418060E-1,-5.983762741E-1,2.043065253E0
8.110253918E0,-1.827498913E0,2.732963562E-1,-5.012783408E-1,1.914607832E0
8.118466110E0,-1.732070446E0,1.821928024E-1,-4.461556375E-1,1.797864594E0
8.126685803E0,-1.701687336E0,7.574462891E-2,-4.552922845E-1,1.763169902E0
8.134897687E0,-1.645028114E0,-5.079269409E-3,-4.518547058E-1,1.705964821E0
8.143109726E0,-1.506946087E0,-5.066061020E-2,-4.849345982E-1,1.583860654E0
8.151358956E0,-1.384850025E0,7.606077194E-2,-5.349514484E-1,1.486528804E0
8.159578879E0,-1.286088467E0,4.851598740E-1,-5.205109119E-1,1.469807898E0
8.167811995E0,-1.271345615E0,1.079779148E0,-5.302729607E-1,1.750266293E0
8.176049956E0,-1.484869003E0,1.742404938E0,-7.312743664E-1,2.403242211E0
8.184272725E0,-1.736667633E0,2.431408405E0,-1.054025054E0,3.168395511E0
8.192498033E0,-1.938832283E0,2.969802856E0,-1.337521076E0,3.790483117E0
8.200708264E0,-2.137442589E0,3.319370270E0,-1.544347286E0,4.239326403E0
8.208917533E0,-2.234991074E0,3.362214565E0,-1.634286404E0,4.355521086E0
8.217127572E0,-2.257316113E0,3.015396595E0,-1.564012289E0,4.078507950E0
8.225336071E0,-2.061071873E0,2.189900398E0,-1.266177297E0,3.262956629E0
8.233570379E0,-1.802777290E0,1.209849834E0,-9.784499407E-1,2.381408589E0
8.241790571E0,-1.365128040E0,2.061800957E-1,-5.956500173E-1,1.503623537E0
8.250001418E0,-9.524221420E-1,-6.505231857E-1,-2.370765209E-1,1.177494641E0
8.258239110E0,-5.854163170E-1,-1.302708626E0,1.014791131E-1,1.431803072E0
8.266459148E0,-3.454985619E-1,-1.757853031E0,2.800803483E-1,1.813246132E0
8.274685225E0,-5.865478516E-2,-1.976160049E0,4.429121315E-1,2.026035558E0
8.282895456E0,1.938033104E-1,-1.971545696E0,4.339487553E-1,2.028019644E0
8.291143148E0,3.424124718E-1,-1.650704861E0,3.495356441E-1,1.721699162E0
8.299354494E0,4.871058464E-1,-1.104578972E0,1.936225891E-1,1.222643250E0
8.307564725E0,5.125298500E-1,-3.134412766E-1,8.741495013E-2,6.071026721E-1
8.315814840E0,5.444903374E-1,5.954422951E-1,4.221266508E-2,8.079623527E-1
8.324051033E0,6.443567276E-1,1.509634018E0,2.731764317E-2,1.641626241E0
8.332260686E0,6.340785027E-1,2.261173248E0,-1.081192493E-2,2.348420087E0
8.340499533E0,5.974287987E-1,3.037322998E0,-2.058339119E-2,3.095589740E0
8.348720456E0,5.308938026E-1,3.660042286E0,4.114186764E-2,3.698574106E0
8.356945494E0,5.009956360E-1,4.014213562E0,1.999284029E-1,4.050293633E0
8.365156456E0,6.937136650E-1,4.019577980E0,3.837400973E-1,4.097011380E0
8.373368302E0,8.961825371E-1,3.738210678E0,6.471414566E-1,3.898224503E0
8.381580186E0,1.120811462E0,3.294305325E0,9.673671126E-1,3.611712203E0
8.389793225E0,1.311964035E0,2.820536613E0,1.409265637E0,3.415070432E0
8.398044571E0,1.573001385E0,2.247398376E0,1.778441548E0,3.269248715E0
8.406267148E0,1.752534389E0,1.839305401E0,1.989194393E0,3.226657013E0
8.414500455E0,1.910604000E0,1.366197109E0,2.230510473E0,3.239147906E0
8.422740763E0,2.100864410E0,1.024456501E0,2.342116833E0,3.308874983E0
8.430962494E0,2.279356956E0,8.605356216E-1,2.299724102E0,3.350331422E0
8.439195571E0,2.447300434E0,8.517723083E-1,2.136922598E0,3.358754780E0
8.447407032E0,2.572956085E0,9.617590904E-1,1.828817964E0,3.299948289E0
8.455625840E0,2.743712425E0,1.101821423E0,1.537417412E0,3.332509658E0
8.463837647E0,2.895468235E0,1.331053257E0,1.216408134E0,3.411024453E0
8.472049455E0,3.069705009E0,1.574018478E0,9.409747124E-1,3.575759559E0
8.480291724E0,3.200545311E0,1.789127350E0,8.005082607E-1,3.753036163E0
8.488510570E0,3.312225342E0,1.964635372E0,6.976303458E-1,3.913734401E0
8.496723147E0,3.428799152E0,2.057720661E0,6.624505520E-1,4.053358938E0
8.504963224E0,3.530070305E0,2.035994530E0,7.012079954E-1,4.135016655E0
8.513187840E0,3.591970444E0,1.990098476E0,7.325099707E-1,4.171248551E0
8.521432609E0,3.652958870E0,1.970166206E0,9.252715707E-1,4.252268908E0
8.529644070E0,3.650224686E0,1.927084446E0,1.141416073E0,4.282595635E0
8.537870455E0,3.639667988E0,1.957189560E0,1.435989618E0,4.374910310E0
8.546083455E0,3.635906219E0,1.930785656E0,1.681294203E0,4.446852537E0
8.554296301E0,3.644141197E0,1.967562199E0,1.855834842E0,4.538192265E0
8.562547993E0,3.640602112E0,2.045780182E0,1.972367048E0,4.618379809E0
8.570767301E0,3.675516605E0,2.127000332E0,2.040704489E0,4.711478275E0
8.578978916E0,3.767812252E0,2.189210892E0,1.971973538E0,4.783067335E0
8.587216878E0,3.840496063E0,2.251290798E0,1.736709237E0,4.778480851E0
8.595440955E0,3.905005932E0,2.374979019E0,1.458675861E0,4.797638162E0
8.603683070E0,3.929583073E0,2.533347607E0,1.211595535E0,4.829848544E0
8.611895455E0,3.944872379E0,2.721185207E0,1.018703222E0,4.899451324E0
8.620115532E0,3.893220425E0,2.845108032E0,8.455252647E-1,4.895581473E0
8.628329301E0,3.740093708E0,3.040421486E0,6.937640905E-1,4.869678878E0
8.636541416E0,3.602850914E0,3.221015453E0,6.756505966E-1,4.879751939E0
8.644789531E0,3.356076717E0,3.332926273E0,7.333358526E-1,4.786379629E0
8.653008185E0,3.129262924E0,3.333406448E0,8.371136189E-1,4.648079626E0
8.661237878E0,2.915468693E0,3.287325382E0,8.795174956E-1,4.481073185E0
8.669475647E0,2.733697891E0,3.129745007E0,9.422633648E-1,4.261017275E0
8.677697724E0,2.608635902E0,2.945664406E0,1.028921366E0,4.067013553E0
8.685941262E0,2.517049313E0,2.695633411E0,1.062358975E0,3.838044205E0
8.694151839E0,2.414828300E0,2.403441906E0,1.002112150E0,3.551359948E0
8.702378570E0,2.275472641E0,2.097993851E0,8.537728786E-1,3.210651346E0
8.710589262E0,2.095429420E0,1.841012955E0,5.934656858E-1,2.851728366E0
8.718801185E0,1.864848614E0,1.873869419E0,2.174029350E-1,2.652604567E0
8.727051454E0,1.719881058E0,2.098042011E0,-6.219482422E-2,2.713602648E0
8.735271339E0,1.534452438E0,2.301991940E0,-4.042816162E-2,2.766829523E0
8.743506800E0,1.375018597E0,2.531206608E0,3.535532951E-2,2.880786877E0
8.751745300E0,1.099129677E0,2.959566116E0,8.792608976E-2,3.158298377E0
8.759971569E0,7.080731392E-1,3.499927998E0,2.864139676E-1,3.582303242E0
8.768195223E0,3.519654274E-1,3.842575550E0,4.842325747E-1,3.888926292E0
8.776408800E0,3.142833710E-3,4.064959049E0,7.058522701E-1,4.125788334E0
8.784653608E0,-2.419228554E-1,4.033328533E0,8.391270638E-1,4.126790515E0
8.792865608E0,-3.644504547E-1,3.702261448E0,8.180381060E-1,3.809035351E0
8.801077954E0,-4.808750153E-1,3.116281033E0,6.591048837E-1,3.221314561E0
8.809321185E0,-3.958411217E-1,2.305788994E0,3.726622462E-1,2.369014611E0
8.817543223E0,-2.909464836E-1,1.572811604E0,1.842997670E-1,1.610078446E0
8.825757377E0,-1.742854118E-1,7.798509598E-1,7.134026289E-2,8.022670113E-1
8.833996838E0,1.155953407E-1,9.282922745E-2,-5.773150921E-2,1.590989485E-1
8.842220531E0,2.302598953E-1,-3.968009949E-1,-1.696757078E-1,4.891426119E-1
8.850443877E0,3.004202843E-1,-7.342691422E-1,-1.583026648E-1,8.089890321E-1
8.858655877E0,2.785377502E-1,-8.194599152E-1,-1.339823008E-1,8.758133864E-1
8.866873261E0,1.384139061E-1,-6.700296402E-1,-1.340834498E-1,6.971918672E-1
8.875086031E0,-3.955936432E-2,-2.875699997E-1,-8.119308949E-2,3.014195843E-1
8.883297684E0,-2.973999977E-1,2.021689415E-1,-4.288166761E-2,3.621572545E-1
8.891544877E0,-6.661467552E-1,7.543869019E-1,-9.194821119E-2,1.010596641E0
8.899764800E0,-8.911538124E-1,1.241511345E0,-2.064619064E-1,1.542119339E0
8.907978338E0,-1.074211121E0,1.502621174E0,-1.456423998E-1,1.852838804E0
8.916216569E0,-1.229849339E0,1.547721863E0,-6.858253479E-2,1.978048514E0
8.924441377E0,-1.275348186E0,1.304831505E0,-3.523552418E-2,1.824921860E0
8.932709761E0,-1.170643330E0,8.476939201E-1,3.795534372E-2,1.445832423E0
8.940922915E0,-9.183082581E-1,2.025685310E-1,1.602431536E-1,9.539402156E-1
8.949143838E0,-6.175055504E-1,-4.306144714E-1,2.263777256E-1,7.861226383E-1
8.957358107E0,-4.444537163E-1,-8.983950615E-1,2.864314914E-1,1.042447021E0
8.965572184E0,-3.199310303E-1,-1.256303787E0,1.748573780E-1,1.308139967E0
8.973809722E0,-1.440315247E-1,-1.606188774E0,-1.394790411E-2,1.612694020E0
8.982030299E0,-4.323244095E-2,-1.819265366E0,-1.730710864E-1,1.827990458E0
8.990241299E0,-7.608032227E-2,-1.798439503E0,-3.086971045E-1,1.826326029E0
8.998479569E0,-2.321000099E-1,-1.702990532E0,-4.026274681E-1,1.765263732E0
9.006701722E0,-3.459148407E-1,-1.597467422E0,-5.095126033E-1,1.712063765E0
9.014939338E0,-4.765691757E-1,-1.480715752E0,-5.582107902E-1,1.652645335E0
9.023152607E0,-6.107177734E-1,-1.293642521E0,-4.866086245E-1,1.511051000E0
9.031377376E0,-6.781177521E-1,-1.204876900E0,-4.491758943E-1,1.453730034E0
9.039590145E0,-7.180724144E-1,-1.191054821E0,-4.755623341E-1,1.469829620E0
9.047802491E0,-7.546010017E-1,-1.199467182E0,-5.192436576E-1,1.509224360E0
9.056048953E0,-7.802386284E-1,-1.196386337E0,-5.586527586E-1,1.533690154E0
9.064269530E0,-8.299212456E-1,-1.217006207E0,-5.573334098E-1,1.574958384E0
9.072480491E0,-9.314780235E-1,-1.232031822E0,-5.278711915E-1,1.632238253E0
9.080719722E0,-1.060518742E0,-1.272316933E0,-4.681839347E-1,1.721245646E0
9.088943145E0,-1.185585499E0,-1.256259441E0,-3.854928017E-1,1.769860294E0
9.097183876E0,-1.280180931E0,-1.296353340E0,-3.308469653E-1,1.851716748E0
9.105396991E0,-1.382145882E0,-1.296546459E0,-3.042787313E-1,1.919360702E0
9.113618030E0,-1.477355003E0,-1.280972481E0,-3.179845810E-1,1.981055904E0
9.121831645E0,-1.493485928E0,-1.249387264E0,-2.842863202E-1,1.967812863E0
9.130045222E0,-1.502305984E0,-1.199345112E0,-2.817676067E-1,1.942870287E0
9.138293953E0,-1.434974194E0,-1.094623089E0,-3.540355563E-1,1.839209563E0
9.146512568E0,-1.416192055E0,-9.126000404E-1,-3.893868327E-1,1.729179249E0
9.154743645E0,-1.404335022E0,-6.956276894E-1,-3.779471517E-1,1.612110041E0
9.162981529E0,-1.423537731E0,-4.687061310E-1,-3.745510578E-1,1.544808598E0
9.171204683E0,-1.387917995E0,-3.144068718E-1,-3.719990849E-1,1.470901547E0
9.179444568E0,-1.517878532E0,-9.632205963E-2,-4.010522366E-1,1.572919602E0
9.187655991E0,-1.596110821E0,1.492300034E-1,-3.687725067E-1,1.644941491E0
9.195881568E0,-1.687766552E0,2.973680496E-1,-3.187859654E-1,1.743160401E0
9.204094491E0,-1.700163364E0,3.763017654E-1,-2.588508129E-1,1.760443759E0
9.212304683E0,-1.729100704E0,4.194765091E-1,-2.495043278E-1,1.796664186E0
9.220524068E0,-1.745769978E0,3.694295883E-1,-2.099994421E-1,1.796744501E0
9.228744260E0,-1.637594700E0,2.260236740E-1,-1.039285660E-1,1.656382881E0
9.236956568E0,-1.530555725E0,4.727745056E-2,2.951717377E-2,1.531570191E0
9.245195683E0,-1.371364117E0,-1.783223152E-1,1.570855975E-1,1.391802527E0
9.253419375E0,-1.218569279E0,-3.732218742E-1,1.831097007E-1,1.287530511E0
9.261658568E0,-1.089523792E0,-5.143055916E-1,1.885924935E-1,1.219483277E0
9.269870837E0,-9.069743156E-1,-5.797147751E-1,1.280629039E-1,1.084007259E0
9.278091414E0,-7.475457191E-1,-6.099615097E-1,6.221532822E-2,9.668238684E-1
9.286303567E0,-5.799560547E-1,-5.530076027E-1,-7.353872061E-2,8.047200615E-1
9.294513914E0,-3.666014671E-1,-2.809233665E-1,-1.224573255E-1,4.778183443E-1
9.302760837E0,-2.527031898E-1,1.328773499E-1,-1.449999809E-1,3.202191230E-1
9.310980337E0,-3.731184006E-1,6.880955696E-1,-2.557640076E-1,8.234731819E-1
9.319194644E0,-4.852700233E-1,1.314225674E0,-4.578974843E-1,1.473888131E0
9.327434683E0,-5.696911812E-1,1.889986515E0,-6.005459428E-1,2.063311052E0
9.335657336E0,-6.370949745E-1,2.380956650E0,-6.093664765E-1,2.538931286E0
9.343881913E0,-6.839547157E-1,2.790980339E0,-6.147978306E-1,2.938595188E0
9.352094952E0,-8.193993568E-1,3.138122082E0,-6.302683353E-1,3.304007216E0
9.360308259E0,-9.075355530E-1,3.213550568E0,-6.703805327E-1,3.405868184E0
9.368520259E0,-8.614192009E-1,3.078147888E0,-6.683750153E-1,3.265541704E0
9.376732221E0,-7.529034615E-1,2.556843758E0,-4.835825562E-1,2.708904892E0
9.384963529E0,-5.786342621E-1,1.995004177E0,-3.332014680E-1,2.103778148E0
9.393181490E0,-3.106575012E-1,1.290743351E0,-1.598761082E-1,1.337193648E0
9.401413029E0,-2.119178772E-1,5.706396103E-1,1.376742125E-1,6.240936951E-1
9.409651221E0,-3.872346878E-2,-1.303544044E-1,4.871352911E-1,5.057593990E-1
9.417875105E0,1.223230362E-1,-6.695513725E-1,8.129541874E-1,1.060262456E0
9.426098375E0,3.330836296E-1,-1.107644558E0,1.119604945E0,1.609762841E0
9.434311413E0,4.649600983E-1,-1.283641815E0,1.390747070E0,1.948871883E0
9.442564721E0,5.677814484E-1,-1.241439819E0,1.544942856E0,2.061649103E0
9.450775682E0,6.588010788E-1,-1.013879776E0,1.562775373E0,1.975914454E0
9.458988182E0,7.806110382E-1,-5.865883827E-1,1.528722644E0,1.813954918E0
9.467227451E0,7.983331680E-1,2.105379105E-2,1.445749521E0,1.651656982E0
9.475447913E0,8.605470657E-1,6.781883240E-1,1.320140958E0,1.715591095E0
9.483659913E0,8.410053253E-1,1.192175388E0,1.127880573E0,1.844095090E0
9.491898567E0,8.260927200E-1,1.772187233E0,9.453773499E-1,2.171822991E0
9.500123797E0,7.355599403E-1,2.218571663E0,8.494263291E-1,2.486892386E0
9.508354605E0,6.444697380E-1,2.565800190E0,8.047519326E-1,2.765193941E0
9.516566720E0,6.050276756E-1,2.581458569E0,8.773816824E-1,2.792809597E0
9.524784990E0,6.903390884E-1,2.355267525E0,1.043687820E0,2.667046576E0
9.533000259E0,8.396620750E-1,1.981632233E0,1.309399724E0,2.519211453E0
9.541215105E0,1.012919903E0,1.527479649E0,1.668292761E0,2.478386883E0
9.549462374E0,1.213638783E0,1.036496162E0,1.946099520E0,2.516852544E0
9.557682913E0,1.369781971E0,6.585669518E-1,2.080629110E0,2.576631633E0
9.565896336E0,1.392234802E0,2.919683456E-1,2.232781410E0,2.647428202E0
9.574135182E0,1.437721729E0,9.071540833E-2,2.296780825E0,2.711175983E0
9.582359028E0,1.473910332E0,5.173683167E-4,2.283445358E0,2.717817992E0
9.590589566E0,1.532258987E0,-2.331972122E-2,2.182914972E0,2.667110645E0
9.598801374E0,1.567124367E0,2.897214890E-2,1.973193407E0,2.519962378E0
9.607019566E0,1.568568230E0,2.340397835E-1,1.716150045E0,2.336739585E0
9.615229451E0,1.458389282E0,4.351053238E-1,1.456463456E0,2.106537856E0
9.623441066E0,1.421135902E0,6.137037277E-1,1.272343159E0,2.003775594E0
9.631685912E0,1.417189121E0,7.161059380E-1,1.214836955E0,1.999265252E0
9.639906528E0,1.398295879E0,7.710695267E-1,1.166226387E0,1.977337494E0
9.648139105E0,1.266353607E0,7.691941261E-1,1.165397286E0,1.885062836E0
9.656377335E0,1.159834862E0,6.839418411E-1,1.248890400E0,1.836496823E0
9.664599604E0,1.112947464E0,5.876226425E-1,1.461161017E0,1.928456364E0
9.672836643E0,1.038012028E0,5.479550362E-1,1.683890343E0,2.052610625E0
9.681048335E0,9.363861084E-1,5.157694817E-1,1.885115862E0,2.167140723E0
9.689272297E0,7.891149521E-1,4.960112572E-1,1.992749929E0,2.199950421E0
9.697483989E0,7.162199020E-1,5.032148361E-1,2.075536966E0,2.252565164E0
9.705696143E0,6.391563416E-1,5.280566216E-1,2.163739920E0,2.317139414E0
9.713942950E0,5.411400795E-1,5.993409157E-1,2.212285280E0,2.355047405E0
9.722162373E0,3.669943810E-1,7.596831322E-1,2.293644428E0,2.443891998E0
9.730375335E0,1.902136803E-1,9.413061142E-1,2.282962322E0,2.476722716E0
9.738617643E0,3.838205338E-2,1.095186234E0,2.256437540E0,2.508468943E0
9.746843181E0,-1.200437546E-2,1.190681458E0,2.240528584E0,2.537288863E0
9.755080643E0,-5.500125885E-2,1.212757111E0,2.213341713E0,2.524418049E0
9.763295412E0,-8.111763000E-2,1.201881409E0,2.150182486E0,2.464626485E0
9.771516643E0,-7.613849640E-2,1.107546329E0,2.084118128E0,2.361356456E0
9.779730142E0,-1.105976105E-2,9.345474243E-1,2.045290709E0,2.248714141E0
9.787942219E0,9.065961838E-2,7.884755135E-1,2.080869675E0,2.227090345E0
9.796189719E0,1.151175499E-1,7.540512085E-1,2.155120373E0,2.286129720E0
9.804411450E0,9.209775925E-2,7.412533760E-1,2.282618284E0,2.401725379E0
9.812625296E0,-3.999137878E-2,7.774472237E-1,2.352657795E0,2.478108592E0
9.820865488E0,-1.493926048E-1,8.675580025E-1,2.382226229E0,2.539680461E0
9.829089412E0,-2.787032127E-1,8.999691010E-1,2.363645315E0,2.544491902E0
9.837315488E0,-3.440413475E-1,8.961563110E-1,2.330077410E0,2.520063753E0
9.845529758E0,-3.601412773E-1,8.336639404E-1,2.399830103E0,2.565907603E0
9.853755758E0,-4.192762375E-1,7.634401321E-1,2.347144604E0,2.503541729E0
9.861969027E0,-4.139337540E-1,7.235827446E-1,2.222323656E0,2.373528086E0
9.870179604E0,-3.223099709E-1,6.803288460E-1,2.054800272E0,2.188363593E0
9.878425988E0,-2.733249664E-1,7.799730301E-1,1.947436452E0,2.115555057E0
9.886644027E0,-3.018045425E-1,9.183297157E-1,1.898842454E0,2.130731826E0
9.894874604E0,-4.130158424E-1,1.119527817E0,1.777175426E0,2.140625403E0
9.903114104E0,-5.262331963E-1,1.215908051E0,1.562727690E0,2.048773193E0
9.911336527E0,-6.189432144E-1,1.175182343E0,1.303364277E0,1.860887605E0
9.919576219E0,-6.395602226E-1,1.058410645E0,1.175081134E0,1.705897430E0
9.927789180E0,-6.767401695E-1,7.740797997E-1,1.164030194E0,1.553107558E0
9.936009834E0,-6.034998894E-1,3.676886559E-1,1.121406078E0,1.325503171E0
9.944223642E0,-4.597268105E-1,-1.057457924E-1,1.116318464E0,1.211898439E0
9.952435988E0,-3.127450943E-1,-6.257848740E-1,1.161514997E0,1.355925253E0
9.960682488E0,-1.098232269E-1,-1.034946442E0,1.175217390E0,1.569812470E0
9.968903103E0,2.438020706E-2,-1.345602036E0,1.184606433E0,1.792911496E0
9.977115642E0,1.004910469E-1,-1.426876068E0,1.168753028E0,1.847175521E0
9.985355219E0,7.589769363E-2,-1.375865459E0,1.185496807E0,1.817737303E0
9.993579757E0,6.529045105E-2,-1.175926208E0,1.213605165E0,1.691124711E0
1.000182033E1,5.648994446E-2,-8.700799942E-1,1.258776903E0,1.531257523E0
1.001003257E1,1.123194695E-1,-5.287971497E-1,1.327289581E0,1.433157256E0
1.001825760E1,1.368203163E-1,-7.777357101E-2,1.333902121E0,1.343154271E0
1.002646987E1,1.361899376E-1,3.006129265E-1,1.332703114E0,1.372957909E0
1.003468318E1,1.969647408E-1,6.672167778E-1,1.283987284E0,1.460341290E0
1.004292899E1,2.845969200E-1,9.708800316E-1,1.242574692E0,1.602371776E0
1.005114710E1,3.160696030E-1,1.243780136E0,1.246644974E0,1.789137421E0
1.005935880E1,3.141875267E-1,1.405800343E0,1.252388239E0,1.908786187E0
1.006759560E1,4.002032280E-1,1.508954048E0,1.178729057E0,1.956145990E0
1.007581849E1,4.611897469E-1,1.485423565E0,1.162674904E0,1.941904241E0
1.008405680E1,5.210905075E-1,1.365637302E0,1.215660810E0,1.901139596E0
1.009226887E1,6.121354103E-1,1.208144665E0,1.228994131E0,1.828865732E0
1.010048845E1,6.984524727E-1,9.836130142E-1,1.197560310E0,1.699847380E0
1.010869983E1,7.739315033E-1,7.475237846E-1,1.179150581E0,1.596295046E0
1.011691087E1,8.385143280E-1,5.332040787E-1,1.067604780E0,1.458489916E0
1.012515649E1,8.927593231E-1,3.603401184E-1,9.659168720E-1,1.363766701E0
1.013337545E1,9.585075378E-1,2.559299469E-1,8.900473714E-1,1.332824505E0
1.014160814E1,9.335179329E-1,2.234582901E-1,7.629683614E-1,1.226177010E0
1.014984722E1,8.786635399E-1,1.686663628E-1,6.356588602E-1,1.097524553E0
1.015806980E1,8.319892883E-1,1.154866219E-1,5.809134841E-1,1.021275581E0
1.016630764E1,7.671089172E-1,7.841014862E-2,5.468745828E-1,9.453444090E-1
1.017451991E1,7.086415291E-1,7.011222839E-2,5.344772339E-1,8.903675954E-1
1.018274353E1,6.039609909E-1,4.500150681E-2,5.478727818E-1,8.166753328E-1
1.019095233E1,5.727758408E-1,-1.645565033E-3,5.851320624E-1,8.188128004E-1
1.019916233E1,5.290861130E-1,-1.467466354E-2,7.034255266E-1,8.803152459E-1
1.020740526E1,4.907402992E-1,1.163625717E-2,8.027696609E-1,9.409572638E-1
1.021562133E1,3.983964920E-1,9.912347794E-2,8.970431089E-1,9.865249961E-1
1.022383133E1,3.051295280E-1,1.880230904E-1,9.874673486E-1,1.050499156E0
1.023206768E1,2.205896378E-1,3.023300171E-1,1.086148739E0,1.148817788E0
1.024028906E1,2.123641968E-1,4.160428047E-1,1.195038438E0,1.283084968E0
1.024852760E1,1.601338387E-1,5.382466316E-1,1.223177314E0,1.345925341E0
1.025673999E1,1.499795914E-1,6.688446999E-1,1.213638663E0,1.393831380E0
1.026495749E1,1.012144089E-1,7.413425446E-1,1.206001997E0,1.419251190E0
1.027316703E1,8.456468582E-2,8.050737381E-1,1.213576913E0,1.458788481E0
1.028137837E1,6.144714355E-2,8.646564484E-1,1.180862784E0,1.464869769E0
1.028962256E1,4.807090759E-2,9.099941254E-1,1.183819294E0,1.493930467E0
1.029784183E1,7.051181793E-2,8.426814079E-1,1.179033875E0,1.450932373E0
1.030605314E1,1.213645935E-1,7.199745178E-1,1.180623412E0,1.388151401E0
1.031429110E1,2.390608788E-1,5.356335640E-1,1.184132457E0,1.321447348E0
1.032251514E1,3.712048531E-1,3.584771156E-1,1.168581486E0,1.277451202E0
1.033075233E1,4.756073952E-1,1.747140884E-1,1.228563070E0,1.328944929E0
1.033896518E1,5.193829536E-1,5.920743942E-2,1.238154888E0,1.343983519E0
1.034719303E1,5.080447197E-1,-1.878261566E-3,1.271208525E0,1.368971906E0
1.035540633E1,4.825339317E-1,-3.221988678E-2,1.237069607E0,1.328238807E0
1.036361972E1,4.887495041E-1,-1.204395294E-2,1.275025129E0,1.365543926E0
1.037186622E1,5.072464943E-1,5.843734741E-2,1.330198765E0,1.424830756E0
1.038008541E1,4.868354797E-1,2.239794731E-1,1.315890789E0,1.420825168E0
1.038831568E1,4.577012062E-1,4.048385620E-1,1.255562544E0,1.396360253E0
1.039655049E1,4.499359131E-1,5.834617615E-1,1.179913521E0,1.391066450E0
1.040477314E1,4.036984444E-1,7.576899529E-1,1.149511933E0,1.434727913E0
1.041300918E1,3.603091240E-1,8.753762245E-1,1.103889227E0,1.454193118E0
1.042121910E1,3.077311516E-1,1.001066685E0,1.089043140E0,1.510909637E0
1.042943787E1,2.460417747E-1,1.098801136E0,1.156852841E0,1.614375727E0
1.043764822E1,2.111115456E-1,1.146956921E0,1.199989676E0,1.673336035E0
1.044585868E1,1.739864349E-1,1.097387791E0,1.229327440E0,1.657038683E0
1.045410452E1,1.299562454E-1,1.029085636E0,1.210286140E0,1.593956842E0
1.046234395E1,1.836743355E-1,8.935818672E-1,1.107979536E0,1.435215478E0
1.047055691E1,1.680541039E-1,7.342891693E-1,9.731283188E-1,1.230610211E0
1.047879526E1,2.358245850E-1,5.484080315E-1,8.514399529E-1,1.039862778E0
1.048701768E1,3.010363579E-1,3.983860016E-1,8.015184999E-1,9.443337337E-1
1.049525406E1,3.381152153E-1,3.495235443E-1,7.680848837E-1,9.090891020E-1
1.050346572E1,4.329404831E-1,3.154883385E-1,8.384044766E-1,9.949333747E-1
1.051169087E1,4.758353233E-1,4.427495003E-1,9.191734195E-1,1.125755813E0
1.051990391E1,4.127397537E-1,7.249054909E-1,9.727771878E-1,1.281459142E0
1.052811729E1,2.514629364E-1,1.100121498E0,9.808770418E-1,1.495199214E0
1.053636456E1,1.206655502E-1,1.438541889E0,8.661118150E-1,1.683482289E0
1.054460564E1,3.378009796E-2,1.729762077E0,6.967108846E-1,1.865106966E0
1.055281787E1,-7.398271561E-2,1.932900906E0,4.506490231E-1,1.986117795E0
1.056105749E1,-1.779413223E-1,2.001163960E0,2.795247436E-1,2.028411790E0
1.056928126E1,-2.223091125E-1,1.976347446E0,1.649225801E-1,1.995637750E0
1.057751860E1,-2.313361168E-1,1.707942009E0,1.042606533E-1,1.726688330E0
1.058572868E1,-1.353287697E-1,1.335016727E0,1.230162084E-1,1.347485260E0
1.059394737E1,1.048660278E-2,8.191142082E-1,2.289838195E-1,8.505831203E-1
1.060215979E1,1.169090271E-1,2.933011055E-1,3.698599339E-1,4.863019944E-1
1.061036949E1,1.971240044E-1,-1.313524246E-1,5.244452953E-1,5.754599902E-1
1.061861645E1,2.285184860E-1,-5.328330994E-1,6.596276164E-1,8.782029393E-1
1.062683460E1,2.604985237E-1,-8.022375107E-1,8.115305901E-1,1.170481270E0
1.063506452E1,2.442421913E-1,-9.480023384E-1,9.195804000E-1,1.343127244E0
1.064330256E1,2.236180305E-1,-1.010245323E0,9.980454445E-1,1.437600552E0
1.065152591E1,1.825327873E-1,-9.549398422E-1,1.020264745E0,1.409314894E0
1.065976502E1,8.715009689E-2,-7.775678635E-1,1.034789920E0,1.297303781E0
1.066797791E1,-1.032943726E-1,-5.140719414E-1,9.837032557E-1,1.114724981E0
1.067620441E1,-2.436041832E-1,-2.345280647E-1,9.795143008E-1,1.036240646E0
1.068441683E1,-3.780951500E-1,2.913475037E-4,9.117823243E-1,9.870678975E-1
1.069262898E1,-5.533046722E-1,1.895642281E-1,9.295764565E-1,1.098268203E0
1.070087625E1,-5.766539574E-1,3.705430031E-1,9.017255306E-1,1.132669783E0
1.070909779E1,-6.280608177E-1,4.903030396E-1,9.090937376E-1,1.208846097E0
1.071731010E1,-6.602158546E-1,5.340390205E-1,9.637031555E-1,1.284447906E0
1.072555145E1,-7.274889946E-1,5.789031982E-1,9.629269838E-1,1.338505707E0
1.073377548E1,-7.529549599E-1,5.509486198E-1,9.704807997E-1,1.346223806E0
1.074201418E1,-7.559785843E-1,5.386104584E-1,9.719201922E-1,1.343961944E0
1.075022672E1,-8.414802551E-1,5.135030746E-1,1.014828920E0,1.414797570E0
1.075844772E1,-8.535003662E-1,5.189733505E-1,1.028280735E0,1.433582046E0
1.076666110E1,-8.726735115E-1,4.933810234E-1,1.038332224E0,1.443300973E0
1.077487379E1,-8.604979515E-1,4.680123329E-1,1.006678581E0,1.404597463E0
1.078312252E1,-8.927865028E-1,3.620953560E-1,1.037976027E0,1.416183257E0
1.079134318E1,-8.231563568E-1,2.860345840E-1,1.026018500E0,1.346148630E0
1.079955641E1,-6.449246407E-1,2.412962914E-1,1.090944171E0,1.290081732E0
1.080779579E1,-6.146674156E-1,1.916050911E-1,1.193834066E0,1.356380596E0
1.081601998E1,-5.956873894E-1,2.592310905E-1,1.273144126E0,1.429314587E0
1.082425995E1,-6.129207611E-1,3.691906929E-1,1.361844778E0,1.538374085E0
1.083247298E1,-5.525832176E-1,4.559698105E-1,1.415690899E0,1.586643439E0
1.084069887E1,-4.568057060E-1,5.878877640E-1,1.419689178E0,1.603059837E0
1.084891148E1,-3.704414368E-1,6.630282402E-1,1.380005360E0,1.575197796E0
1.085712545E1,-1.730556488E-1,6.795439720E-1,1.275773406E0,1.455790524E0
1.086537418E1,2.422285080E-2,6.725683212E-1,1.091101646E0,1.281966340E0
1.087359610E1,1.908187866E-1,7.646341324E-1,9.019135237E-1,1.197716648E0
1.088183018E1,3.053283691E-1,8.289661407E-1,6.450623274E-1,1.093853592E0
1.089006960E1,4.873909950E-1,8.415594101E-1,3.127537072E-1,1.021561111E0
1.089829322E1,5.938043594E-1,8.721981049E-1,5.846768245E-2,1.056764695E0
1.090653106E1,7.022795677E-1,8.570876122E-1,-6.655395776E-2,1.110056393E0
1.091474418E1,8.230376244E-1,6.889858246E-1,-1.625187099E-1,1.085589577E0
1.092296495E1,9.606618881E-1,5.544819832E-1,-1.276215911E-1,1.116516370E0
1.093117818E1,1.012539387E0,4.490523338E-1,3.900222480E-3,1.107654829E0
1.093939102E1,1.098095894E0,3.078351021E-1,1.818757355E-1,1.154840173E0
1.094763810E1,1.140395164E0,2.359271049E-1,3.345499337E-1,1.211646148E0
1.095585829E1,1.182462215E0,2.260923386E-1,4.975757003E-1,1.302657366E0
1.096407033E1,1.236988544E0,1.735434532E-1,6.397618651E-1,1.403407722E0
1.097230883E1,1.324978352E0,1.975717545E-1,6.800000668E-1,1.502332294E0
1.098053248E1,1.448683262E0,2.477912903E-1,6.640259624E-1,1.612766008E0
1.098879779E1,1.599119186E0,2.624177933E-1,5.723205805E-1,1.718602955E0
1.099700910E1,1.704963207E0,3.663339615E-1,4.765659869E-1,1.807820580E0
1.100523422E1,1.795042515E0,4.997634888E-1,3.770169020E-1,1.901074149E0
1.101344598E1,1.842851639E0,7.631292343E-1,2.683484554E-1,2.012580255E0
1.102165844E1,1.866348743E0,1.107646465E0,1.063724607E-1,2.172890569E0
1.102990556E1,1.911858559E0,1.398074150E0,-2.695289254E-2,2.368658045E0
1.103812460E1,2.013552189E0,1.649920464E0,-1.089846939E-1,2.605476466E0
1.104633752E1,2.034360886E0,1.829311371E0,6.686608493E-2,2.736690589E0
1.105457768E1,1.967520714E0,1.965467453E0,2.384916544E-1,2.791250318E0
1.106280033E1,1.893156052E0,1.978023052E0,4.602984190E-1,2.776416695E0
1.107103887E1,1.870235920E0,1.813736439E0,6.454439759E-1,2.684030587E0
1.107925171E1,1.831553936E0,1.551453114E0,8.154329062E-1,2.535059646E0
1.108750968E1,1.894107819E0,1.303335667E0,9.853782654E-1,2.501459297E0
1.109572041E1,1.905865192E0,1.007773399E0,1.139232874E0,2.438397198E0
1.110393298E1,1.874378204E0,6.526536942E-1,1.135471821E0,2.286601573E0
1.111217956E1,1.912034035E0,3.525304794E-1,1.087101221E0,2.227541459E0
1.112039806E1,2.017926931E0,7.897567749E-2,9.867238402E-1,2.247641029E0
1.112862894E1,2.176435947E0,-1.744379997E-1,8.755524158E-1,2.352423024E0
1.113686810E1,2.357786894E0,-3.994922638E-1,6.907853484E-1,2.489164017E0
1.114509075E1,2.562966585E0,-4.780268669E-1,5.043354630E-1,2.655496500E0
1.115332887E1,2.658386230E0,-4.024333954E-1,4.564127922E-1,2.727138175E0
1.116154195E1,2.653446674E0,-1.151547432E-1,4.187529385E-1,2.688753223E0
1.116976771E1,2.536602020E0,3.515148163E-1,2.966664732E-1,2.577968866E0
1.117798106E1,2.373337030E0,1.001409531E0,1.215960383E-1,2.578824404E0
1.118619364E1,2.086505890E0,1.686487198E0,5.985298753E-2,2.683529071E0
1.119442468E1,1.696796894E0,2.368667603E0,-1.189206839E-1,2.916135806E0
1.120266429E1,1.328802586E0,2.842932701E0,-4.779124260E-1,3.174331889E0
1.121087691E1,1.015069485E0,3.139816284E0,-7.672279477E-1,3.387838704E0
1.121911902E1,7.942147255E-1,3.116484642E0,-9.885340929E-1,3.364588118E0
1.122734314E1,8.166913986E-1,2.888370514E0,-1.205545783E0,3.234657586E0
1.123556771E1,8.304128647E-1,2.452713013E0,-1.351533055E0,2.920963582E0
1.124378264E1,7.268395424E-1,1.944737434E0,-1.393533826E0,2.500447147E0
1.125203564E1,6.271572113E-1,1.402233124E0,-1.423532605E0,2.094284837E0
1.126024945E1,3.940682411E-1,9.005575180E-1,-1.403582335E0,1.713574332E0
1.126846306E1,3.333921432E-1,3.188047409E-1,-1.370383739E0,1.445938580E0
1.127670321E1,3.957257271E-1,-2.634115219E-1,-1.408372164E0,1.486437564E0
1.128494410E1,3.192868233E-1,-6.520795822E-1,-1.482127428E0,1.650410122E0
1.129315664E1,1.579294205E-1,-8.680973053E-1,-1.477872372E0,1.721232518E0
1.130139706E1,-3.190374374E-2,-9.752840996E-1,-1.577942848E0,1.855289885E0
1.130962129E1,-1.859211922E-1,-1.117545128E0,-1.749540091E0,2.084313875E0
1.131786214E1,-1.926093102E-1,-1.293141365E0,-1.875353217E0,2.286102059E0
1.132607494E1,-1.831793785E-1,-1.408473492E0,-1.950373054E0,2.412738550E0
1.133429910E1,-2.996392250E-1,-1.497526646E0,-2.019834280E0,2.532212518E0
1.134251198E1,-3.884582520E-1,-1.524316788E0,-2.128133774E0,2.646392798E0
1.135072448E1,-5.789451599E-1,-1.529677868E0,-2.168536901E0,2.716181910E0
1.135897264E1,-7.327332497E-1,-1.537943840E0,-2.058784008E0,2.672220212E0
1.136719210E1,-8.230996132E-1,-1.560983658E0,-1.845901728E0,2.553725933E0
1.137542418E1,-1.092012405E0,-1.457710743E0,-1.761146069E0,2.533583861E0
1.138366460E1,-1.165656567E0,-1.388422012E0,-1.607890606E0,2.423176245E0
1.139188852E1,-1.322041512E0,-1.291028976E0,-1.593150973E0,2.439811386E0
1.140013133E1,-1.422248840E0,-1.151126385E0,-1.561058998E0,2.405158812E0
1.140834471E1,-1.530973911E0,-1.052500725E0,-1.586841941E0,2.443298229E0
1.141656633E1,-1.587858677E0,-9.804496765E-1,-1.659240603E0,2.497129577E0
1.142477868E1,-1.713025570E0,-8.178100586E-1,-1.676872849E0,2.532819071E0
1.143299125E1,-1.852953434E0,-6.789574623E-1,-1.634552956E0,2.562456444E0
1.144124114E1,-1.905709743E0,-5.907468796E-1,-1.481521010E0,2.485078672E0
1.144946025E1,-1.947116852E0,-5.205297470E-1,-1.309188485E0,2.403370496E0
1.145767279E1,-2.012921333E0,-4.107608795E-1,-1.131767392E0,2.345522165E0
1.146591168E1,-2.163611412E0,-3.072986603E-1,-1.045607686E0,2.422589986E0
1.147413698E1,-2.253669262E0,-1.960897446E-1,-9.504314661E-1,2.453731098E0
1.148237687E1,-2.202356339E0,-1.804952621E-1,-8.444561958E-1,2.365598920E0
1.149058987E1,-2.215508938E0,-1.264324188E-1,-8.264283538E-1,2.368005244E0
1.149881460E1,-2.197783947E0,-5.448341370E-3,-8.058125973E-1,2.340858369E0
1.150702690E1,-2.199542046E0,6.027603149E-2,-8.787400723E-1,2.369346434E0
1.151523944E1,-2.157132626E0,1.281061172E-1,-1.017332315E0,2.388429899E0
1.152349091E1,-2.147322178E0,1.505365372E-1,-1.233717561E0,2.481070899E0
1.153170806E1,-2.142939091E0,2.085266113E-1,-1.378474832E0,2.556533621E0
1.153991833E1,-2.104588985E0,2.165403366E-1,-1.487137079E0,2.586070611E0
1.154815517E1,-2.137485504E0,2.776374817E-1,-1.572834492E0,2.668283192E0
1.155637787E1,-2.212752819E0,3.272953033E-1,-1.583748579E0,2.740740195E0
1.156461556E1,-2.227678299E0,2.456884384E-1,-1.444583058E0,2.666408375E0
1.157282637E1,-2.232725620E0,6.862449646E-2,-1.238532901E0,2.554160677E0
1.158104614E1,-2.229469776E0,-1.100130081E-1,-1.023146510E0,2.455497328E0
1.158925825E1,-2.189057350E0,-2.757844925E-1,-8.330851793E-1,2.358402019E0
1.159747083E1,-2.074460030E0,-4.878544807E-1,-7.390528321E-1,2.255567666E0
1.160571625E1,-2.040996075E0,-6.047544479E-1,-7.256298661E-1,2.248984576E0
1.161393425E1,-1.931048393E0,-5.237708092E-1,-7.753171921E-1,2.145786687E0
1.162216614E1,-1.798997879E0,-1.773862839E-1,-8.762021065E-1,2.008877645E0
1.163040387E1,-1.787601948E0,3.345079422E-1,-1.029960036E0,2.090032048E0
1.163862644E1,-1.820727348E0,8.967952728E-1,-1.336592317E0,2.430178771E0
1.164686229E1,-2.021401882E0,1.446719170E0,-1.731512904E0,3.029389190E0
1.165507579E1,-2.220330715E0,1.778758049E0,-2.103301525E0,3.538039851E0
1.166328675E1,-2.220955849E0,1.776490211E0,-2.277172327E0,3.643360559E0
1.167149779E1,-2.075055122E0,1.369381905E0,-2.254585505E0,3.356220547E0
1.167970964E1,-1.772196770E0,7.063703537E-1,-2.003032446E0,2.766184999E0
1.168795690E1,-1.372489929E0,-2.676391602E-2,-1.621439457E0,2.124502489E0
1.169617710E1,-1.117184639E0,-6.914720535E-1,-1.134019852E0,1.735579483E0
1.170438798E1,-8.356633186E-1,-1.230489731E0,-6.867211461E-1,1.638299146E0
1.171262560E1,-6.196880341E-1,-1.539589882E0,-3.039350212E-1,1.687224573E0
1.172084864E1,-4.921212196E-1,-1.601643085E0,-6.462882459E-2,1.676788822E0
1.172907633E1,-3.737330437E-1,-1.464045048E0,9.954057634E-2,1.514269664E0
1.173728714E1,-2.414636612E-1,-1.057073116E0,1.499666870E-1,1.094622437E0
1.174553806E1,-1.210422516E-1,-4.703555107E-1,7.814766467E-2,4.919274241E-1
1.175374910E1,5.427598953E-2,2.459216118E-1,-7.319091260E-2,2.622598556E-1
1.176196098E1,1.285419464E-1,1.104288578E0,-2.535527349E-1,1.140291754E0
1.177019983E1,2.235808372E-1,1.989899635E0,-3.765811324E-1,2.037523570E0
1.177842056E1,1.883387566E-1,2.821853638E0,-4.217413366E-1,2.859404692E0
1.178663314E1,2.783393860E-2,3.361191750E0,-3.305237293E-1,3.377518415E0
1.179487240E1,-1.089191437E-2,3.752831459E0,-3.772989511E-1,3.771765779E0
1.180309740E1,7.474231720E-2,3.704993248E0,-1.248182058E-1,3.707848563E0
1.181132067E1,2.021503448E-1,3.304872990E0,2.535288036E-1,3.320741949E0
1.181953306E1,4.936485291E-1,2.702909470E0,6.836258173E-1,2.831387068E0
1.182774629E1,7.306900024E-1,2.010244846E0,1.308102131E0,2.507214272E0
1.183595894E1,1.001613617E0,1.359770298E0,1.823049545E0,2.485098538E0
1.184417121E1,1.225574493E0,7.705159187E-1,2.173851490E0,2.611772946E0
1.185240114E1,1.445029736E0,2.553420067E-1,2.435657740E0,2.843543406E0
1.186062110E1,1.702138901E0,-1.112298965E-1,2.535785675E0,3.056118112E0
1.186885252E1,2.012956142E0,-2.847738266E-1,2.483677387E0,3.209632678E0
1.187709063E1,2.198761463E0,-3.241786957E-1,2.281084538E0,3.184806190E0
1.188531606E1,2.430857182E0,-2.242579460E-1,1.991421700E0,3.150415631E0
1.189356144E1,2.605164528E0,7.453298569E-2,1.692996502E0,3.107840816E0
1.190177452E1,2.793558598E0,4.598932266E-1,1.429803133E0,3.171720104E0
1.191002602E1,2.923665524E0,8.551917076E-1,1.178375602E0,3.266150947E0
1.191823913E1,3.019665718E0,1.287310600E0,9.392518401E-1,3.414343810E0
1.192645006E1,3.028980732E0,1.684444427E0,8.290647864E-1,3.563625362E0
1.193469029E1,3.091553211E0,2.042580128E0,8.863602877E-1,3.809917243E0
1.194291013E1,3.129131317E0,2.268649101E0,9.365268350E-1,3.976847251E0
1.195112129E1,3.168158054E0,2.379271030E0,1.000982642E0,4.086578317E0
1.195936106E1,3.213307381E0,2.349889755E0,1.099642873E0,4.129956493E0
1.196758560E1,3.222845554E0,2.330075264E0,1.240103483E0,4.165794144E0
1.197583060E1,3.189305782E0,2.366847992E0,1.432252288E0,4.221964875E0
1.198404487E1,3.134530067E0,2.390519142E0,1.647048235E0,4.272309493E0
1.199227217E1,3.066634178E0,2.313237667E0,1.791909695E0,4.238661822E0
1.200048544E1,3.024154186E0,2.254776955E0,1.787148714E0,4.174138017E0
1.200869687E1,3.040320873E0,2.224175453E0,1.682372093E0,4.125637323E0
1.201694798E1,3.063086987E0,2.246163368E0,1.551906824E0,4.103189802E0
1.202516675E1,3.073051453E0,2.292003155E0,1.440508604E0,4.095361856E0
1.203337917E1,3.079812527E0,2.393266678E0,1.273828149E0,4.103121829E0
1.204161756E1,3.064639091E0,2.531627655E0,1.091710448E0,4.122254607E0
1.204983987E1,3.036366463E0,2.672951698E0,9.318138361E-1,4.151200923E0
1.205808002E1,2.850579739E0,2.909958839E0,8.365461230E-1,4.158542378E0
1.206629156E1,2.762592316E0,3.059908390E0,7.668693662E-1,4.193214075E0
1.207451060E1,2.605739594E0,3.138494968E0,7.664917707E-1,4.150607080E0
1.208272256E1,2.431338787E0,3.187739849E0,8.425193429E-1,4.096697754E0
1.209093429E1,2.304385185E0,3.246179104E0,8.902034760E-1,4.079256315E0
1.209918590E1,2.165858746E0,3.297762871E0,9.358464479E-1,4.054872702E0
1.210740544E1,2.033057690E0,3.197045803E0,1.000266075E0,3.918540246E0
1.211563513E1,1.929251671E0,3.101037502E0,9.883365035E-1,3.783550534E0
1.212387206E1,1.887836933E0,3.009546280E0,9.278635979E-1,3.671815348E0
1.213209302E1,1.798293591E0,2.881374359E0,8.370125890E-1,3.498109219E0
1.214030436E1,1.755716801E0,2.706364155E0,6.394208074E-1,3.288739484E0
1.214851460E1,1.748614311E0,2.470950127E0,4.100906551E-1,3.054737449E0
1.215673740E1,1.668903828E0,2.261116505E0,2.185860872E-1,2.818806079E0
1.216494729E1,1.555654526E0,2.298181534E0,8.203065395E-2,2.776405661E0
1.217315706E1,1.361660004E0,2.403507710E0,-1.329904795E-2,2.762452559E0
1.218140467E1,1.185312271E0,2.340574265E0,-3.652095795E-3,2.623597989E0
1.218962333E1,1.093272686E0,2.068547726E0,-1.027443409E-1,2.341941771E0
1.219783402E1,1.047972202E0,1.808549404E0,-2.616729140E-1,2.106553915E0
1.220607267E1,9.489483833E-1,1.484216213E0,-3.964525461E-1,1.805706350E0
1.221429390E1,8.991208076E-1,1.196053505E0,-3.265121579E-1,1.531526168E0
1.222253463E1,9.162039757E-1,9.426436424E-1,-1.461760402E-1,1.322639103E0
1.223074402E1,7.826948166E-1,6.668181419E-1,7.963645458E-2,1.031309641E0
1.223896121E1,6.230964661E-1,4.331555367E-1,1.711334288E-1,7.779200315E-1
1.224717013E1,4.038310051E-1,1.666307449E-1,1.201677918E-1,4.530845220E-1
1.225538106E1,2.648739815E-1,-1.424345970E-1,2.957099676E-2,3.021924624E-1
1.226363010E1,2.063779831E-1,-4.653701782E-1,-1.279225945E-1,5.249051961E-1
1.227184744E1,2.411317825E-1,-7.919754982E-1,-2.610802054E-1,8.680625553E-1
1.228005863E1,2.727766037E-1,-1.034885406E0,-3.905582428E-1,1.139267581E0
1.228829640E1,2.879853249E-1,-1.279437542E0,-5.705893040E-1,1.430198631E0
1.229651932E1,4.138460159E-1,-1.436882019E0,-7.587924600E-1,1.676801854E0
1.230476002E1,4.075865746E-1,-1.474994183E0,-9.320768714E-1,1.791787361E0
1.231297002E1,4.339938164E-1,-1.445018768E0,-1.039166570E0,1.832019932E0
1.232119356E1,3.889527321E-1,-1.245100975E0,-1.079399228E0,1.693122370E0
1.232940463E1,1.693000793E-1,-8.185973167E-1,-1.043739796E0,1.337219819E0
1.233761536E1,-1.922841072E-1,-3.219289780E-1,-9.115414619E-1,9.856567768E-1
1.234586221E1,-5.230045319E-1,2.576398849E-1,-8.828601837E-1,1.057995347E0
1.235408136E1,-8.389854431E-1,7.032012939E-1,-8.811666965E-1,1.405291208E0
1.236231248E1,-1.161744595E0,1.044024467E0,-8.760287762E-1,1.790827744E0
1.237054956E1,-1.435318947E0,1.250720978E0,-8.929846883E-1,2.102823125E0
1.237877290E1,-1.564699173E0,1.241325378E0,-9.311796427E-1,2.203694109E0
1.238699829E1,-1.636504650E0,1.022698402E0,-9.426701665E-1,2.147716586E0
1.239520936E1,-1.589436531E0,5.672483444E-1,-1.011198282E0,1.967384339E0
1.240342771E1,-1.404000282E0,-2.421998978E-2,-1.038248301E0,1.746357047E0
1.241163779E1,-1.261404991E0,-5.818033218E-1,-9.878104329E-1,1.704525479E0
1.241984717E1,-1.093403339E0,-1.061682701E0,-9.453169107E-1,1.793411576E0
1.242809398E1,-9.707007408E-1,-1.455475807E0,-9.430068731E-1,1.987443513E0
1.243631282E1,-8.965988159E-1,-1.725877285E0,-9.806249142E-1,2.178110893E0
1.244452329E1,-8.278245926E-1,-1.919706345E0,-1.079034328E0,2.352632799E0
1.245275856E1,-7.110314369E-1,-2.043730259E0,-1.141724706E0,2.446616925E0
1.246097944E1,-7.018404007E-1,-2.008698463E0,-1.249139190E0,2.467346384E0
1.246922206E1,-7.705683708E-1,-1.944882870E0,-1.367121220E0,2.499072912E0
1.247743179E1,-7.665338516E-1,-1.890677452E0,-1.450933933E0,2.503486499E0
1.248565459E1,-7.247781754E-1,-1.878257275E0,-1.502786160E0,2.512273877E0
1.249386432E1,-6.915416718E-1,-1.819552898E0,-1.491476893E0,2.452245085E0
1.250207582E1,-6.624078751E-1,-1.810596466E0,-1.497433186E0,2.441177974E0
1.251032663E1,-6.489505768E-1,-1.803232193E0,-1.486627936E0,2.425457857E0
1.251854409E1,-5.918598175E-1,-1.833760262E0,-1.432560563E0,2.401084028E0
1.252675448E1,-6.052227020E-1,-1.836977482E0,-1.385502696E0,2.379159202E0
1.253499148E1,-6.269788742E-1,-1.741186619E0,-1.328771472E0,2.278259637E0
1.254321448E1,-6.736941338E-1,-1.646815300E0,-1.319297791E0,2.215042004E0
1.255145482E1,-7.169880867E-1,-1.558897018E0,-1.304204345E0,2.155268151E0
1.255966609E1,-7.289032936E-1,-1.509088516E0,-1.269544721E0,2.102472820E0
1.256788413E1,-7.501502037E-1,-1.432754993E0,-1.180304050E0,2.002156300E0
1.257609632E1,-8.004226685E-1,-1.241823196E0,-1.059731245E0,1.818194602E0
1.258430717E1,-9.189581871E-1,-9.212517738E-1,-9.829717278E-1,1.630773558E0
1.259255567E1,-1.010631084E0,-6.720366478E-1,-9.741182327E-1,1.556250229E0
1.260077582E1,-1.115431309E0,-3.452510834E-1,-1.041639924E0,1.564736095E0
1.260900836E1,-1.274072170E0,7.827472687E-2,-1.144492388E0,1.714424001E0
1.261724748E1,-1.394354820E0,4.875898361E-1,-1.270852566E0,1.948598331E0
1.262546921E1,-1.551154137E0,8.349680901E-1,-1.401887178E0,2.251341495E0
1.263370932E1,-1.725245476E0,1.184573174E0,-1.535756826E0,2.595810969E0
1.264192221E1,-1.867300034E0,1.375291824E0,-1.518388033E0,2.771955850E0
1.265013267E1,-1.994141102E0,1.533187389E0,-1.503986239E0,2.930739994E0
1.265834432E1,-2.184817791E0,1.601455688E0,-1.400987864E0,3.049730496E0
1.266655567E1,-2.262138844E0,1.537026405E0,-1.240871906E0,3.003245812E0
1.267477871E1,-2.344794750E0,1.357364178E0,-1.065739751E0,2.911408791E0
1.268299955E1,-2.383674145E0,1.199776649E0,-8.870540857E-1,2.812157781E0
1.269121182E1,-2.449919701E0,1.071885109E0,-7.036561966E-1,2.765172014E0
1.269945344E1,-2.420414925E0,9.456067085E-1,-5.962170362E-1,2.666093623E0
1.270767775E1,-2.445106030E0,9.029531479E-1,-6.227437854E-1,2.679865240E0
1.271590586E1,-2.387302876E0,1.044635773E0,-7.639850378E-1,2.715538999E0
1.272411767E1,-2.334476471E0,1.316430092E0,-8.426082134E-1,2.809405129E0
1.273236117E1,-2.336769104E0,1.622768402E0,-9.240899086E-1,2.991288901E0
1.274057305E1,-2.468314648E0,2.035726070E0,-1.079844594E0,3.376806506E0
1.274878305E1,-2.644994736E0,2.290502548E0,-1.418964982E0,3.775693406E0
1.275701667E1,-2.684808731E0,2.289563179E0,-1.827068210E0,3.973471494E0
1.276523552E1,-2.422696590E0,1.999818802E0,-2.053653955E0,3.753162477E0
1.277344405E1,-2.088336945E0,1.488359928E0,-1.924813032E0,3.206442215E0
1.278168113E1,-1.776358128E0,8.829689026E-1,-1.616963506E0,2.559229036E0
1.278990305E1,-1.492043495E0,2.593913078E-1,-1.281906128E0,1.984127255E0
1.279812998E1,-1.212416649E0,-3.501152992E-1,-1.032336950E0,1.630415417E0
1.280634259E1,-1.017723560E0,-7.531008720E-1,-8.402584791E-1,1.519525084E0
1.281455859E1,-7.271471024E-1,-1.221477032E0,-6.850064993E-1,1.577967982E0
1.282277052E1,-4.989042282E-1,-1.525486469E0,-6.078834534E-1,1.716256592E0
1.283098036E1,-3.033347130E-1,-1.716919899E0,-5.634645224E-1,1.832298599E0
1.283922055E1,-4.043006897E-2,-1.770016193E0,-5.849211216E-1,1.864597714E0
1.284743902E1,2.553458214E-1,-1.749857903E0,-6.538233757E-1,1.885388335E0
1.285567055E1,5.701313019E-1,-1.646074772E0,-7.251596451E-1,1.886920339E0
1.286390817E1,7.829856873E-1,-1.327713490E0,-7.633206844E-1,1.720043070E0
1.287212875E1,9.284510612E-1,-7.764592171E-1,-7.749444246E-1,1.437167057E0
1.288036955E1,9.988756180E-1,-2.293486595E-1,-6.841011047E-1,1.232212494E0
1.288857928E1,9.155445099E-1,4.988799095E-1,-4.626923501E-1,1.140695895E0
1.289679736E1,7.728028297E-1,1.268234253E0,-4.714640975E-2,1.485888663E0
1.290500759E1,5.494542122E-1,2.055294991E0,3.695102036E-1,2.159322861E0
1.291321986E1,3.280658722E-1,2.784430504E0,6.666162610E-1,2.881849699E0
1.292145609E1,1.057281494E-1,3.225190639E0,8.056055903E-1,3.325963540E0
1.292967448E1,-2.489519119E-2,3.347719193E0,8.827520013E-1,3.462238388E0
1.293788586E1,-9.538650513E-3,3.246322155E0,9.528917074E-1,3.383297375E0
1.294612559E1,2.227683067E-1,3.005307674E0,9.938713312E-1,3.173212908E0
1.295434928E1,5.230288506E-1,2.606637001E0,1.120077252E0,2.884907050E0
1.296259255E1,8.926653862E-1,2.077925682E0,1.232960105E0,2.575813901E0
1.297080436E1,1.430347443E0,1.372079849E0,1.148299694E0,2.290652550E0
1.297901548E1,1.703354359E0,7.865262032E-1,1.093759656E0,2.171715848E0
1.298722517E1,1.953495502E0,3.499846458E-1,1.108842731E0,2.273360097E0
1.299543594E1,2.172958851E0,4.762220383E-2,1.088378549E0,2.430758299E0
1.300367732E1,2.306807518E0,-1.440196037E-1,1.135840058E0,2.575312643E0
1.301189609E1,2.329688072E0,-2.034816742E-1,1.266809702E0,2.659634961E0
1.302011486E1,2.330193043E0,-1.905231476E-1,1.444867373E0,2.748406886E0
1.302835163E1,2.327039242E0,-4.828739166E-2,1.687273979E0,2.874775954E0
1.303657190E1,2.302108288E0,1.354384422E-1,1.882550955E0,2.976918581E0
1.304484236E1,2.319830894E0,4.344844818E-1,2.014543056E0,3.103026888E0
1.305305267E1,2.330284595E0,7.338757515E-1,1.984182358E0,3.147344840E0
1.306127324E1,2.425062180E0,1.036375046E0,1.892352343E0,3.245920085E0
1.306948367E1,2.576141357E0,1.215406895E0,1.775118113E0,3.356301912E0
1.307769386E1,2.794228077E0,1.327011585E0,1.638516545E0,3.500486647E0
1.308594117E1,2.985997200E0,1.440691948E0,1.571895599E0,3.669145451E0
1.309415828E1,3.105484962E0,1.508089542E0,1.514271140E0,3.769799465E0
1.310238863E1,3.255915642E0,1.587050438E0,1.418562174E0,3.889991568E0
1.311062555E1,3.375702381E0,1.652037621E0,1.371069193E0,4.000553161E0
1.311885094E1,3.416578770E0,1.733644485E0,1.419919968E0,4.085915614E0
1.312709574E1,3.469393253E0,1.817288876E0,1.479114056E0,4.186526817E0
1.313530713E1,3.368992329E0,1.948431969E0,1.572464347E0,4.197516000E0
1.314353228E1,3.359056473E0,2.056578159E0,1.674689770E0,4.279878496E0
1.315174286E1,3.341108799E0,2.164994240E0,1.775443792E0,4.359175234E0
1.315995390E1,3.317103863E0,2.368718147E0,1.788278699E0,4.451061042E0
1.316820271E1,3.231839180E0,2.557291031E0,1.732080936E0,4.470416790E0
1.317641974E1,3.115368366E0,2.731635571E0,1.635782242E0,4.454563558E0
1.318463009E1,2.960446835E0,2.922819614E0,1.573929787E0,4.447963009E0
1.319286832E1,2.882621765E0,3.018354893E0,1.419866204E0,4.408627285E0
1.320109163E1,2.802372456E0,3.080009937E0,1.291543841E0,4.359797941E0
1.320933409E1,2.752845287E0,3.004625320E0,1.232653856E0,4.257389578E0
1.321754628E1,2.706369400E0,2.863283634E0,1.147300720E0,4.103550590E0
1.322576667E1,2.680167675E0,2.683345318E0,1.100829601E0,3.949109605E0
1.323397817E1,2.617521763E0,2.473242283E0,1.078818083E0,3.759281318E0
1.324218975E1,2.519877911E0,2.266130447E0,1.109483361E0,3.565962033E0
1.325043798E1,2.366174698E0,2.134670258E0,1.147373199E0,3.387043706E0
1.325865759E1,2.227114677E0,1.934412479E0,1.117450476E0,3.154470953E0
1.326688786E1,2.109641075E0,1.703468800E0,1.069915891E0,2.914980520E0
1.327512625E1,1.968924046E0,1.571815491E0,9.700134397E-1,2.699665147E0
1.328335040E1,1.838662148E0,1.683273315E0,8.193758130E-1,2.624016820E0
1.329159436E1,1.765059948E0,1.883024693E0,8.640273809E-1,2.721720399E0
1.329980678E1,1.581902981E0,2.225511074E0,9.013631940E-1,2.875373400E0
1.330803209E1,1.248829842E0,2.647329807E0,8.490461111E-1,3.047754974E0
1.331624251E1,9.023818970E-1,3.203174591E0,8.311228752E-1,3.430070813E0
1.332445536E1,5.269994736E-1,3.740195751E0,8.837327957E-1,3.879146344E0
1.333269013E1,9.621906281E-2,4.085228920E0,1.048797727E0,4.218806716E0
1.334090855E1,-3.443746567E-1,4.041119576E0,1.097542167E0,4.201647312E0
1.334913871E1,-7.013254166E-1,3.780745029E0,7.013841867E-1,3.908686492E0
1.335737574E1,-9.050235748E-1,3.004730701E0,4.945703745E-1,3.176802499E0
1.336559824E1,-5.993599892E-1,1.896688938E0,3.018061519E-1,2.011901657E0
1.337384140E1,-4.829449654E-1,8.526058197E-1,1.456552744E-1,9.906502826E-1
1.338205436E1,-2.917075157E-1,-1.268386841E-4,1.167050600E-1,3.141868263E-1
1.339029936E1,-1.577157974E-1,-9.210004807E-1,5.956387520E-2,9.363033768E-1
1.339851298E1,1.299052238E-1,-1.735332966E0,-5.632913113E-2,1.741099894E0
1.340672671E1,2.646017075E-1,-2.133681774E0,4.829442501E-2,2.150568373E0
1.341496605E1,3.126697540E-1,-2.160922050E0,2.977315187E-1,2.203631217E0
1.342318713E1,2.938618660E-1,-1.847980499E0,4.577630758E-1,1.926378404E0
1.343140028E1,1.379675865E-1,-1.241133213E0,5.053957701E-1,1.347171701E0
1.343963994E1,-1.755409241E-1,-3.940229416E-1,3.015168309E-1,5.262899333E-1
1.344786320E1,-6.625084877E-1,5.656824112E-1,1.114565134E-2,8.712280483E-1
1.345608894E1,-9.646744728E-1,1.195331573E0,-2.968400717E-1,1.564457873E0
1.346429990E1,-1.099989891E0,1.717441082E0,-6.537988186E-1,2.141736334E0
1.347254398E1,-1.314027309E0,1.948429585E0,-8.009042740E-1,2.482839760E0
1.348075644E1,-1.431756496E0,1.876847267E0,-8.834680915E-1,2.520515463E0
1.348896797E1,-1.277723789E0,1.491573811E0,-7.219353914E-1,2.092501188E0
1.349720409E1,-9.839234352E-1,8.832168579E-1,-3.929349184E-1,1.379338680E0
1.350542563E1,-5.859889984E-1,1.379833221E-1,-2.418997288E-1,6.487973353E-1
