"Time (s)","Linear Acceleration x (m/s^2)","Linear Acceleration y (m/s^2)","Linear Acceleration z (m/s^2)","Absolute acceleration (m/s^2)"
1.814550000E-2,1.083467603E-1,1.605446815E0,1.816390455E-2,1.609201176E0
2.635957700E-2,2.698242664E-2,1.226221085E0,-3.866311908E-1,1.286013172E0
3.457453900E-2,-1.840173602E-1,7.477178574E-1,-8.145742416E-1,1.120926214E0
4.278980800E-2,-4.247174263E-1,1.761360168E-1,-1.068323731E0,1.163066801E0
5.100384600E-2,-5.507220626E-1,-4.050846100E-1,-1.156792879E0,1.343710570E0
5.921950000E-2,-5.027842522E-1,-9.540367126E-1,-1.101274967E0,1.541358040E0
6.743434600E-2,-3.875780404E-1,-1.380408287E0,-9.477733374E-1,1.718725713E0
7.564880800E-2,-3.012981117E-1,-1.685542107E0,-7.609643340E-1,1.873739433E0
8.386380800E-2,-1.614930183E-1,-1.868068695E0,-5.556832552E-1,1.955644274E0
9.207726900E-2,-1.721113175E-1,-1.818708897E0,-4.274218678E-1,1.876169984E0
1.002940390E-1,-5.420768261E-2,-1.652299881E0,-3.173974752E-1,1.683381872E0
1.085077310E-1,4.058670998E-2,-1.234515190E0,-2.885007858E-1,1.268427270E0
1.167208460E-1,1.055852771E-1,-7.112073898E-1,-1.930023432E-1,7.444555773E-1
1.249354620E-1,1.775976419E-1,-3.023424149E-1,-1.176651716E-1,3.698607182E-1
1.331492690E-1,2.308588028E-1,-2.118110657E-2,-9.290826321E-2,2.497526206E-1
1.413633460E-1,2.213463187E-1,5.901336670E-2,1.170837879E-2,2.293771052E-1
1.495781920E-1,2.421351373E-1,9.789466858E-3,1.584323645E-1,2.895273260E-1
1.577920380E-1,2.516555190E-1,-5.398368835E-2,6.928873062E-2,2.665439308E-1
1.660056920E-1,3.164343238E-1,-2.374515533E-1,1.358611584E-1,4.182967557E-1
1.742193840E-1,2.805515528E-1,-3.247318268E-1,1.244478226E-1,4.468189719E-1
1.824333840E-1,2.309259176E-1,-2.831926346E-1,2.249479294E-3,3.654174433E-1
1.906460380E-1,2.470351458E-1,-1.968212128E-1,4.001176357E-2,3.183801097E-1
1.988602310E-1,1.883608699E-1,-3.914356232E-2,1.221466064E-2,1.927724921E-1
2.070742310E-1,1.766024828E-1,1.674299240E-1,5.117523670E-2,2.486767404E-1
2.152893840E-1,1.545789838E-1,4.089202881E-1,1.868901849E-1,4.754349645E-1
2.235036150E-1,1.543355584E-1,5.854587555E-1,3.294783831E-1,6.893021282E-1
2.317189610E-1,1.667362452E-2,9.067258835E-1,2.817411423E-1,9.496356716E-1
2.399324610E-1,-8.047682047E-2,1.305287361E0,2.929032445E-1,1.340165633E0
2.481470380E-1,-1.352595091E-1,1.886786461E0,1.387796402E-1,1.896712438E0
2.563591150E-1,-7.329123020E-1,3.648432732E0,-7.994472980E-2,3.722178529E0
2.645731150E-1,-9.607458115E-1,4.287226677E0,-2.259912491E-1,4.399365538E0
2.727854610E-1,-9.367651939E-1,4.827869415E0,-4.081006050E-1,4.934814913E0
2.809993840E-1,-5.842851102E-2,2.616403580E0,-5.535030365E-1,2.674948073E0
2.892129610E-1,2.319713533E-1,-3.991594315E-1,-1.890709996E-1,4.988855614E-1
2.974266150E-1,-1.819556653E-1,-2.336277962E0,1.987214684E-1,2.351763764E0
3.056400380E-1,-6.138219833E-1,-3.461552620E0,5.447156429E-1,3.557504617E0
3.138540380E-1,-9.791659117E-1,-4.122508049E0,1.059997916E0,4.367772210E0
3.220684610E-1,-9.663270712E-1,-4.098418713E0,1.449612379E0,4.453335829E0
3.302832680E-1,-3.409866989E-1,-3.041703701E0,1.725836515E0,3.513793536E0
3.384984610E-1,9.088948369E-2,-1.280434608E0,1.638480186E0,2.081439648E0
3.467171920E-1,-1.508252025E-1,-1.196022034E-1,1.503364325E0,1.515637563E0
3.549315380E-1,-1.125217795E0,-4.262447357E-2,1.320008636E0,1.735037386E0
3.631452680E-1,-1.403866529E0,-1.070591927E0,9.380400181E-1,1.999231698E0
3.713588450E-1,-9.083294868E-1,-1.877675056E0,4.225410223E-1,2.128207459E0
3.795713840E-1,-9.467821121E-1,-1.485430717E0,-6.900727749E-2,1.762856429E0
3.877851530E-1,-1.046047688E0,-9.585762024E-2,-7.077997923E-1,1.266643199E0
3.959988840E-1,-1.063494802E0,1.562432289E0,-1.448010802E0,2.380955929E0
4.042135370E-1,-9.986259937E-1,2.801794052E0,-1.894991994E0,3.526797193E0
4.124266140E-1,-1.239093781E0,2.820079803E0,-1.803867459E0,3.569613607E0
4.206397300E-1,-1.331512332E0,2.127326012E0,-1.111811519E0,2.744916375E0
4.288529990E-1,-1.650799036E0,1.368640900E0,-1.661264896E-1,2.150793663E0
4.370693830E-1,-1.859760880E0,7.006406784E-1,8.654705286E-1,2.167636300E0
4.452838830E-1,-1.866449237E0,1.410064697E-1,1.482901573E0,2.387993437E0
4.534980370E-1,-1.844665766E0,-1.016607285E-1,1.767488837E0,2.556783816E0
4.617129600E-1,-1.908309937E0,1.046123505E-1,1.549258828E0,2.460242564E0
4.699279990E-1,-2.046018600E0,3.406152725E-1,9.484291673E-1,2.280729875E0
4.781436910E-1,-1.571838737E0,1.056747437E-1,5.342350006E-1,1.663505696E0
4.863603060E-1,-7.511742115E-1,-9.099178314E-1,4.540601373E-1,1.264272029E0
4.945764990E-1,-1.252146840E0,-1.224259377E0,6.833399534E-1,1.879796857E0
5.027921910E-1,-1.712672234E0,-1.011543274E0,5.285781622E-1,2.058120708E0
5.110081520E-1,-1.930131912E0,-5.905208588E-1,1.713156700E-1,2.025703123E0
5.192247290E-1,-2.148824692E0,-8.826923370E-2,-2.078685760E-1,2.160659242E0
5.274414990E-1,-2.332411766E0,3.776788712E-1,-3.617691994E-1,2.390326950E0
5.356558060E-1,-2.350157738E0,7.425708771E-1,-2.768213749E-1,2.480178012E0
5.438717290E-1,-2.319128275E0,1.027996063E0,-2.232478857E-1,2.546560716E0
5.520891140E-1,-2.420037985E0,1.155252457E0,-6.420433521E-2,2.682408299E0
5.603063060E-1,-2.390321016E0,1.112556458E0,2.425916791E-1,2.647690910E0
5.685244600E-1,-2.509907722E0,1.065443039E0,3.311971426E-1,2.746724812E0
5.767413060E-1,-2.661371946E0,9.734268188E-1,4.654772878E-1,2.871781592E0
5.849575370E-1,-3.013045788E0,9.347333908E-1,3.923517466E-1,3.179011061E0
5.931759600E-1,-3.210295439E0,8.918361664E-1,6.644153595E-2,3.332534025E0
6.013924600E-1,-3.417339325E0,6.650152206E-1,-1.007053852E-1,3.482900355E0
6.096079210E-1,-3.153921604E0,4.718914032E-1,-3.504302502E-1,3.208224484E0
6.178233440E-1,-2.712423086E0,5.398244858E-1,-5.786700249E-1,2.825510303E0
6.260384980E-1,-2.117290497E0,1.235078812E0,-6.781160831E-1,2.543261713E0
6.342533830E-1,-1.703403831E0,2.576853752E0,-7.784134150E-1,3.185543488E0
6.424679600E-1,-1.742007017E0,4.553310394E0,-6.582075357E-1,4.919396422E0
6.506822290E-1,-2.023375034E0,7.289317131E0,-4.782611132E-1,7.580034595E0
6.588965360E-1,-2.546475410E0,1.058631229E1,-5.111960173E-1,1.090026910E1
6.671095750E-1,-2.486981392E0,1.339850616E1,-7.788015604E-1,1.364959984E1
6.753234590E-1,-1.422321796E0,1.624835968E1,-1.821778059E0,1.641191844E1
6.835371130E-1,4.834212661E-1,1.820210648E1,-3.032994509E0,1.845939956E1
6.917509590E-1,2.807858467E0,1.813184357E1,-3.880517960E0,1.875383267E1
6.999646130E-1,6.165434837E0,1.555492973E1,-3.882306337E0,1.717674964E1
7.081766900E-1,6.176543713E0,1.100601196E1,-3.002445936E0,1.297292076E1
7.163889590E-1,3.370740414E0,6.116738319E0,-1.841049314E0,7.222592414E0
7.246019980E-1,4.387345314E-1,1.296819687E0,-1.363285661E0,1.932039617E0
7.328148440E-1,-1.123895049E0,-2.561835289E0,-1.088355660E0,3.001775837E0
7.410264980E-1,-2.294620514E0,-4.928020000E0,-7.891362906E-1,5.493031996E0
7.492393050E-1,-3.521872044E0,-6.723337173E0,-1.518631101E0,7.740354376E0
7.574513050E-1,-4.557897568E0,-8.544833183E0,-1.788212419E0,9.848162672E0
7.656644210E-1,-4.832461357E0,-1.024492359E1,-1.514154077E0,1.142820217E1
7.738780740E-1,-3.969216108E0,-1.171795845E1,-8.098580837E-1,1.239843123E1
7.820913050E-1,-3.314075470E0,-1.243509674E1,-1.916279793E-1,1.287056520E1
7.903041510E-1,-2.981721401E0,-1.262877846E1,2.768164277E-1,1.297895740E1
7.985179970E-1,-2.457765341E0,-1.267703438E1,7.782272696E-1,1.293651610E1
8.067312670E-1,-1.642061114E0,-1.260384083E1,1.176565170E0,1.276469639E1
8.149447280E-1,-1.212781549E0,-1.223445702E1,1.630795360E0,1.240210753E1
8.231590360E-1,-8.604086637E-1,-1.183240795E1,2.153189182E0,1.205746261E1
8.313721900E-1,-7.583680749E-1,-1.151718235E1,2.531588078E0,1.181649481E1
8.395873430E-1,-8.035681248E-1,-1.111173820E1,2.597284794E0,1.143950768E1
8.477994590E-1,-9.142816663E-1,-1.075558758E1,2.283818722E0,1.103333146E1
8.560134200E-1,-9.355370998E-1,-1.057325840E1,3.586874485E0,1.120422650E1
8.642252660E-1,-2.014936209E-1,-1.042222309E1,3.857761860E0,1.111510955E1
8.724373820E-1,-4.305838048E-1,-9.871962547E0,3.682142019E0,1.054510393E1
8.806506510E-1,-4.756895006E-1,-9.282074928E0,3.583544254E0,9.961173871E0
8.888633430E-1,-3.524559140E-1,-8.954790115E0,3.101930141E0,9.483378184E0
8.970763050E-1,-1.860365868E-1,-8.841836929E0,2.526252270E0,9.197534475E0
9.052904970E-1,-3.055604696E-1,-8.733205795E0,1.518411398E0,8.869488364E0
9.135041890E-1,-1.910371780E-1,-8.347599983E0,2.867984772E-2,8.349834922E0
9.217168430E-1,1.628768444E-1,-7.908438683E0,-1.852022171E0,8.124033320E0
9.299300740E-1,-2.988275886E-1,-7.736706734E0,-1.747013330E0,7.937126973E0
9.381433820E-1,-4.363865256E-1,-3.686179161E0,-1.389304399E0,3.963397119E0
9.463570350E-1,9.599840641E-2,-1.484928131E-1,-2.161255836E0,2.168477023E0
9.545699970E-1,-7.454319000E-1,2.754997253E0,-2.860954046E0,4.041130614E0
9.627817660E-1,-1.545122623E0,5.460734367E0,-3.379846096E0,6.605329923E0
9.709941120E-1,-2.897915125E0,8.727951050E0,-2.633877754E0,9.566208947E0
9.792064200E-1,-3.289348125E0,9.406061172E0,-1.416312456E0,1.006477714E1
9.874179580E-1,-2.847647905E0,1.041701889E1,2.520667553E0,1.108950612E1
9.956294200E-1,-2.194230080E0,1.078286266E1,3.886499643E0,1.167003223E1
1.003843151E0,-3.433002949E0,1.019911861E1,2.225584984E0,1.098912000E1
1.012055727E0,-2.685467243E0,9.063367844E0,1.360968351E0,9.550319672E0
1.020266458E0,-1.534824729E0,7.722621918E0,1.026649356E0,7.940313919E0
1.028477997E0,-6.675833464E-1,6.023025513E0,4.999214411E-1,6.080495481E0
1.036689766E0,1.275565624E-1,3.985837936E0,8.044540882E-2,3.988689784E0
1.044902073E0,7.032907009E-1,2.733181953E0,-4.151796103E-1,2.852591017E0
1.053113650E0,9.675768018E-1,2.155220032E0,-5.385335684E-1,2.423055232E0
1.061325496E0,1.232431054E0,1.839796066E0,-6.666896343E-1,2.312619929E0
1.069538804E0,1.332844019E0,1.713485718E0,-7.671701908E-1,2.302402351E0
1.077751304E0,1.327430010E0,1.947577477E0,-9.217720032E-1,2.530769070E0
1.085969381E0,1.096405506E0,2.988537788E0,-1.349309444E0,3.457470047E0
1.094181458E0,9.068543911E-1,4.602381706E0,-2.057734966E0,5.122360340E0
1.102393881E0,8.908885121E-1,6.322972298E0,-2.867180109E0,6.999598760E0
1.110608535E0,8.450991511E-1,7.987930298E0,-3.601937294E0,8.803134401E0
1.118823304E0,6.097061038E-1,9.965189934E0,-3.965929985E0,1.074268833E1
1.127036458E0,1.854069829E-1,1.193798447E1,-4.027040958E0,1.260027411E1
1.135248342E0,-2.912992835E-1,1.366523361E1,-3.984292269E0,1.423720653E1
1.143462573E0,-8.431365490E-1,1.477248096E1,-3.833499193E0,1.528505117E1
1.151676496E0,-1.293511987E0,1.614094162E1,-3.544840813E0,1.657615957E1
1.159891765E0,-1.986316442E0,1.724829483E1,-2.961719036E0,1.761308909E1
1.168106111E0,-2.734517097E0,1.794067192E1,-2.168045759E0,1.827691755E1
1.176319611E0,-3.758271456E0,1.821506500E1,-6.798135042E-1,1.861116181E1
1.184532381E0,-4.437034607E0,1.780899239E1,1.388972282E0,1.840588846E1
1.192745688E0,-4.498572826E0,1.593298531E1,3.245428562E0,1.687098055E1
1.200959765E0,-3.898945093E0,1.251596642E1,4.256372452E0,1.378288412E1
1.209173650E0,-2.885634422E0,9.255074501E0,4.256911278E0,1.058794521E1
1.217387650E0,-1.804171562E0,5.917063713E0,3.476454258E0,7.095943364E0
1.225600573E0,-1.153602123E0,3.242650986E0,2.229567289E0,4.100799138E0
1.233811842E0,-7.760045528E-1,1.017283440E0,9.875503778E-1,1.616262482E0
1.242024227E0,-8.363307118E-1,-9.924631119E-1,5.431294441E-2,1.298992680E0
1.250237034E0,-9.141182899E-1,-2.675159931E0,-5.615165234E-1,2.882254970E0
1.258450265E0,-1.012144685E0,-4.167746067E0,-8.485722542E-1,4.372026877E0
1.266663765E0,-1.115158439E0,-5.638464451E0,-6.866483688E-1,5.788552988E0
1.274874380E0,-1.122399569E0,-6.948323250E0,-4.649858475E-1,7.053735791E0
1.283086226E0,-9.367619753E-1,-7.919731140E0,-2.379623652E-1,7.978489232E0
1.291297957E0,-6.482575536E-1,-8.956635475E0,2.423851490E-1,8.983334985E0
1.299509111E0,-2.784683108E-1,-9.862570763E0,1.005320072E0,9.917586153E0
1.307721765E0,1.110163927E-1,-1.060777378E1,1.926858902E0,1.078192814E1
1.315933688E0,5.489696860E-1,-1.108353806E1,2.571964979E0,1.139127681E1
1.324146688E0,7.934828997E-1,-1.132777023E1,3.101871490E0,1.177155896E1
1.332364265E0,9.255121946E-1,-1.134456253E1,3.441719770E0,1.189121974E1
1.340577495E0,6.837736964E-1,-1.100460434E1,3.625227451E0,1.160651271E1
1.348791303E0,3.120866418E-1,-1.050052166E1,1.023704052E0,1.055491938E1
1.357004726E0,3.314468861E-1,-1.079961395E1,1.249639392E0,1.087672364E1
1.365219688E0,6.056541204E-1,-1.133403683E1,2.209846735E0,1.156333128E1
1.373432495E0,9.741159678E-1,-1.148979855E1,1.986508727E0,1.170087986E1
1.381646726E0,1.226827025E0,-1.167137718E1,1.918773532E0,1.189150292E1
1.389860572E0,1.582493424E0,-1.175128174E1,1.693312526E0,1.197765483E1
1.398072918E0,1.952549219E0,-1.183009243E1,1.556275129E0,1.209072072E1
1.406284803E0,2.470787287E0,-1.193889332E1,1.323908567E0,1.226355158E1
1.414496572E0,2.932594538E0,-1.202046013E1,1.239675999E0,1.243496558E1
1.422707880E0,2.996318102E0,-1.197229958E1,1.175368547E0,1.239739370E1
1.430921187E0,3.032584667E0,-1.183995914E1,1.222610235E0,1.228315831E1
1.439133264E0,2.829671621E0,-1.174852848E1,1.184747696E0,1.214242933E1
1.447345033E0,2.539024830E0,-1.168909836E1,1.244020700E0,1.202619038E1
1.455556533E0,2.311632156E0,-1.154970932E1,1.310385704E0,1.185143617E1
1.463768726E0,2.170889139E0,-1.149563026E1,1.365416050E0,1.177822719E1
1.471979687E0,1.894605517E0,-1.135463333E1,1.588693380E0,1.162072179E1
1.480191533E0,1.354395747E0,-1.106660557E1,1.895791769E0,1.130920745E1
1.488403572E0,6.899173260E-1,-1.025984573E1,1.988253593E0,1.047346995E1
1.496615379E0,3.661263883E-1,-9.683720589E0,1.768348813E0,9.850662439E0
1.504827918E0,3.539186418E-1,-9.288141251E0,1.568040490E0,9.426217549E0
1.513040149E0,3.673173487E-1,-8.965587616E0,1.331233621E0,9.071321088E0
1.521253418E0,4.204396009E-1,-8.788120270E0,1.016095281E0,8.856651566E0
1.529466110E0,2.702955008E-1,-8.689239502E0,4.429895878E-1,8.704721854E0
1.537680379E0,2.752268016E-1,-8.396876335E0,-8.949801922E-1,8.448921323E0
1.545894264E0,3.903335035E-1,-7.640113354E0,-3.819428444E0,8.550539512E0
1.554106148E0,-1.031591177E0,-6.632412434E0,-6.714996815E0,9.494432962E0
1.562317995E0,-1.550577641E0,-5.089673996E0,-5.943806648E0,7.977337267E0
1.570530225E0,-1.236593723E0,1.169457912E1,-9.196286201E0,1.492863104E1
1.578746648E0,-5.586245537E0,2.896660042E1,-1.237254620E1,3.198984180E1
1.586960379E0,-5.113168240E0,3.303540039E1,-1.032898808E1,3.498814318E1
1.595172918E0,-5.607326031E0,3.939250183E1,-8.014460564E0,4.058870389E1
1.603384494E0,-5.100610256E0,4.241728973E1,-2.621232986E0,4.280319563E1
1.611594917E0,-4.200143814E0,4.159829330E1,8.379997253E0,4.264133638E1
1.619805994E0,-3.397816181E0,3.689205170E1,2.218323517E1,4.318176184E1
1.628017648E0,-3.198982239E0,2.473251724E1,2.291915131E1,3.387061253E1
1.636241340E0,6.540358067E-2,1.262062836E1,1.308605289E1,1.818046529E1
1.644453417E0,1.640673876E0,5.817708015E0,5.895235538E0,8.443419886E0
1.652665571E0,1.102301598E0,1.753233910E0,1.588029146E0,2.609738401E0
1.660877417E0,3.232055306E-1,-1.033827782E0,-4.529730082E-1,1.174072503E0
1.669089533E0,1.167070866E-1,-4.149073601E0,3.221683502E-1,4.163198858E0
1.677300917E0,6.627962589E-1,-7.924511909E0,4.030325413E-1,7.962388028E0
1.685512609E0,-1.414580822E0,-8.251025200E0,-5.019903183E-1,8.386444421E0
1.693724033E0,-3.666900158E0,-8.552963257E0,1.742550850E0,9.467619590E0
1.701935725E0,-4.309122562E0,-9.172470093E0,2.989563942E0,1.056599439E1
1.710149802E0,-3.089382172E0,-8.930610657E0,5.455298424E-1,9.465605724E0
1.718363532E0,-2.359316826E0,-8.373545647E0,-9.803289175E-1,8.754638049E0
1.726575455E0,-1.236907601E0,-7.861989021E0,-1.912066936E0,8.185158016E0
1.734787763E0,-2.825391889E-1,-7.407708168E0,-2.239911079E0,7.744105522E0
1.742999840E0,1.422783434E-1,-6.878948212E0,-2.423285961E0,7.294688922E0
1.751210955E0,9.296736121E-2,-5.913375854E0,-2.626438141E0,6.471076745E0
1.759423725E0,-1.242421865E-1,-4.563539028E0,-2.796007395E0,5.353408441E0
1.767636494E0,-1.543567777E-1,-2.868628979E0,-2.787823200E0,4.003100852E0
1.775848263E0,-6.232875586E-2,-8.078031540E-1,-2.495236397E0,2.623477746E0
1.784062071E0,2.650565505E-1,1.247865677E0,-8.085091114E-1,1.510334634E0
1.792274917E0,2.675064206E-1,3.171939850E0,2.455313206E0,4.020115052E0
1.800488801E0,3.724138141E-1,4.787985802E0,6.156551838E0,7.808113128E0
1.808702878E0,1.183797121E-1,5.695821762E0,8.425647736E0,1.017093600E1
1.816917340E0,-4.289131165E-1,5.707014084E0,6.451700211E0,8.624291961E0
1.825134070E0,-1.648584008E-2,4.639617920E0,2.693767786E0,5.364952107E0
1.833347147E0,6.182891726E-1,3.364082336E0,-5.638473034E-1,3.466591301E0
1.841561147E0,1.081274867E0,2.294249535E0,-2.223557234E0,3.372972434E0
1.849775032E0,1.297308087E0,1.492425919E0,-2.828067780E0,3.450842037E0
1.857987917E0,1.193878651E0,8.941555023E-1,-2.836643457E0,3.204903493E0
1.866201070E0,1.037417650E0,4.639196396E-1,-2.458675146E0,2.708604860E0
1.874413301E0,7.448918819E-1,1.973257065E-1,-2.104387283E0,2.241037079E0
1.882626109E0,3.324480057E-1,-3.484821320E-2,-1.661331296E0,1.694626139E0
1.890838109E0,4.729118943E-2,-2.998504639E-1,-1.230075479E0,1.266977679E0
1.899050493E0,-3.006169200E-2,-5.645647049E-1,-8.011530638E-1,9.805525192E-1
1.907268109E0,4.097396135E-1,-9.179801941E-1,-6.843191385E-1,1.216086704E0
1.915482109E0,9.265986681E-1,-1.216715813E0,-8.457354307E-1,1.747641519E0
1.923694839E0,1.303714633E0,-1.309898376E0,-1.179871559E0,2.192624568E0
1.931908147E0,1.644538164E0,-1.274085045E0,-1.465762138E0,2.544849135E0
1.940121301E0,1.849214077E0,-1.156973839E0,-1.764141798E0,2.805419300E0
1.948333608E0,1.554712653E0,-1.020684242E0,-1.714105129E0,2.529245767E0
1.956546262E0,9.376441240E-1,-9.514236450E-1,-1.356655836E0,1.903916625E0
1.964758031E0,3.451280296E-1,-9.828691483E-1,-9.599307179E-1,1.416549365E0
1.972969070E0,1.232464612E-1,-1.153410912E0,-6.304855347E-1,1.320249382E0
1.981182262E0,7.015869021E-2,-1.372062683E0,-3.300597668E-1,1.412946460E0
1.989398262E0,-1.028866470E-1,-1.557305336E0,-2.868862450E-2,1.560964000E0
1.997611031E0,-4.690238833E-1,-1.780969620E0,2.667834163E-1,1.860916328E0
2.005824070E0,-9.736983776E-1,-2.016749859E0,4.927948415E-1,2.293079868E0
2.014035762E0,-1.255297661E0,-2.202284336E0,6.740443110E-1,2.623006719E0
2.022249147E0,-1.433938026E0,-2.411520004E0,8.240690827E-1,2.924157459E0
2.030462262E0,-1.550868988E0,-2.670361519E0,1.001222014E0,3.246301092E0
2.038674262E0,-1.676774979E0,-2.920880318E0,1.102412581E0,3.543787474E0
2.046887147E0,-1.725879550E0,-3.246335030E0,1.188568354E0,3.863941780E0
2.055099147E0,-1.840539336E0,-3.629494667E0,1.346201539E0,4.286382527E0
2.063312300E0,-1.829247236E0,-4.105577946E0,1.334491968E0,4.688580226E0
2.071531839E0,-1.900122285E0,-4.532799244E0,9.654432535E-1,5.008873562E0
2.079744416E0,-1.928706884E0,-4.935343742E0,7.402546406E-1,5.350280837E0
2.087957608E0,-1.981392264E0,-5.444430828E0,5.937995911E-1,5.824117126E0
2.096170454E0,-2.134238720E0,-5.806668282E0,8.212029934E-2,6.187011814E0
2.104382839E0,-1.812094450E0,-5.816820145E0,-7.207357883E-1,6.135025914E0
2.112595223E0,-1.509174347E0,-5.486041546E0,-1.811288834E0,5.971182989E0
2.120807185E0,-1.037073851E0,-4.852335453E0,-2.735846996E0,5.666175104E0
2.129019915E0,-5.694907904E-1,-3.953366280E0,-3.539746284E0,5.336968096E0
2.137231531E0,-4.356495738E-1,-2.592678070E0,-3.644989491E0,4.494187191E0
2.145445069E0,-3.582462966E-1,-1.024524689E0,-3.437993050E0,3.605244438E0
2.153659992E0,-3.598194122E-1,1.419652939E0,-2.904285431E0,3.252654046E0
2.161874069E0,-3.155133724E-1,4.126350403E0,-1.658543229E0,4.458372122E0
2.170087685E0,-9.518092871E-2,6.904658318E0,-1.853789091E-1,6.907802200E0
2.178301338E0,-3.060585260E-2,9.276746750E0,9.300980568E-1,9.323306783E0
2.186514992E0,-6.112796068E-1,1.116952801E1,1.287945390E0,1.126014307E1
2.194727877E0,-1.801364660E0,1.238951778E1,7.456012964E-1,1.254196902E1
2.202942069E0,-2.635596752E0,1.308889866E1,-2.527412176E-1,1.335400751E1
2.211154569E0,-2.844804287E0,1.351993370E1,-1.237127185E0,1.387126535E1
2.219367800E0,-2.682034492E0,1.417353439E1,-2.301208973E0,1.460746210E1
2.227581723E0,-2.199694157E0,1.484658623E1,-3.131211281E0,1.533180554E1
2.235797107E0,-1.777327776E0,1.554253387E1,-3.808729410E0,1.610079728E1
2.244008953E0,-1.341326237E0,1.638589096E1,-4.274081230E0,1.698718190E1
2.252220877E0,-7.538188696E-1,1.734177208E1,-4.288825512E0,1.788013775E1
2.260432300E0,-2.448735833E-1,1.819298553E1,-3.870415688E0,1.860174194E1
2.268643838E0,1.755148172E-1,1.864687157E1,-2.939570427E0,1.887796861E1
2.276854915E0,3.900722265E-1,1.841845512E1,-1.692514181E0,1.850016891E1
2.285066799E0,6.424416900E-1,1.709621048E1,2.161400318E-1,1.710964233E1
2.293277299E0,7.308827043E-1,1.460673714E1,2.181111336E0,1.478675779E1
2.301488876E0,2.084618211E-1,1.116894913E1,3.921182156E0,1.183911105E1
2.309701492E0,-8.662751913E-1,8.047408104E0,4.497759819E0,9.259646499E0
2.317920376E0,-1.242646813E0,5.246617317E0,3.933504343E0,6.674100748E0
2.326131607E0,-1.393019438E0,2.990012169E0,2.696282387E0,4.260353816E0
2.334342799E0,-1.472903490E0,1.022797585E0,1.522431731E0,2.352309071E0
2.342591376E0,-1.362518191E0,-7.161941528E-1,8.605915308E-1,1.763521383E0
2.350803068E0,-1.460692763E0,-2.606414795E0,4.315977693E-1,3.018823954E0
2.359015645E0,-1.470233917E0,-4.267882347E0,2.954208851E-1,4.523680028E0
2.367228722E0,-1.449632764E0,-5.957436562E0,3.375117779E-1,6.140553699E0
2.375440799E0,-1.070611477E0,-7.498840332E0,4.745836854E-1,7.589732863E0
2.383653530E0,-8.326576352E-1,-8.528414726E0,5.498111844E-1,8.586586564E0
2.391865607E0,-5.481339693E-1,-9.352134705E0,7.767635584E-1,9.400331697E0
2.400081761E0,-3.151999414E-1,-9.922986031E0,1.097723007E0,9.988493308E0
2.408294568E0,-1.251772642E-1,-1.017499542E1,1.453456521E0,1.027904359E1
2.416507761E0,5.446383357E-2,-1.058386898E1,2.213067055E0,1.081290501E1
2.424721684E0,3.529825509E-1,-1.100258160E1,3.074183702E0,1.142943585E1
2.432935453E0,7.000349760E-1,-1.107632828E1,3.500723362E0,1.163744650E1
2.441149260E0,9.397305846E-1,-1.104925537E1,3.303437710E0,1.157073198E1
2.449362376E0,1.176270962E0,-1.104612350E1,3.053218126E0,1.152052945E1
2.457575991E0,1.528766751E0,-1.129246712E1,2.692947626E0,1.170935132E1
2.465790568E0,1.558629274E0,-1.131883907E1,2.536332846E0,1.170377834E1
2.474001914E0,1.411058426E0,-1.111562157E1,2.229177952E0,1.142441959E1
2.482217414E0,1.352476716E0,-1.106609154E1,1.879631996E0,1.130577691E1
2.490428453E0,1.669711590E0,-1.113744640E1,1.282937765E0,1.133475092E1
2.498639414E0,1.600095749E0,-1.108560371E1,1.085081816E0,1.125292489E1
2.506850991E0,1.362861037E0,-1.095420551E1,1.090533018E0,1.109239699E1
2.515062645E0,1.250893831E0,-1.088231659E1,1.016138077E0,1.100100388E1
2.523275568E0,1.260660291E0,-1.089188194E1,9.978273511E-1,1.100990536E1
2.531488991E0,1.366359949E0,-1.086869335E1,1.067660332E0,1.100614979E1
2.539700799E0,1.406466961E0,-1.084872532E1,1.247292519E0,1.101039186E1
2.547912952E0,1.347165108E0,-1.080603027E1,1.409602880E0,1.098053388E1
2.556125491E0,1.272111654E0,-1.073131371E1,1.608787298E0,1.092554614E1
2.564344683E0,1.089537382E0,-1.067238522E1,1.831515431E0,1.088307616E1
2.572555798E0,1.038430333E0,-1.061470413E1,2.003003359E0,1.085183412E1
2.580768029E0,9.731301665E-1,-1.058395958E1,2.127226353E0,1.083938534E1
2.588979760E0,8.836553097E-1,-1.055841446E1,2.222101450E0,1.082583472E1
2.597191606E0,8.052592874E-1,-1.055228233E1,2.283766031E0,1.082657343E1
2.605404414E0,7.877253890E-1,-1.053694153E1,2.297503471E0,1.081324051E1
2.613616837E0,6.301908493E-1,-1.050992203E1,2.268443108E0,1.077039626E1
2.621830260E0,5.560845137E-3,-1.019591618E1,1.945241451E0,1.037982186E1
2.630043029E0,-2.948579788E-1,-9.231915474E0,1.249892950E0,9.320806667E0
2.638254260E0,-5.095188320E-2,-8.562259674E0,1.154706478E-1,8.563189843E0
2.646471144E0,-5.365191698E-1,-7.520900249E0,-2.332807779E0,7.892641226E0
2.654682875E0,-1.549200416E0,-5.531054497E0,-6.776755333E0,8.883523998E0
2.662894837E0,-2.740770102E0,-4.887791634E0,-9.417407990E0,1.095855378E1
2.671107375E0,-2.939290762E0,-5.802662373E0,-7.655833244E0,1.004599938E1
2.679319760E0,-3.008229256E0,-2.431738853E0,-4.667935371E0,6.062377235E0
2.687533259E0,-7.403570652E0,1.408701038E1,-1.141278744E1,1.958337144E1
2.695745490E0,-9.212039948E0,3.043496323E1,-1.680217171E1,3.596472773E1
2.703958106E0,-6.742435455E0,3.922704697E1,-1.308525372E1,4.189803712E1
2.712169490E0,-1.103359222E0,4.255861282E1,-6.798366547E0,4.311230352E1
2.720381875E0,5.001041412E0,4.188680267E1,2.831560671E-1,4.218524423E1
2.728596452E0,8.064624786E0,3.768101883E1,4.726637840E0,3.882316909E1
2.736806721E0,1.156144333E1,2.877357864E1,1.056935501E1,3.276121282E1
2.745018375E0,1.013276291E1,1.824672699E1,1.044861031E1,2.334072380E1
2.753229990E0,4.901967525E0,9.076323509E0,9.425663948E0,1.397326286E1
2.761441067E0,7.673168182E-1,3.051331520E0,8.701020241E0,9.252413327E0
2.769653067E0,-1.476972818E0,-5.770540237E-1,8.421627998E0,8.569612488E0
2.777864875E0,-1.901792884E0,-2.698427677E0,6.587081909E0,7.368037471E0
2.786076951E0,-2.105544090E0,-3.864748478E0,4.101926804E0,6.016261315E0
2.794290221E0,-1.873008728E0,-4.663085461E0,2.108147621E0,5.449478333E0
2.802502682E0,-1.069906235E0,-5.032245636E0,9.225465655E-1,5.226785595E0
2.810719797E0,-3.644368649E-1,-6.293438911E0,4.115854263E0,7.528641569E0
2.818931682E0,-2.751669288E-1,-6.993339062E0,-1.305413246E-2,6.998762639E0
2.827143259E0,-2.431075096E0,-5.410761833E0,-1.313853741E0,6.075580745E0
2.835354644E0,-3.754376411E0,-3.988533497E0,-3.510406017E-1,5.488804168E0
2.843567451E0,-4.699845791E0,-3.241316795E0,4.737313271E0,7.418680614E0
2.851781413E0,-1.338441133E0,-3.377423286E0,2.216521740E0,4.255746861E0
2.859994028E0,1.678271770E0,-4.288870811E0,-2.589170933E-1,4.612813353E0
2.868206067E0,2.173722267E0,-4.949497223E0,-2.996833324E-1,5.414092847E0
2.876417605E0,1.391143799E0,-5.005271435E0,-5.954086781E-2,5.195341021E0
2.884630451E0,-1.154321283E-1,-4.654941559E0,-2.236227989E-1,4.661739230E0
2.892845182E0,-1.423226833E0,-4.140530586E0,-4.431170225E-1,4.400672772E0
2.901057528E0,-2.419534445E0,-3.583633423E0,-6.820219755E-1,4.377411269E0
2.909268066E0,-3.134892464E0,-3.037190914E0,-1.172012210E0,4.519479177E0
2.917478912E0,-3.362616301E0,-2.313498974E0,-1.375833392E0,4.307247777E0
2.925691874E0,-2.928751945E0,-1.258578300E0,-1.354619861E0,3.463611159E0
2.933904605E0,-2.118577957E0,4.268264771E-2,-1.134466767E0,2.403582579E0
2.942117451E0,-1.135425210E0,1.294590950E0,-1.057940245E0,2.020988297E0
2.950328951E0,5.157267451E-1,2.734030724E0,-7.612642646E-1,2.884514058E0
2.958541105E0,1.822251797E0,3.936762810E0,8.433161676E-2,4.338872532E0
2.966753105E0,2.591635227E0,4.730003357E0,1.476686835E0,5.591968251E0
2.974967335E0,2.368762732E0,4.744535446E0,2.809183598E0,6.001097063E0
2.983179797E0,1.487892985E0,4.116198540E0,3.230971098E0,5.440228873E0
2.991391720E0,9.463121891E-1,3.074035645E0,2.626657486E0,4.152653543E0
2.999602835E0,1.132763267E0,1.866527557E0,1.532445192E0,2.667483085E0
3.007815681E0,1.406420231E0,9.577236176E-1,3.993096352E-1,1.747770173E0
3.016028258E0,1.593239546E0,1.728649139E-1,-6.452653408E-1,1.727617402E0
3.024240297E0,1.886136532E0,-3.251924515E-1,-1.468651295E0,2.412508606E0
3.032450912E0,1.983670473E0,-4.837331772E-1,-2.055450678E0,2.897209661E0
3.040663335E0,1.589397430E0,-3.769035339E-1,-2.335959196E0,2.850429061E0
3.048876027E0,7.777513266E-1,-2.725877762E-1,-2.249505520E0,2.395720415E0
3.057097220E0,1.227397919E-1,-2.616043091E-1,-2.024557352E0,2.045075633E0
3.065310835E0,-1.911459565E-1,-2.432069778E-1,-1.819654226E0,1.845759441E0
3.073523296E0,-3.878202140E-1,-2.653636932E-1,-1.671129704E0,1.735942653E0
3.081735950E0,-5.462641716E-1,-2.538394928E-1,-1.474097729E0,1.592420531E0
3.089948220E0,-6.974447966E-1,-2.948465347E-1,-1.206998110E0,1.424853733E0
3.098159566E0,-8.055096269E-1,-3.477468491E-1,-9.955945015E-1,1.327019985E0
3.106371566E0,-7.729720473E-1,-4.819993973E-1,-7.332488298E-1,1.169385758E0
3.114582027E0,-6.297992468E-1,-6.425666809E-1,-4.831954241E-1,1.021281963E0
3.122793604E0,-4.263568223E-1,-7.745094299E-1,-2.309843302E-1,9.137826644E-1
3.131004373E0,-2.955912650E-1,-8.493003845E-1,-4.079937935E-4,8.992694288E-1
3.139218758E0,-3.070355952E-1,-9.052982330E-1,1.816622913E-1,9.730554637E-1
3.147430873E0,-3.575825691E-1,-9.281234741E-1,3.999522328E-1,1.072026243E0
3.155642027E0,-4.336622059E-1,-9.679927826E-1,5.633968115E-1,1.201036595E0
3.163855065E0,-5.621241927E-1,-9.672136307E-1,6.381350756E-1,1.287906126E0
3.172067065E0,-7.187145352E-1,-1.007005692E0,5.764493942E-1,1.364882761E0
3.180281258E0,-8.716455102E-1,-1.118240356E0,3.955777884E-1,1.471974584E0
3.188493373E0,-9.461653233E-1,-1.315003395E0,1.976338625E-1,1.632029991E0
3.196705334E0,-1.081248760E0,-1.558867455E0,5.832019448E-2,1.898043168E0
3.204916565E0,-1.149718285E0,-1.835343361E0,-2.126976103E-2,2.165823120E0
3.213128104E0,-1.325270295E0,-2.266588211E0,-2.363802493E-2,2.625704140E0
3.221344104E0,-1.547106147E0,-2.689687252E0,3.568807244E-2,3.103099834E0
3.229554988E0,-1.695963860E0,-3.181317806E0,1.590059698E-1,3.608650620E0
3.237767104E0,-1.811496735E0,-3.659900665E0,2.823507488E-1,4.093423414E0
3.245977604E0,-1.776534915E0,-4.190077305E0,3.956235647E-1,4.568297509E0
3.254188103E0,-1.508456707E0,-4.814814568E0,5.302761197E-1,5.073369070E0
3.262397373E0,-1.094557405E0,-5.378522873E0,6.391844749E-1,5.525859300E0
3.270607373E0,-6.650416851E-1,-5.730659485E0,6.769710183E-1,5.808702810E0
3.278817526E0,-3.295664191E-1,-5.839859009E0,7.238340378E-1,5.893768148E0
3.287029026E0,1.685501337E-1,-5.533871651E0,4.814231992E-1,5.557329655E0
3.295240603E0,4.453294277E-1,-4.760077953E0,1.685196161E-1,4.783833116E0
3.303459526E0,6.923913956E-1,-3.369869709E0,-3.949010372E-1,3.462856412E0
3.311669873E0,7.436800003E-1,-1.566784859E0,-7.568581104E-1,1.892276126E0
3.319880603E0,6.942064762E-1,5.189218521E-1,-1.116940260E0,1.413774404E0
3.328090796E0,9.422814846E-1,2.710573196E0,-8.355764151E-1,2.988860886E0
3.336301872E0,1.630932689E0,4.674728394E0,1.357469559E-1,4.952923806E0
3.344513488E0,2.308095217E0,6.422358513E0,1.488130093E-1,6.826136368E0
3.352723988E0,2.908835411E0,7.877101898E0,-7.716469765E-1,8.432407534E0
3.360937449E0,2.949727535E0,9.292383194E0,-2.433982372E0,1.004855951E1
3.369150372E0,2.487949371E0,1.058567429E1,-3.965582371E0,1.157463761E1
3.377362411E0,1.627844810E0,1.147953415E1,-4.614212036E0,1.247880346E1
3.385577372E0,6.597853899E-1,1.276616573E1,-4.590715408E0,1.358252452E1
3.393788064E0,-7.297587395E-2,1.440627289E1,-3.917723656E0,1.492965447E1
3.401999564E0,-6.732003689E-1,1.589991951E1,-2.860348701E0,1.616917542E1
3.410211334E0,-1.214007139E0,1.761954117E1,-6.620628834E-1,1.767371980E1
3.418423911E0,-1.808938980E0,1.926306152E1,1.725618482E0,1.942461219E1
3.426636603E0,-2.554583311E0,2.032182312E1,3.706063509E0,2.081435316E1
3.434848872E0,-2.792993546E0,2.026290894E1,3.520439625E0,2.075523516E1
3.443061526E0,-3.120555878E0,1.946442032E1,1.588442087E0,1.977687224E1
3.451274141E0,-3.650901079E0,1.804574203E1,-2.501507998E-1,1.841305134E1
3.459486949E0,-3.811432838E0,1.548953724E1,-1.122421622E0,1.599101668E1
3.467701757E0,-3.719966173E0,1.248129559E1,-1.286198258E0,1.308721490E1
3.475914718E0,-3.134315491E0,8.836468697E0,-7.757332325E-1,9.407915533E0
3.484128526E0,-2.060210228E0,5.738087654E0,-3.656017780E-2,6.096839571E0
3.492341833E0,-1.219290733E0,2.969091415E0,7.801278830E-1,3.303145961E0
3.500555141E0,-9.070289135E-1,6.573028564E-1,1.341696978E0,1.747827015E0
3.508767795E0,-1.062192202E0,-1.490756035E0,1.510079622E0,2.372961503E0
3.516979795E0,-1.200751781E0,-3.511986256E0,1.438884377E0,3.980733670E0
3.525192487E0,-1.415086985E0,-5.239165783E0,1.229109645E0,5.564354392E0
3.533405026E0,-1.423027873E0,-6.640668392E0,1.162904143E0,6.890270754E0
3.541618372E0,-1.294357896E0,-7.974953175E0,1.208843708E0,8.169243760E0
3.549839025E0,-1.138208270E0,-9.070591927E0,1.324006081E0,9.237107126E0
3.558053602E0,-1.059026241E0,-9.931334496E0,1.435934544E0,1.009033446E1
3.566269179E0,-8.652800918E-1,-1.061181545E1,1.716984272E0,1.078458955E1
3.574484179E0,-7.272428870E-1,-1.117876434E1,2.042013407E0,1.138698701E1
3.582698795E0,-5.149516463E-1,-1.147411346E1,2.332731962E0,1.172015757E1
3.590912025E0,-3.817347288E-1,-1.167713451E1,2.629625320E0,1.197564700E1
3.599125756E0,-2.254506946E-1,-1.176313400E1,2.618966103E0,1.205326234E1
3.607342718E0,-2.698719501E-2,-1.174899673E1,2.477124453E0,1.200732269E1
3.615557102E0,1.076299548E-1,-1.167537689E1,2.298326492E0,1.189992918E1
3.623771871E0,3.801952302E-1,-1.168115234E1,2.339412451E0,1.191917443E1
3.631990487E0,5.204880834E-1,-1.160590649E1,2.186429977E0,1.182152483E1
3.640205525E0,4.034402370E-1,-1.093244553E1,5.792452693E-1,1.095521128E1
3.648420564E0,6.323869228E-1,-1.103878593E1,5.844279528E-1,1.107231973E1
3.656634256E0,1.152306914E0,-1.144586182E1,9.323666096E-1,1.154144148E1
3.664848987E0,1.018660069E0,-1.149011707E1,1.353679657E0,1.161434059E1
3.673064448E0,7.352294326E-1,-1.130305195E1,1.208371758E0,1.139121187E1
3.681280102E0,6.420482397E-1,-1.126073456E1,1.426984549E0,1.136893371E1
3.689495256E0,6.053066254E-1,-1.120981979E1,1.451270103E0,1.131956893E1
3.697709640E0,3.428925276E-1,-1.111713696E1,1.409474254E0,1.121137490E1
3.705925217E0,3.538081944E-1,-1.112647820E1,1.695467710E0,1.126047548E1
3.714143679E0,5.876455903E-1,-1.115403080E1,1.767041683E0,1.130841133E1
3.722360140E0,9.732309580E-1,-1.120728683E1,1.551683545E0,1.135597545E1
3.730576948E0,1.532362223E0,-1.130522156E1,1.176660419E0,1.146911933E1
3.738793909E0,2.125011444E0,-1.129977894E1,7.814835906E-1,1.152438260E1
3.747010255E0,2.915768862E0,-1.111466599E1,4.073382616E-1,1.149797515E1
3.755225063E0,3.450840473E0,-1.079100323E1,-1.703274250E-1,1.133062496E1
3.763439948E0,3.249850750E0,-1.013581467E1,-9.954714775E-1,1.069052068E1
3.771653448E0,2.774031401E0,-9.432587624E0,-1.569356799E0,9.956497389E0
3.779865832E0,2.069424391E0,-8.796641350E0,-1.942507029E0,9.243200198E0
3.788079294E0,1.311499596E0,-8.152433395E0,-2.470309734E0,8.618853267E0
3.796299178E0,9.729293585E-1,-7.483950615E0,-3.372579098E0,8.266220304E0
3.804512409E0,1.552423239E-1,-6.818217754E0,-4.152918339E0,7.984918550E0
3.812725601E0,-1.741074324E-1,-6.000264168E0,-3.443651915E0,6.920420651E0
3.820938140E0,-6.037740707E-1,-3.405482769E0,-3.319009304E0,4.793503810E0
3.829152601E0,-3.509447575E0,7.239611626E0,-7.379392147E0,1.091712541E1
3.837366140E0,-8.370619774E0,2.314270020E1,-1.217745018E1,2.745800686E1
3.845580986E0,-1.296763229E1,3.274117279E1,-1.588103962E1,3.863096300E1
3.853794870E0,-1.139414597E1,4.084322357E1,-1.462775326E1,4.485495111E1
3.862008101E0,-3.007602215E0,4.224736786E1,-9.755140305E0,4.346318585E1
3.870221563E0,8.180932045E0,4.035334778E1,-1.955950737E0,4.122069952E1
3.878437947E0,1.537283421E1,3.407439423E1,4.780245781E0,3.768606006E1
3.886650216E0,1.752297401E1,2.439032555E1,1.378186226E1,3.304364275E1
3.894861409E0,7.052352905E0,1.400021172E1,1.609517097E1,2.246766873E1
3.903074370E0,-3.591361046E-1,5.419411659E0,1.931702042E1,2.006604792E1
3.911287139E0,-3.347295046E0,-1.007564545E0,2.063640976E1,2.093038409E1
3.919499832E0,-2.919272184E0,-3.905165195E0,1.201040936E1,1.296234540E1
3.927712062E0,-2.271486044E0,-4.897552967E0,5.803846359E0,7.926557038E0
3.935924486E0,-2.604871988E0,-6.694388866E0,1.104815483E1,1.317808505E1
3.944135909E0,-1.164001942E0,-5.925102234E0,-3.805318594E0,7.137379533E0
3.952348601E0,-4.124005795E0,-4.207609177E0,-3.567997456E0,6.887815664E0
3.960565255E0,-6.800375462E0,-3.653978348E0,-1.957269430E0,7.964142628E0
3.968776755E0,-7.282426357E0,-3.446121216E0,-2.784566879E0,8.524276966E0
3.976989793E0,-7.454778671E0,-4.061998844E0,-1.143866777E0,8.566328902E0
3.985202408E0,-6.594957352E0,-4.649150848E0,-8.282932043E-1,8.111358438E0
3.993414370E0,-4.921628475E0,-5.065583229E0,-1.179255128E0,7.160530913E0
4.001627908E0,-3.462954283E0,-5.193562984E0,-1.399231076E0,6.397108444E0
4.009840101E0,-2.581534147E0,-5.099071503E0,-1.467154026E0,5.900626211E0
4.018052293E0,-1.691686988E0,-4.901289940E0,-1.166998625E0,5.314728002E0
4.026266139E0,-6.590060592E-1,-4.746851444E0,-3.972144723E-1,4.808811387E0
4.034479985E0,4.359750152E-1,-4.754547119E0,1.229269266E0,4.930202374E0
4.042700177E0,1.284534812E0,-4.945733070E0,2.895318031E0,5.873088778E0
4.050913908E0,1.236245751E0,-4.976995945E0,3.962059021E0,6.480486392E0
4.059127947E0,6.146882176E-1,-4.388106823E0,5.293915272E0,6.903539817E0
4.067342023E0,-1.398608983E-1,-3.456422329E0,5.934157848E0,6.868816911E0
4.075554331E0,-8.840981722E-1,-2.715081692E0,4.813652992E0,5.596834221E0
4.083768023E0,-1.241711855E0,-1.659349442E0,2.854135990E0,3.527234207E0
4.091981177E0,-1.056524515E0,-2.049226761E-1,8.282192945E-1,1.358007568E0
4.100192946E0,-7.588900328E-1,2.008231163E0,-9.602160454E-1,2.351791092E0
4.108404946E0,-4.626628160E-1,4.662548065E0,-2.165407658E0,5.161627812E0
4.116618100E0,3.346005082E-1,6.877351761E0,-3.166332483E0,7.578626930E0
4.124834562E0,1.552901149E0,7.402874947E0,-3.696028233E0,8.418710361E0
4.133047369E0,1.788248777E0,6.315169334E0,-4.412090302E0,7.908586362E0
4.141260062E0,9.755089283E-1,4.820539474E0,-3.892840624E0,6.272433867E0
4.149474408E0,1.541492641E-1,3.134376526E0,-2.821806192E0,4.220268758E0
4.157688408E0,-1.551496685E-1,1.895947456E0,-1.725337625E0,2.568166290E0
4.165904215E0,-1.579980254E-1,1.105142593E0,-7.951047421E-1,1.370582022E0
4.174118600E0,1.235369444E-1,5.557184219E-1,1.291553676E-1,5.837511885E-1
4.182333600E0,5.447441339E-1,1.301221848E-1,1.146168232E0,1.275687881E0
4.190547215E0,6.417847872E-1,-2.943134308E-1,1.960956454E0,2.084192487E0
4.198759331E0,3.543833792E-1,-7.632007599E-1,2.543068171E0,2.678667336E0
4.206975677E0,-7.423940301E-2,-1.122822762E0,2.715878963E0,2.939768866E0
4.215187177E0,-5.428686142E-1,-1.326697350E0,2.221307755E0,2.643679317E0
4.223399946E0,-5.620504022E-1,-1.285374641E0,1.105261683E0,1.785970888E0
4.231612331E0,-4.927003682E-1,-1.096425056E0,-4.278136790E-2,1.202801647E0
4.239825061E0,-6.188185811E-1,-6.664180756E-1,-9.562408924E-1,1.319638637E0
4.248038330E0,-9.368698001E-1,-1.440801620E-1,-1.492500782E0,1.768061848E0
4.256250484E0,-1.296191573E0,2.617263794E-1,-1.677248240E0,2.135831208E0
4.264462215E0,-1.388909459E0,3.061714172E-1,-1.424643636E0,2.013062322E0
4.272674253E0,-1.034810901E0,1.011180878E-2,-6.904975176E-1,1.244075026E0
4.280885984E0,-5.080053210E-1,-5.094480515E-1,3.691063225E-1,8.086075690E-1
4.289105600E0,-7.712401450E-2,-8.263731003E-1,1.032098413E0,1.324412227E0
4.297316830E0,-4.649434239E-3,-9.118556976E-1,8.227634430E-1,1.228186514E0
4.305529292E0,-2.882862464E-3,-8.782100677E-1,3.555136621E-1,9.474445619E-1
4.313741830E0,1.806622744E-1,-8.544464111E-1,1.038015485E-1,8.794841035E-1
4.321953676E0,4.061104655E-1,-7.111415863E-1,1.174779534E-1,8.273144115E-1
4.330166522E0,1.203331947E-1,-4.145860672E-1,9.747534990E-2,4.425642651E-1
4.338378984E0,-3.712348342E-1,-1.922178268E-1,6.785625219E-2,4.235179642E-1
4.346591561E0,-5.726715922E-1,-1.542882919E-1,-8.817964792E-2,5.996109404E-1
4.354803369E0,-7.640623450E-1,-2.482986450E-1,-3.467104435E-1,8.750152089E-1
4.363014368E0,-9.468914270E-1,-3.427658081E-1,-5.504335165E-1,1.147636192E0
4.371227368E0,-1.113568902E0,-5.287170410E-1,-6.526997089E-1,1.394845626E0
4.379438522E0,-1.245359898E0,-7.964029312E-1,-6.350963116E-1,1.608889750E0
4.387647753E0,-1.334454060E0,-1.107526779E0,-5.020586848E-1,1.805393621E0
4.395859407E0,-1.250169754E0,-1.473804474E0,-2.368606925E-1,1.947081670E0
4.404070984E0,-1.033329368E0,-1.863899708E0,7.151514292E-3,2.131183438E0
4.412282714E0,-8.010516167E-1,-2.313488483E0,3.517205119E-1,2.473382294E0
4.420492945E0,-5.350777507E-1,-2.702769279E0,6.130000353E-1,2.822594378E0
4.428704214E0,-3.138335943E-1,-3.041393757E0,7.467809916E-1,3.147419476E0
4.436915637E0,-2.729066908E-1,-3.271951675E0,7.677577138E-1,3.371883411E0
4.445127022E0,-3.825834692E-1,-3.442380428E0,7.199264765E-1,3.537604734E0
4.453340022E0,-3.355781138E-1,-3.667668819E0,6.091192961E-1,3.733019362E0
4.461550753E0,-2.431824505E-1,-3.820911407E0,5.251537561E-1,3.864490672E0
4.469760676E0,-2.016433924E-1,-3.784800053E0,5.205068588E-1,3.825741613E0
4.477971445E0,1.816838980E-2,-3.501819611E0,5.242678523E-1,3.540893596E0
4.486182406E0,3.483607471E-1,-2.928767204E0,4.540486336E-1,2.984156951E0
4.494393445E0,2.316878140E-1,-2.149349689E0,-2.466505468E-1,2.175826239E0
4.502605291E0,3.127662838E-1,-1.378945351E0,-5.514911413E-1,1.517713908E0
4.510817291E0,3.629445732E-1,-5.741930008E-1,-6.473141313E-1,9.383186825E-1
4.519029022E0,7.679635882E-1,1.746501923E-1,-2.264937162E-1,8.194938475E-1
4.527242022E0,1.886449099E0,3.013172150E-1,7.366421223E-1,2.047467675E0
4.535460945E0,2.879656315E0,1.543579102E-1,4.667203128E-1,2.921313866E0
4.543674406E0,2.930718422E0,-3.326778412E-1,-5.438275337E-1,2.999255474E0
4.551886560E0,2.183995962E0,-1.175582886E0,-1.834185839E0,3.084812989E0
4.560100906E0,1.314825296E0,-1.955994606E0,-2.592324257E0,3.503544707E0
4.568313098E0,5.957767367E-1,-2.200935364E0,-2.870070219E0,3.665565367E0
4.576525714E0,-3.934507370E-1,-1.570165634E0,-3.120863676E0,3.515681113E0
4.584738945E0,-1.187707424E0,-6.149959564E-2,-3.526113033E0,3.721277234E0
4.592951752E0,-1.448217630E0,1.725275993E0,-3.936479092E0,4.535391846E0
4.601164060E0,-1.542032003E0,3.418029785E0,-4.219993591E0,5.645275567E0
4.609376791E0,-1.678752184E0,6.070827484E0,-4.479714394E0,7.729229993E0
4.617592829E0,-1.804723263E0,1.008166504E1,-4.467074394E0,1.117370796E1
4.625804906E0,-1.570400238E0,1.599205017E1,-3.660968304E0,1.648073161E1
4.634017983E0,-4.702788293E-1,2.293702316E1,-1.046121359E0,2.296568230E1
4.642231829E0,6.968432665E-2,2.760258675E1,2.852367878E0,2.774966042E1
4.650444637E0,-1.339143872E0,2.918421555E1,7.357694626E0,3.012718728E1
4.658657790E0,-2.755531311E0,2.765961838E1,7.492931843E0,2.878873858E1
4.666871483E0,-2.229369402E0,2.414279556E1,3.662541389E0,2.452058064E1
4.675085060E0,-1.786988735E0,1.889403343E1,3.226473331E-1,1.898109400E1
4.683298790E0,-1.283200026E0,1.430827808E1,-2.513342381E0,1.458390599E1
4.691512752E0,-1.046936035E0,1.090014553E1,-3.650958300E0,1.154290883E1
4.699729829E0,-9.720077515E-1,8.400938988E0,-3.595676899E0,9.189639128E0
4.707943098E0,-9.888064861E-1,6.168641090E0,-2.453754187E0,6.711987841E0
4.716156713E0,-1.546351194E0,4.282299995E0,-1.646084905E0,4.841372820E0
4.724370944E0,-2.116174221E0,2.652066231E0,-7.619442940E-1,3.477385186E0
4.732583559E0,-2.525719881E0,9.911355972E-1,4.536392689E-1,2.750890633E0
4.740798252E0,-2.275241852E0,-4.929590225E-1,1.224409819E0,2.630382764E0
4.749011905E0,-1.915697217E0,-1.961662769E0,1.650980711E0,3.200586502E0
4.757226829E0,-1.589179635E0,-3.454624176E0,1.760019302E0,4.190177568E0
4.765440367E0,-1.185420156E0,-4.886100292E0,1.681875825E0,5.301688722E0
4.773653982E0,-7.578424215E-1,-6.075165749E0,1.167358160E0,6.232550769E0
4.781875675E0,-6.259598136E-1,-7.240657330E0,8.238568306E-1,7.314211121E0
4.790088521E0,-5.818440318E-1,-8.272804260E0,6.506546736E-1,8.318724921E0
4.798303251E0,-5.459627509E-1,-9.157686234E0,5.613745451E-1,9.191106237E0
4.806515213E0,-5.294381380E-1,-9.837824821E0,6.085497141E-1,9.870837589E0
4.814727021E0,-5.657398701E-1,-1.050958347E1,8.290252686E-1,1.055739974E1
4.822939059E0,-4.268403947E-1,-1.100301743E1,1.211682320E0,1.107775967E1
4.831151674E0,-1.569435596E-1,-1.136611843E1,1.556769013E0,1.147330856E1
4.839364405E0,1.641650200E-1,-1.160160255E1,1.540335655E0,1.170456176E1
4.847576751E0,3.270929158E-1,-1.166183853E1,1.644929051E0,1.178181901E1
4.855787136E0,4.992302060E-1,-1.165953064E1,1.833895087E0,1.181342697E1
4.864002213E0,3.516086340E-1,-1.090773869E1,-2.745577693E-1,1.091685732E1
4.872213559E0,5.771785378E-1,-1.115433025E1,-5.495700240E-1,1.118276557E1
4.880425982E0,5.235016346E-1,-1.149189758E1,-9.493924379E-1,1.154292467E1
4.888638828E0,4.598521292E-1,-1.147270870E1,-1.100318670E0,1.153452254E1
4.896851136E0,6.735851765E-1,-1.179106140E1,-9.033440351E-1,1.184478267E1
4.905063520E0,7.323319912E-1,-1.189389038E1,-8.406894207E-1,1.194603270E1
4.913275289E0,1.093184233E0,-1.194882107E1,-2.100432664E-1,1.200056227E1
4.921486213E0,1.305469751E0,-1.194157791E1,4.126213491E-3,1.201272456E1
4.929696751E0,1.621481299E0,-1.192009830E1,7.144464552E-2,1.203008934E1
4.937908097E0,1.748979211E0,-1.186040211E1,-9.914214909E-2,1.198907401E1
4.946122443E0,1.964343309E0,-1.181739902E1,-4.894132912E-1,1.198954085E1
4.954334482E0,1.981985807E0,-1.173341942E1,-1.115683556E0,1.195182617E1
4.962547174E0,1.742373943E0,-1.164893150E1,-1.774373055E0,1.191141771E1
4.970759212E0,1.487634659E0,-1.150155830E1,-2.406746864E0,1.184446414E1
4.978970597E0,1.360019803E0,-1.127694893E1,-2.883897305E0,1.171904837E1
4.987183597E0,1.063262463E0,-1.091788578E1,-3.209632158E0,1.142945736E1
4.995395905E0,2.561373413E-1,-1.016623878E1,-3.290802717E0,1.068865753E1
5.003607635E0,-3.388341963E-1,-9.584874153E0,-3.082978964E0,1.007419379E1
5.011819212E0,-7.400219440E-1,-9.097422600E0,-2.835123062E0,9.557648938E0
5.020030904E0,-6.965645552E-1,-8.665719032E0,-2.941328764E0,9.177761351E0
5.028250751E0,-3.428519070E-1,-8.165392876E0,-3.255986691E0,8.797308541E0
5.036461827E0,-4.715463817E-1,-7.869388580E0,-3.666156530E0,8.694270316E0
5.044674481E0,-5.085685253E-1,-7.655253410E0,-4.006432533E0,8.655232427E0
5.052885789E0,-1.027618796E-1,-6.208171844E0,-4.243273735E0,7.520460734E0
5.061098404E0,-5.746809244E-1,6.866029739E0,-5.161368847E0,8.608853055E0
5.069309789E0,-4.423992038E-1,2.382714844E1,-9.263263702E0,2.556827671E1
5.077521673E0,-2.957504511E0,3.358121490E1,-9.227017403E0,3.495114701E1
5.085734366E0,-2.732180119E0,3.807657623E1,-6.192970276E0,3.867354841E1
5.093946827E0,4.496242404E-1,4.104822922E1,9.385527372E-1,4.106141942E1
5.102160020E0,4.174592495E0,4.123281479E1,6.581414700E0,4.196292718E1
5.110379481E0,6.202616215E0,3.495092010E1,1.497142220E1,3.852509243E1
5.118592943E0,2.086011887E0,2.267823982E1,1.468323421E1,2.709707316E1
5.126806827E0,-1.557639122E0,1.185817719E1,1.161150455E1,1.666942242E1
5.135020289E0,-2.711481810E0,5.272198677E0,9.104841232E0,1.086491355E1
5.143234289E0,-2.877866983E0,-1.834821701E-1,7.204512596E0,7.760205270E0
5.151446827E0,-2.383769035E0,-5.039838791E0,1.238787079E1,1.358461161E1
5.159659750E0,-2.235883236E0,-1.078662586E1,1.436015606E1,1.809874452E1
5.167872712E0,-2.549197674E0,-7.512965679E0,-5.155082703E0,9.461392062E0
5.176085173E0,-5.681179047E0,-4.583444118E0,-7.040510178E-1,7.333446883E0
5.184296481E0,-7.652740002E0,-3.306827545E0,2.033236265E0,8.581001553E0
5.192510788E0,-5.237369061E0,-1.295145988E0,-3.278874397E0,6.313355298E0
5.200722096E0,-2.343863487E0,-6.001729965E-1,-4.553264618E0,5.156173228E0
5.208933481E0,-3.323386908E-1,-1.146467209E0,-4.318558693E0,4.480489399E0
5.217144827E0,5.707235336E-1,-1.514066696E0,-3.338755369E0,3.710176644E0
5.225356442E0,5.011764169E-2,-1.355455399E0,-2.147655487E0,2.540117164E0
5.233568750E0,-9.301042557E-1,-9.898662567E-1,-3.380064964E-1,1.399706228E0
5.241781365E0,-7.471793294E-1,-4.463300705E-1,4.725911617E-1,9.903685618E-1
5.249995673E0,-5.604428053E-1,-6.063842773E-2,1.192199588E0,1.318754342E0
5.258208596E0,-4.182485044E-1,1.003856659E-1,2.336390972E0,2.375653987E0
5.266422480E0,-2.938806415E-1,-1.546993256E-1,3.817652702E0,3.832071224E0
5.274641403E0,-6.314501911E-2,-7.971086502E-1,4.494468689E0,4.565043076E0
5.282854827E0,-3.021458089E-1,-1.374224663E0,4.103703499E0,4.338221746E0
5.291067903E0,-5.873956680E-1,-1.708038330E0,2.741513252E0,3.283035717E0
5.299279980E0,-3.060737848E-1,-1.934911251E0,1.094936490E0,2.244203339E0
5.307493826E0,3.318284154E-1,-2.007814884E0,-2.180579305E-1,2.046699775E0
5.315707403E0,6.859992743E-1,-1.831089497E0,-1.217841983E0,2.303610827E0
5.323920480E0,6.048325300E-1,-1.318637848E0,-1.868018746E0,2.365189675E0
5.332134211E0,4.707728028E-1,-7.242279053E-1,-2.197220325E0,2.360913012E0
5.340347980E0,4.248509705E-1,-9.504318237E-3,-2.337725401E0,2.376036348E0
5.348559672E0,3.673407435E-1,5.741310120E-1,-2.363639593E0,2.459950765E0
5.356774172E0,3.948235214E-1,1.005033493E0,-2.214356661E0,2.463605763E0
5.364986480E0,5.680667162E-1,1.285305977E0,-1.755735040E0,2.248847878E0
5.373198095E0,6.995601654E-1,1.448285103E0,-9.779371023E-1,1.882358930E0
5.381410095E0,7.018904686E-1,1.517601967E0,-3.316408396E-1,1.704626530E0
5.389622711E0,5.204980373E-1,1.622009277E0,1.634645164E-1,1.711301537E0
5.397834788E0,2.618862689E-1,1.634325027E0,3.956927657E-1,1.701815348E0
5.406047480E0,2.329772711E-2,1.609601974E0,2.114505172E-1,1.623598664E0
5.414259480E0,-1.992039084E-1,1.519474983E0,-2.346566617E-1,1.550338728E0
5.422472364E0,-4.357835650E-1,1.282964706E0,-7.460964918E-1,1.546792077E0
5.430684172E0,-7.807215452E-1,9.603099823E-1,-1.111797690E0,1.663675298E0
5.438900249E0,-1.093981266E0,5.158271790E-1,-1.337017179E0,1.802910875E0
5.447113980E0,-1.334759235E0,-5.515956879E-2,-1.332492471E0,1.886838885E0
5.455326941E0,-1.570042968E0,-6.593618393E-1,-1.124176383E0,2.040481682E0
5.463541518E0,-1.681241989E0,-1.229763985E0,-7.801458836E-1,2.224302516E0
5.471755018E0,-1.717272639E0,-1.720915794E0,-3.728895485E-1,2.459598159E0
5.479968710E0,-1.422346592E0,-2.197425842E0,1.333403587E-1,2.620978789E0
5.488181672E0,-8.492936492E-1,-2.565940380E0,6.258103848E-1,2.774344675E0
5.496393980E0,-4.186299145E-1,-2.615777016E0,1.042871118E0,2.846949344E0
5.504607826E0,-3.850536346E-1,-2.325291157E0,1.178986549E0,2.635385086E0
5.512821249E0,-4.797856510E-1,-1.902634621E0,8.829056025E-1,2.151681917E0
5.521041403E0,-5.890757442E-1,-1.488949776E0,3.227683306E-1,1.633450661E0
5.529254518E0,-6.009784937E-1,-1.177749634E0,-2.484782040E-1,1.345366406E0
5.537466326E0,-5.805383921E-1,-9.739723206E-1,-5.552358031E-1,1.262510872E0
5.545679249E0,-4.801021814E-1,-9.114036560E-1,-5.482963920E-1,1.166954867E0
5.553891133E0,-4.317521453E-1,-9.374771118E-1,-2.149790525E-1,1.054271902E0
5.562104441E0,-5.349708200E-1,-1.001856804E0,2.245032787E-1,1.157718686E0
5.570317095E0,-8.492777348E-1,-9.392271042E-1,5.307389498E-1,1.372990917E0
5.578530018E0,-1.241776228E0,-8.618927002E-1,6.562592983E-1,1.647890619E0
5.586742979E0,-1.688259244E0,-8.199863434E-1,6.999391317E-1,2.003125474E0
5.594955364E0,-1.955812097E0,-9.235372543E-1,7.215929031E-1,2.280091738E0
5.603171787E0,-1.981376886E0,-1.191721916E0,6.315585375E-1,2.396856624E0
5.611383018E0,-1.882285237E0,-1.780428410E0,5.131129026E-1,2.641251197E0
5.619595133E0,-1.680405140E0,-2.536525726E0,5.453082323E-1,3.091130095E0
5.627807633E0,-1.401517272E0,-3.431492805E0,8.064050674E-1,3.793373521E0
5.636019171E0,-1.036135316E0,-4.321596146E0,1.224401116E0,4.609655923E0
5.644231094E0,-6.015514135E-1,-5.053403378E0,1.639779329E0,5.346739759E0
5.652443056E0,1.501579881E-1,-5.605173111E0,1.878011465E0,5.913327328E0
5.660653787E0,6.666453481E-1,-5.806618214E0,1.533689380E0,6.042634708E0
5.668864594E0,8.717932701E-1,-5.643757820E0,1.254440308E0,5.846849265E0
5.677075594E0,9.608190656E-1,-4.929790020E0,1.060140133E0,5.133215368E0
5.685290902E0,6.668149829E-1,-4.006393909E0,9.443988800E-1,4.169858945E0
5.693502786E0,3.710222244E-2,-2.491938591E0,5.371797085E-1,2.549450246E0
5.701714133E0,-3.410502672E-1,-8.157920837E-1,-1.696759462E-1,9.003454534E-1
5.709925363E0,-5.390828848E-2,7.899036407E-1,-1.516614676E0,1.710840127E0
5.718137363E0,3.298264146E-1,2.511689186E0,-3.131542921E0,4.027893879E0
5.726350325E0,6.959903240E-1,4.325777054E0,-5.018008709E0,6.661618501E0
5.734563286E0,1.029766798E0,6.172239304E0,-6.546673775E0,9.056262761E0
5.742776979E0,1.453795791E0,8.503052711E0,-7.548128605E0,1.146253345E1
5.750990094E0,1.550301075E0,1.095238781E1,-7.281472206E0,1.324303854E1
5.759203825E0,1.668803453E0,1.321337032E1,-5.773397446E0,1.451585954E1
5.767425671E0,1.593921423E0,1.543318176E1,-3.972644329E0,1.601579183E1
5.775638209E0,9.089102149E-1,1.742122650E1,-1.764754176E0,1.753395585E1
5.783851748E0,-3.296089172E-2,1.911242294E1,5.857964754E-1,1.912142659E1
5.792064825E0,-1.928223372E0,2.013476181E1,2.480167627E0,2.037836868E1
5.800278901E0,-3.556268930E0,2.026367760E1,3.601036787E0,2.088614719E1
5.808492363E0,-4.527123451E0,1.957031631E1,3.699510574E0,2.042494812E1
5.816702940E0,-2.952938318E0,1.798918343E1,2.411928415E0,1.838879995E1
5.824913517E0,5.457032323E-1,1.587790775E1,3.272635937E-1,1.589065285E1
5.833125055E0,2.025661469E0,1.370153618E1,-7.223031521E-1,1.386928693E1
5.841336401E0,1.353827238E0,1.132009411E1,-4.852845669E-1,1.141108583E1
5.849551247E0,-4.137061834E-1,8.527135849E0,5.675123930E-1,8.556007767E0
5.857762594E0,-1.481327057E0,5.865570068E0,1.323127627E0,6.192730318E0
5.865973978E0,-1.939197659E0,3.980157852E0,1.238928914E0,4.597508993E0
5.874185901E0,-2.020360708E0,1.982339859E0,5.558859110E-1,2.884534253E0
5.882397747E0,-2.056047440E0,2.327451706E-1,1.254544258E-1,2.072978582E0
5.890609940E0,-2.116983414E0,-1.376494408E0,-1.598978043E-2,2.525195300E0
5.898822478E0,-1.970567346E0,-2.952789783E0,1.115964651E-1,3.551697755E0
5.907035747E0,-1.546326637E0,-4.405147076E0,1.789636612E-1,4.672095335E0
5.915248747E0,-1.233083963E0,-5.779232025E0,4.410867691E-1,5.925755344E0
5.923461786E0,-1.163688660E0,-7.074806213E0,8.728927374E-1,7.222810809E0
5.931677247E0,-9.109637737E-1,-8.068923950E0,1.232088923E0,8.213125582E0
5.939889401E0,-6.335105300E-1,-9.140748024E0,1.774191380E0,9.332864784E0
5.948102824E0,-1.110959798E-1,-9.998417854E0,2.255770683E0,1.025032698E1
5.956315055E0,2.776229084E-1,-1.062237835E1,2.490086079E0,1.091386847E1
5.964528824E0,6.324145794E-1,-1.124478340E1,2.577862024E0,1.155380779E1
5.972742555E0,9.472284317E-1,-1.163094234E1,2.540248394E0,1.194273517E1
5.980955824E0,1.021485209E0,-1.178829765E1,2.239364862E0,1.204251421E1
5.989168862E0,1.201342225E0,-1.185096931E1,2.103863239E0,1.209607115E1
5.997381362E0,1.421493411E0,-1.176163483E1,1.782816291E0,1.198061481E1
6.005594824E0,1.125452638E0,-1.168330956E1,1.369329095E0,1.181699742E1
6.013813516E0,1.133059859E0,-1.170957947E1,1.253204584E0,1.183083250E1
6.022025785E0,8.358727694E-1,-1.149809361E1,1.170185447E0,1.158767336E1
6.030238708E0,8.509035707E-1,-1.152059650E1,1.198114276E0,1.161394242E1
6.038452439E0,8.992618322E-1,-1.152810383E1,1.374989390E0,1.164458868E1
6.046665477E0,7.583277225E-1,-1.152767372E1,1.663236976E0,1.167170423E1
6.054877285E0,4.953336418E-1,-1.149510765E1,1.940499902E0,1.166826445E1
6.063089708E0,1.758263707E-1,-1.130595493E1,1.945953846E0,1.147354645E1
6.071300977E0,1.920367926E-1,-1.121148586E1,2.051448107E0,1.139924264E1
6.079513439E0,2.087087929E-1,-1.113046455E1,2.166878939E0,1.134134758E1
6.087726054E0,3.857226372E-1,-1.108931446E1,1.929897547E0,1.126260102E1
6.095942323E0,7.578396797E-1,-1.105011749E1,1.485832453E0,1.117529041E1
6.104155516E0,1.060695410E0,-1.110465622E1,1.119166255E0,1.121119965E1
6.112368708E0,1.391322374E0,-1.086972523E1,4.645569324E-1,1.096825044E1
6.120582669E0,1.651833057E0,-1.069625187E1,-1.383566856E-1,1.082393178E1
6.128796862E0,2.297924280E0,-1.030650234E1,2.784855366E-1,1.056323817E1
6.137011900E0,1.847133875E0,-9.800596237E0,-4.729688168E-2,9.973255594E0
6.145225862E0,1.484640002E0,-9.220291138E0,-3.807011843E-1,9.346810044E0
6.153439400E0,9.105331898E-1,-8.668885231E0,-7.992525101E-1,8.753139232E0
6.161653208E0,3.526975811E-1,-8.118278503E0,-1.317501068E0,8.232050201E0
6.169866477E0,-4.174079299E-1,-7.717567921E0,-2.013186455E0,7.986739240E0
6.178084323E0,-1.310498118E0,-6.538557053E0,-3.171372890E0,7.384290058E0
6.186298208E0,-2.962029934E0,-3.620726109E0,-6.025978088E0,7.628610018E0
6.194511785E0,-4.262166500E0,6.279479980E0,-1.243931961E1,1.457170561E1
6.202725708E0,-6.294882298E0,1.972593498E1,-1.688613510E1,2.671852565E1
6.210939785E0,-5.839197636E0,2.937083817E1,-1.692516327E1,3.439772544E1
6.219153400E0,-5.353674889E0,3.649989700E1,-1.093997955E1,3.847840263E1
6.227366477E0,2.408803225E0,3.942046356E1,-3.357443571E0,3.963644419E1
6.235580784E0,1.162034130E1,3.830287170E1,6.013805389E0,4.047601967E1
6.243794477E0,1.812189865E1,3.119950867E1,1.843533707E1,4.051757896E1
6.252007784E0,9.609608650E0,2.095340347E1,2.035402489E1,3.075184587E1
6.260228284E0,5.447490811E-1,1.101733017E1,1.734680939E1,2.055699666E1
6.268441746E0,-3.308833361E0,4.528772354E0,1.472503090E1,1.575705214E1
6.276653707E0,-4.401514053E0,-3.980321884E-1,1.070901299E1,1.158510745E1
6.284867130E0,-3.851066113E0,-2.748946667E0,6.132552147E0,7.745683560E0
6.293078900E0,-2.430057764E0,-4.179816723E0,2.032377243E0,5.244674044E0
6.301292284E0,-1.119635940E0,-5.085799217E0,-3.534743786E-1,5.219567267E0
6.309503092E0,-3.465242982E-1,-5.462339401E0,-2.015991688E0,5.832791211E0
6.317715630E0,3.603805900E-1,-5.838617325E0,-4.059032440E0,7.120047106E0
6.325927746E0,2.452235818E-1,-4.932294846E0,-8.611109734E0,9.926675067E0
6.334139323E0,-1.385648251E0,-3.495934010E0,-8.320613861E0,9.130946868E0
6.342356015E0,-3.937078953E0,-3.196018696E0,-5.699027061E0,7.628501533E0
6.350569130E0,-5.757224083E0,-3.411433220E0,-2.611006737E0,7.183373994E0
6.358783053E0,-6.560852528E0,-3.647953033E0,-3.278388977E-1,7.513975350E0
6.366997707E0,-6.845789909E0,-3.662387371E0,1.463278532E0,7.900576232E0
6.375211976E0,-5.709204674E0,-3.255305290E0,3.099998951E0,7.266500123E0
6.383427245E0,-3.101495266E0,-2.586367607E0,4.183269978E0,5.814492066E0
6.391640707E0,-3.044609427E-1,-1.836791515E0,5.517297745E0,5.822978099E0
6.399854091E0,2.437728405E0,-1.283857346E0,6.631153584E0,7.180738633E0
6.408067745E0,4.132061005E0,-1.123361588E0,6.657227516E0,7.915462564E0
6.416281938E0,4.150942802E0,-1.410493851E0,4.398009777E0,6.209855800E0
6.424499438E0,2.484712601E0,-1.756320953E0,1.915385365E0,3.595436148E0
6.432714207E0,4.533592463E-1,-1.799545288E0,1.939893961E-1,1.865885778E0
6.440928861E0,-8.650467992E-1,-1.762867928E0,-9.112063646E-1,2.164787826E0
6.449142861E0,-1.437556505E0,-1.440787315E0,-1.567060709E0,2.568679828E0
6.457356130E0,-1.788570881E0,-7.429828644E-1,-1.640323162E0,2.538044406E0
6.465572053E0,-2.092355013E0,7.621479034E-2,-1.630870104E0,2.653958457E0
6.473785630E0,-2.139578581E0,9.014053345E-1,-1.656627655E0,2.852147133E0
6.481999014E0,-1.828655720E0,1.164812088E0,-1.632372379E0,2.713928615E0
6.490213553E0,-1.459022760E0,8.928928375E-1,-1.300970435E0,2.149076338E0
6.498427937E0,-1.012582541E0,3.399400711E-1,-9.015524983E-1,1.397740877E0
6.506648668E0,-1.066672325E0,-2.474784851E-3,-5.235345364E-1,1.188227413E0
6.514863014E0,-9.793582559E-1,1.226806641E-1,-4.895430803E-1,1.101746598E0
6.523077706E0,-4.574524164E-1,6.437692642E-1,-4.717625082E-1,9.199246942E-1
6.531291206E0,2.581348121E-1,1.441372871E0,-4.033892751E-1,1.518852278E0
6.539505014E0,7.242711782E-1,2.177890778E0,-2.004755884E-1,2.303902654E0
6.547718706E0,1.297014236E0,2.838748932E0,1.628227830E-1,3.125260419E0
6.555932168E0,1.577378750E0,3.004509926E0,5.230203271E-1,3.433475481E0
6.564144206E0,1.841165185E0,2.540594101E0,8.276935816E-1,3.244932093E0
6.572355668E0,1.733325481E0,1.642896652E0,1.145276189E0,2.648619298E0
6.580567552E0,1.551468730E0,6.680049896E-1,1.307843804E0,2.136291484E0
6.588782168E0,1.437730193E0,-1.280317307E-1,9.317531586E-1,1.718029156E0
6.596992398E0,1.227302074E0,-7.017936707E-1,1.809002757E-1,1.425310369E0
6.605204206E0,1.063317537E0,-9.212312698E-1,-5.264676213E-1,1.502158245E0
6.613416898E0,8.738577962E-1,-9.104776382E-1,-1.278728962E0,1.796592535E0
6.621630206E0,7.351012826E-1,-6.215057373E-1,-1.753862023E0,2.000668707E0
6.629843168E0,4.198229015E-1,-2.985334396E-1,-1.737999320E0,1.812736914E0
6.638056206E0,6.906943768E-2,-8.292484283E-2,-1.528547168E0,1.532352297E0
6.646271321E0,-1.744945347E-1,-5.381298065E-2,-1.261248708E0,1.274398871E0
6.654484744E0,-3.100084960E-1,-2.281045914E-1,-9.551302195E-1,1.029762452E0
6.662698552E0,-3.919534981E-1,-5.484552383E-1,-5.819905996E-1,8.905861840E-1
6.670915937E0,-4.162006378E-1,-8.713026047E-1,-1.948249638E-1,9.850624175E-1
6.679130937E0,-5.239835382E-1,-1.199073792E0,2.622306347E-1,1.334579189E0
6.687347513E0,-4.760562479E-1,-1.467085838E0,7.824223042E-1,1.729495612E0
6.695562244E0,-2.077978253E-1,-1.620183945E0,1.056173325E0,1.945167870E0
6.703778860E0,-4.585019127E-2,-1.536163330E0,1.067905307E0,1.871449107E0
6.711993398E0,-8.736176789E-2,-1.274811745E0,9.151605368E-1,1.571717491E0
6.720209283E0,-1.551443785E-1,-1.039638519E0,7.789331675E-1,1.308302300E0
6.728425283E0,-2.140264809E-1,-9.191074371E-1,7.671633959E-1,1.216184810E0
6.736641436E0,-2.328515947E-1,-9.538230896E-1,8.662542701E-1,1.309349003E0
6.744857167E0,-2.277972400E-1,-1.141200066E0,9.780241251E-1,1.520118535E0
6.753079090E0,-2.460594624E-1,-1.385304451E0,1.035712242E0,1.747087156E0
6.761292398E0,-3.601201475E-1,-1.700443268E0,1.027578950E0,2.019186055E0
6.769507590E0,-4.891553819E-1,-2.052921772E0,8.315850496E-1,2.268324158E0
6.777722205E0,-7.360637188E-1,-2.557795048E0,6.631790996E-1,2.742974995E0
6.785937052E0,-1.102203846E0,-3.095374584E0,6.499042511E-1,3.349413780E0
6.794152128E0,-1.481936932E0,-3.818921089E0,7.494679093E-1,4.164372402E0
6.802367821E0,-1.689564943E0,-4.481873035E0,8.793377280E-1,4.869810103E0
6.810581936E0,-1.507646203E0,-5.260879517E0,1.148980975E0,5.591959195E0
6.818796436E0,-5.841450095E-1,-5.841970444E0,1.344998837E0,6.023193997E0
6.827010282E0,1.386073828E-1,-6.107441902E0,1.568635702E0,6.307192447E0
6.835228744E0,5.853773355E-1,-6.178503513E0,1.946542025E0,6.504275374E0
6.843442821E0,9.038497210E-1,-5.975606918E0,1.108608246E0,6.144414911E0
6.851657974E0,7.171748877E-1,-5.381098270E0,-4.210647345E-1,5.444984291E0
6.859874205E0,3.956782222E-1,-4.156124115E0,-2.273118019E0,4.753629607E0
6.868088590E0,5.463959575E-1,-2.890372276E0,-4.149238586E0,5.086155846E0
6.876302667E0,7.174289823E-1,-1.241039276E0,-5.818452835E0,5.992434916E0
6.884515859E0,9.119001627E-1,7.859334946E-1,-6.891685963E0,6.996040936E0
6.892729397E0,1.134555817E0,2.981327057E0,-7.610618591E0,8.252093266E0
6.900943474E0,1.215256691E0,5.446813583E0,-7.861611843E0,9.641035619E0
6.909155743E0,1.231638670E0,8.098213196E0,-7.540186405E0,1.113339130E1
6.917372282E0,1.173098683E0,1.098663139E1,-6.777506828E0,1.296213056E1
6.925585782E0,1.064826369E0,1.405400658E1,-5.265459538E0,1.504573096E1
6.933798513E0,1.007802010E0,1.709484482E1,-2.982631683E0,1.738233229E1
6.942010205E0,4.079226255E-1,1.910994720E1,-4.549765587E-2,1.911435463E1
6.950222974E0,-1.156016588E0,2.086842918E1,3.438699245E0,2.118141552E1
6.958435359E0,-2.616853952E0,2.230068970E1,5.958678246E0,2.323089607E1
6.966648628E0,-3.916592598E0,2.305511284E1,7.253405094E0,2.448448102E1
6.974860705E0,-3.816992760E0,2.227267075E1,6.657403946E0,2.355763832E1
6.983073512E0,-1.788915396E0,2.018004990E1,4.397848606E0,2.073103240E1
6.991286974E0,-4.078830481E-1,1.743717384E1,1.861595869E0,1.754100737E1
6.999505705E0,-1.805797815E-1,1.448496819E1,1.732178926E-1,1.448712935E1
7.007718397E0,-9.360748529E-1,1.165966606E1,1.504414558E0,1.179352839E1
7.015930935E0,-1.931180596E0,8.561455727E0,2.429704905E0,9.106670554E0
7.024143858E0,-2.629860163E0,6.219008446E0,-2.437487841E-1,6.756600032E0
7.032356358E0,-3.293228626E0,4.222035408E0,-1.348052740E0,5.521610631E0
7.040568204E0,-3.726099491E0,2.090796471E0,-4.971685410E-1,4.301444392E0
7.048780512E0,-3.365391254E0,2.187957764E-1,4.283806086E-1,3.399594069E0
7.056992858E0,-2.423934937E0,-1.474455833E0,1.298629045E0,3.120243256E0
7.065205435E0,-1.326136589E0,-3.211056232E0,1.660009623E0,3.850344443E0
7.073417012E0,-3.876905739E-1,-4.572830677E0,1.349112511E0,4.783428577E0
7.081631358E0,4.258718491E-1,-6.080567360E0,9.796333313E-1,6.173681860E0
7.089841666E0,7.197583318E-1,-7.433188438E0,8.252128363E-1,7.513409256E0
7.098053012E0,7.258152962E-1,-8.629378319E0,7.131607533E-1,8.689164302E0
7.106264166E0,5.721456409E-1,-9.618186951E0,7.401323915E-1,9.663574225E0
7.114475627E0,4.245991707E-1,-1.046709633E1,1.120943189E0,1.053550681E1
7.122689012E0,4.105727077E-1,-1.096992683E1,1.327835798E0,1.105762238E1
7.130901396E0,3.723512590E-1,-1.139240837E1,1.580741644E0,1.150757829E1
7.139113396E0,6.168452501E-1,-1.172985077E1,1.813267708E0,1.188519402E1
7.147325050E0,8.519557714E-1,-1.186237144E1,2.167134762E0,1.208876164E1
7.155534742E0,6.510176659E-1,-1.180660439E1,2.280135632E0,1.204237309E1
7.163750473E0,5.211702585E-1,-1.172773647E1,2.366272688E0,1.197541931E1
7.171963896E0,1.973012686E-1,-1.168340874E1,2.460203171E0,1.194125484E1
7.180175396E0,-2.244740725E-1,-1.160660553E1,2.508842230E0,1.187678281E1
7.188387358E0,-3.735575080E-2,-1.175338936E1,2.512761354E0,1.201904849E1
7.196598973E0,6.924002171E-1,-1.183866405E1,2.312775612E0,1.208231417E1
7.204810396E0,7.570623755E-1,-1.150546360E1,1.240015864E0,1.159683040E1
7.213021473E0,1.752554893E0,-1.197112179E1,7.527523041E-1,1.212212199E1
7.221233665E0,2.611533403E0,-1.220079517E1,9.489394426E-1,1.251319286E1
7.229444165E0,3.205655575E0,-1.198616982E1,7.470462322E-1,1.242990638E1
7.237655088E0,4.061714172E0,-1.179193687E1,5.637290478E-1,1.248459401E1
7.245873588E0,4.778445244E0,-1.169273567E1,1.804599762E-1,1.263274207E1
7.254085396E0,4.935392857E0,-1.164156818E1,-4.623597860E-1,1.265298340E1
7.262297781E0,4.957152843E0,-1.156242943E1,-1.099586248E0,1.262823141E1
7.270509127E0,4.810653210E0,-1.149009514E1,-1.449678779E0,1.254058368E1
7.278720742E0,3.931424618E0,-1.127433395E1,-1.749137521E0,1.206756760E1
7.286933857E0,2.987601042E0,-1.098277187E1,-1.747130394E0,1.151518574E1
7.295146242E0,1.854609489E0,-1.041936684E1,-1.183501720E0,1.064910597E1
7.303358973E0,8.577704430E-1,-9.899639130E0,-3.191474676E-1,9.941854965E0
7.311572088E0,2.228513360E-1,-9.434722900E0,1.785821915E-1,9.439043941E0
7.319786511E0,-1.635429859E-1,-9.046300888E0,3.703960180E-1,9.055357490E0
7.328003973E0,-2.466901541E-1,-8.605175018E0,1.746053696E-1,8.610480832E0
7.336217896E0,-1.138800979E-1,-8.259636879E0,-1.814994812E-1,8.262415634E0
7.344431549E0,-2.806645632E-2,-7.761066914E0,-7.970041037E-1,7.801933280E0
7.352644472E0,-2.286170125E-1,-7.095660210E0,-2.092108011E0,7.401187437E0
7.360857857E0,-1.144928217E0,-5.196874142E0,-3.850326061E0,6.568361458E0
7.369071703E0,-2.057517529E0,2.294511795E-1,-9.652814865E0,9.872328046E0
7.377285242E0,-2.736317396E0,1.869895554E1,-1.583592129E1,2.465592777E1
7.385499165E0,-4.292225361E0,3.127303696E1,-1.542894268E1,3.513514354E1
7.393710934E0,-4.621147633E0,3.807891846E1,-9.172902107E0,3.943984241E1
7.401924972E0,-1.218769103E-1,4.093671417E1,-1.839250922E0,4.097819256E1
7.410141434E0,5.466744900E0,4.263764191E1,1.046485329E1,4.424214011E1
7.418354318E0,1.226221657E1,3.797835922E1,1.970061493E1,4.450653832E1
7.426566895E0,1.021963120E1,2.717283630E1,2.122791862E1,3.596426593E1
7.434778972E0,3.546989679E0,1.674606323E1,1.642131996E1,2.372069811E1
7.442992472E0,-9.018402696E-1,8.212357521E0,1.089477539E1,1.367304877E1
7.451206549E0,-3.187852621E0,2.653703690E0,6.868393421E0,8.023675953E0
7.459421241E0,-3.791449547E0,-6.015510559E-1,3.666369915E0,5.308410468E0
7.467634780E0,-3.724461555E0,-2.554265499E0,1.988384485E0,4.934527230E0
7.475847818E0,-3.604567051E0,-4.607454777E0,2.147090912E0,6.231496010E0
7.484062587E0,-3.721852541E0,-8.936169624E0,-3.666446447E0,1.035133535E1
7.492282472E0,-4.694164276E0,-6.189360619E0,1.526778460E0,7.916717475E0
7.500496010E0,-4.454242229E0,-5.570213318E0,1.229402184E0,7.237332380E0
7.508709241E0,-4.308544159E0,-4.861390591E0,-2.484343052E-1,6.500645418E0
7.516922126E0,-4.307034969E0,-4.306382179E0,-1.324836850E0,6.233030594E0
7.525136049E0,-3.715651035E0,-4.329246521E0,-1.210804701E0,5.832193934E0
7.533347895E0,-3.008571148E0,-4.453462124E0,-1.026518106E0,5.471614448E0
7.541562203E0,-2.384581804E0,-4.532737255E0,-4.245674610E-1,5.139279612E0
7.549775856E0,-1.655907393E0,-4.291962147E0,-2.456089854E-1,4.606874443E0
7.557989587E0,-9.250086546E-1,-3.915197849E0,6.012248993E-2,4.023435090E0
7.566202626E0,-3.341988027E-1,-3.493139267E0,8.218725920E-1,3.604051239E0
7.574418625E0,-2.324585244E-2,-3.109295368E0,1.307041883E0,3.372924034E0
7.582630818E0,2.967966795E-1,-3.012992382E0,2.169333696E0,3.724542932E0
7.590843048E0,5.112152100E-1,-3.013394833E0,3.183962584E0,4.413559464E0
7.599055472E0,4.808519781E-1,-2.642340660E0,3.207502365E0,4.183450037E0
7.607267164E0,3.174613118E-1,-2.176638603E0,2.775507450E0,3.541465643E0
7.615478318E0,1.624550074E-1,-1.543452263E0,1.911507964E0,2.462214291E0
7.623690664E0,3.048430979E-1,-6.792163849E-1,8.255866170E-1,1.111691267E0
7.631901971E0,8.539096117E-1,4.013681412E-1,-3.461107612E-2,9.441694426E-1
7.640114048E0,1.470313191E0,1.540444374E0,-9.240761995E-1,2.321358777E0
7.648326702E0,1.654980779E0,2.853516579E0,-1.921810389E0,3.817705255E0
7.656541894E0,1.512355089E0,4.134829521E0,-2.347285271E0,4.989366816E0
7.664755625E0,1.225415945E0,4.716998100E0,-2.216437817E0,5.353906229E0
7.672967971E0,9.915081263E-1,4.358399391E0,-1.661323071E0,4.768514230E0
7.681181894E0,8.644450903E-1,3.382422447E0,-8.836258054E-1,3.601227775E0
7.689394971E0,5.630725622E-1,2.392488480E0,-8.228178620E-1,2.591926131E0
7.697607163E0,1.724406779E-1,1.443641663E0,-6.343548298E-1,1.586267029E0
7.705820856E0,8.012568206E-2,5.477371216E-1,-2.247722000E-1,5.974601419E-1
7.714033010E0,2.223062515E-1,-1.445188522E-1,1.227245480E-1,2.921764583E-1
7.722246433E0,4.631623030E-1,-6.164712906E-1,2.837022245E-1,8.216100798E-1
7.730460086E0,6.541422009E-1,-8.873357773E-1,4.503244162E-1,1.190822775E0
7.738680317E0,6.588865519E-1,-9.738502502E-1,3.121875226E-1,1.216542990E0
7.746894817E0,5.373343229E-1,-9.405374527E-1,-1.339604408E-1,1.091459699E0
7.755108663E0,2.042202502E-1,-8.566884995E-1,-7.069678307E-1,1.129346984E0
7.763323971E0,-3.528348207E-1,-7.988376617E-1,-1.164567351E0,1.455627403E0
7.771536509E0,-6.703205109E-1,-7.167367935E-1,-1.523209095E0,1.811962242E0
7.779750394E0,-1.094683766E0,-5.889778137E-1,-1.576378703E0,2.007535113E0
7.787963625E0,-1.452727437E0,-3.821935654E-1,-1.366173744E0,2.030497384E0
7.796175817E0,-1.578568697E0,-2.497129440E-1,-9.498280287E-1,1.859141998E0
7.804389009E0,-1.092633605E0,-3.160686493E-1,-3.351939619E-1,1.185791962E0
7.812602009E0,-2.783026993E-1,-5.787897110E-1,4.920281768E-1,8.090374829E-1
7.820817548E0,4.276669025E-1,-9.203929901E-1,1.506676197E0,1.816616470E0
7.829028932E0,8.238283396E-1,-1.223248482E0,2.606477737E0,2.994788169E0
7.837239740E0,1.027578831E0,-1.491583824E0,3.473135710E0,3.917066787E0
7.845452740E0,8.303408623E-1,-1.612399101E0,3.124291658E0,3.612546910E0
7.853666201E0,2.116261572E-1,-1.518048286E0,1.402977228E0,2.077883859E0
7.861879086E0,-1.916425228E-1,-1.333354950E0,-3.662703037E-1,1.395964260E0
7.870092470E0,-2.653096914E-1,-1.152866364E0,-1.341122866E0,1.788323412E0
7.878306855E0,-1.923386753E-1,-1.142646790E0,-1.707724333E0,2.063724364E0
7.886521586E0,-3.812647760E-1,-1.279605865E0,-1.262577176E0,1.837622139E0
7.894735470E0,-7.892323136E-1,-1.480107307E0,-3.602714539E-1,1.715634229E0
7.902954047E0,-1.165248156E0,-1.736560822E0,5.336053967E-1,2.158282065E0
7.911168663E0,-1.645018816E0,-1.916764736E0,1.252238750E0,2.819250937E0
7.919382932E0,-1.981592417E0,-2.041576862E0,1.705943823E0,3.317376813E0
7.927597355E0,-2.226201057E0,-2.148836613E0,1.984246969E0,3.675691224E0
7.935810624E0,-2.451441526E0,-2.252420902E0,2.269466877E0,4.029075004E0
7.944025201E0,-2.501079559E0,-2.476303101E0,2.540287733E0,4.340568831E0
7.952239509E0,-2.333743095E0,-2.712604523E0,2.583268642E0,4.413372521E0
7.960452739E0,-2.096503735E0,-2.970398426E0,2.515310287E0,4.421015784E0
7.968667547E0,-1.909636736E0,-3.223644257E0,2.204276800E0,4.347117547E0
7.976881970E0,-1.121601224E0,-3.434382915E0,1.690653086E0,3.988894981E0
7.985104316E0,-1.878539324E-1,-3.512421131E0,5.293806791E-1,3.557054288E0
7.993318970E0,1.610417664E-1,-3.213266850E0,-6.101131439E-1,3.274638353E0
8.001532893E0,2.235729396E-1,-2.691138268E0,-1.304111719E0,2.998819336E0
8.009746816E0,4.471563697E-1,-1.762217999E0,-1.164662600E0,2.159120206E0
8.017960470E0,7.869235873E-1,-4.321384430E-1,-1.231334567E0,1.523869149E0
8.026174355E0,1.266130090E0,1.211024284E0,-2.281938314E0,2.876961538E0
8.034387854E0,1.644526958E0,3.075288773E0,-2.745824337E0,4.438628306E0
8.042601085E0,2.663003683E0,5.135292053E0,-4.083825588E0,7.080991775E0
8.050815816E0,3.267020226E0,7.315197945E0,-5.395399094E0,9.658978906E0
8.059029354E0,2.869144440E0,9.935886383E0,-6.163070679E0,1.203898950E1
8.067245739E0,1.821100354E0,1.262735748E1,-6.360582352E0,1.425565051E1
8.075458239E0,5.743310452E-1,1.470338535E1,-5.776835442E0,1.580794815E1
8.083672239E0,-1.358667850E0,1.693440247E1,-4.146295547E0,1.748747357E1
8.091886508E0,-3.009007931E0,1.887942505E1,-1.988561392E0,1.922085314E1
8.100101816E0,-4.024122238E0,2.038915253E1,8.571265340E-1,2.080013862E1
8.108318277E0,-4.027440548E0,2.097616196E1,3.483719349E0,2.164153295E1
8.116532354E0,-3.169059753E0,2.044692421E1,5.579439640E0,2.143011423E1
8.124746393E0,-1.499567032E0,1.787937927E1,5.919691563E0,1.889348175E1
8.132961085E0,-4.954077303E-1,1.425296879E1,4.210015297E0,1.486999586E1
8.141174969E0,-1.380405426E-1,1.141855335E1,2.052175522E0,1.160232047E1
8.149393854E0,-1.113996506E-1,8.749557495E0,-1.030277014E-1,8.750873154E0
8.157608700E0,-2.258709669E-1,6.479255676E0,-1.517045259E0,6.658317966E0
8.165825777E0,-3.964348733E-1,4.429716110E0,-2.095769405E0,4.916481956E0
8.174041892E0,-7.105153203E-1,2.468900681E0,-2.073748589E0,3.301626236E0
8.182257469E0,-9.406174421E-1,5.780458450E-1,-1.655229807E0,1.989644160E0
8.190471162E0,-1.131330490E0,-1.264410973E0,-1.097525120E0,2.020694231E0
8.198686469E0,-1.206657052E0,-2.981142044E0,-4.906102419E-1,3.253294874E0
8.206936854E0,-1.237196088E0,-4.351616859E0,1.908099651E-2,4.524111795E0
8.215152008E0,-1.140152335E0,-5.755993843E0,4.966934323E-1,5.888812854E0
8.223367085E0,-9.401249886E-1,-6.966429710E0,8.225422502E-1,7.077538672E0
8.231587161E0,-6.943525076E-1,-8.102337837E0,1.246247530E0,8.226976160E0
8.239801931E0,-4.105038941E-1,-8.954741478E0,1.632979989E0,9.111670101E0
8.248017546E0,-1.488337517E-1,-9.585934639E0,2.025415897E0,9.798704197E0
8.256232161E0,1.415597945E-1,-1.020880890E1,2.292614937E0,1.046402894E1
8.264447700E0,5.018997192E-1,-1.070831108E1,2.528385401E0,1.101419821E1
8.272663777E0,6.781061888E-1,-1.102688885E1,2.709046125E0,1.137501809E1
8.280879661E0,7.587003708E-1,-1.124348640E1,2.762044430E0,1.160260756E1
8.289095738E0,7.307539582E-1,-1.131737709E1,2.807797432E0,1.168335363E1
8.297310277E0,7.904011607E-1,-1.143284512E1,2.762817621E0,1.178846227E1
8.305524584E0,6.934126616E-1,-1.137193489E1,2.497538090E0,1.166359382E1
8.313742123E0,5.745280385E-1,-1.127358246E1,2.198854208E0,1.150037842E1
8.321956738E0,4.814217389E-1,-1.115970612E1,1.869283199E0,1.132541510E1
8.330172430E0,4.405573606E-1,-1.103020477E1,1.578408480E0,1.115127264E1
8.338385815E0,3.690981269E-1,-1.099073029E1,1.507304311E0,1.109974558E1
8.346600507E0,2.369049639E-1,-1.092410183E1,1.379582405E0,1.101341783E1
8.354815969E0,1.580142379E-1,-1.090963745E1,1.360598803E0,1.099528931E1
8.363030930E0,1.986902356E-1,-1.080884075E1,1.455243707E0,1.090817356E1
8.371245507E0,1.993945986E-1,-1.077938652E1,1.544001341E0,1.089122914E1
8.379459507E0,7.113936543E-2,-1.068492317E1,1.571057200E0,1.080004003E1
8.387673238E0,5.598172545E-2,-1.067390633E1,1.732569933E0,1.081375091E1
8.395889815E0,2.687695920E-1,-1.057864857E1,1.866208196E0,1.074536066E1
8.404105584E0,8.469663560E-2,-1.057409382E1,1.869763494E0,1.073846586E1
8.412320892E0,9.670914710E-2,-1.053789425E1,1.816537976E0,1.069375416E1
8.420536007E0,1.651686579E-1,-1.051117706E1,1.703814864E0,1.064965300E1
8.428751276E0,2.020096034E-1,-1.046310425E1,1.585256100E0,1.058444119E1
8.436966161E0,2.852341235E-1,-1.031506348E1,1.451809764E0,1.042063552E1
8.445182084E0,4.454495311E-1,-1.012020493E1,1.461913824E0,1.023494822E1
8.453398045E0,5.691860914E-1,-9.662679672E0,7.895226479E-1,9.711575427E0
8.461612968E0,9.460279346E-1,-9.068317413E0,1.733949184E-1,9.119178437E0
8.469828007E0,1.074676037E0,-8.247147560E0,-9.099683762E-1,8.366505478E0
8.478051237E0,9.677341580E-1,-7.081090450E0,-2.673088312E0,7.630449036E0
8.486265660E0,7.017042041E-1,-4.389656067E0,-4.807408333E0,6.547720524E0
8.494481045E0,6.808724403E-1,1.322845459E0,-8.940954208E0,9.063893730E0
8.502697199E0,1.558829248E-1,1.798172379E1,-1.947411537E1,2.650675120E1
8.510911853E0,-4.516833305E0,3.183345985E1,-2.321003914E1,3.965446843E1
8.519126660E0,-7.425815582E0,3.599848175E1,-1.521057987E1,3.977933088E1
8.527342699E0,-3.689446688E0,3.443961716E1,-7.240800381E0,3.538542690E1
8.535557353E0,4.879311562E0,3.020238495E1,6.767565250E0,3.133355513E1
8.543772199E0,1.239228630E1,2.508131027E1,1.635959435E1,3.240798068E1
8.551986929E0,1.215763187E1,1.788886642E1,2.203752327E1,3.087834171E1
8.560205314E0,5.030266285E0,1.122369957E1,2.111573219E1,2.443663555E1
8.568421237E0,-5.612429976E-1,6.348574638E0,1.625308800E1,1.745801429E1
8.576636237E0,-2.282701731E0,3.586807251E0,9.531250954E0,1.043650603E1
8.584852083E0,-2.365796089E0,2.365536690E0,4.231073856E0,5.393954110E0
8.593067122E0,-1.482908726E0,1.907258034E0,-1.363435984E-1,2.419760540E0
8.601282506E0,-4.583836794E-1,1.592564583E0,-3.573896885E0,3.939430986E0
8.609497122E0,4.257379174E-1,1.236070633E0,-5.898677826E0,6.041814585E0
8.617712198E0,9.227691889E-1,8.166866302E-1,-6.698537350E0,6.810938456E0
8.625925891E0,1.039375782E0,4.039287567E-2,-5.387134552E0,5.486633966E0
8.634138160E0,8.588184118E-1,-1.747487545E0,-1.517199278E0,2.468435827E0
8.642356044E0,-1.590549707E0,-1.694113731E0,-1.358180523E0,2.691565351E0
8.650570391E0,-4.051784515E0,-1.787201405E0,1.619076252E0,4.715130383E0
8.658783737E0,-5.592690945E0,-2.713571548E0,4.762501717E0,7.830905768E0
8.666996737E0,-5.550287724E0,-3.441900730E0,4.379162788E0,7.863169919E0
8.675209583E0,-3.844982147E0,-3.887679577E0,1.518770218E0,5.674909971E0
8.683423852E0,-1.708585501E0,-4.041066170E0,-5.980515480E-2,4.387830541E0
8.691638083E0,-1.878236830E-1,-3.979148865E0,-7.525241375E-1,4.054034534E0
8.699852660E0,3.685156405E-1,-3.689476967E0,-1.009392977E0,3.842774811E0
8.708066352E0,6.439521909E-1,-3.198332310E0,-8.556346893E-1,3.372849642E0
8.716280160E0,9.430536032E-1,-2.816438675E0,-2.211687565E-1,2.978353996E0
8.724500467E0,1.198423743E0,-2.590454578E0,7.775152922E-1,2.958243469E0
8.732713775E0,1.190462232E0,-2.222078800E0,2.018597126E0,3.229484305E0
8.740927006E0,1.044939280E0,-1.526790619E0,2.564151764E0,3.161939588E0
8.749140583E0,8.682686090E-1,-6.747570038E-1,3.141455889E0,3.328352820E0
8.757353621E0,7.328631878E-1,3.455581665E-1,3.627066135E0,3.716464402E0
8.765567929E0,5.301042199E-1,1.148024559E0,3.188259363E0,3.429864230E0
8.773781813E0,4.777629375E-1,1.566461563E0,1.946029425E0,2.543440539E0
8.781995890E0,6.361208558E-1,1.557101250E0,3.958121538E-1,1.727970285E0
8.790208582E0,7.456994653E-1,1.198537827E0,-1.083258152E0,1.779328199E0
8.798421236E0,6.792694330E-1,7.418317795E-1,-2.221459150E0,2.438565584E0
8.806637467E0,6.636425257E-1,2.608013153E-1,-2.745985508E0,2.837053954E0
8.814848005E0,5.457005501E-1,-1.633358002E-1,-3.140658140E0,3.191896181E0
8.823061159E0,3.450470865E-1,-5.714511871E-1,-3.404889822E0,3.469710168E0
8.831272775E0,2.055441961E-2,-9.204902649E-1,-3.270911932E0,3.398027322E0
8.839485851E0,-3.644981980E-1,-1.102429390E0,-2.702668905E0,2.941535094E0
8.847698774E0,-4.611079991E-1,-1.119189262E0,-2.073967695E0,2.401363611E0
8.855911890E0,-3.543854058E-1,-8.793582916E-1,-1.543275833E0,1.811231713E0
8.864125197E0,7.150894403E-2,-4.331035614E-1,-1.142339110E0,1.223777295E0
8.872337159E0,5.389311910E-1,8.947372437E-3,-8.646547794E-1,1.018898803E0
8.880549851E0,7.162646651E-1,3.245725632E-1,-5.683811307E-1,9.702780679E-1
8.888766505E0,5.835776329E-1,6.381559372E-1,-2.619680166E-1,9.035668739E-1
8.896978544E0,1.511481404E-1,7.963666916E-1,-4.571804404E-2,8.118717925E-1
8.905191159E0,-2.539722919E-1,8.255081177E-1,1.186265275E-1,8.718014857E-1
8.913404697E0,-6.057406664E-1,7.136497498E-1,2.124908864E-1,9.598802514E-1
8.921616659E0,-8.923265934E-1,5.039510727E-1,1.783412099E-1,1.040201432E0
8.929830466E0,-1.085217237E0,2.060194016E-1,6.746649742E-2,1.106658111E0
8.938042082E0,-1.269941807E0,-1.490497589E-1,-1.380239427E-1,1.286086557E0
8.946255659E0,-1.415691495E0,-5.229845047E-1,-2.395475209E-1,1.528096272E0
8.954469082E0,-1.547083855E0,-1.021239281E0,-3.215988874E-1,1.881441991E0
8.962683197E0,-1.598085642E0,-1.660697937E0,-1.976254880E-1,2.313190695E0
8.970901812E0,-1.475550413E0,-2.326440334E0,1.208932102E-1,2.757569368E0
8.979114351E0,-1.121256590E0,-2.920239925E0,5.519672036E-1,3.176426507E0
8.987327197E0,-7.109956145E-1,-3.338817596E0,1.039211035E0,3.568357785E0
8.995540197E0,-3.813350797E-1,-3.603571892E0,1.424061894E0,3.893468775E0
9.003754005E0,-9.810790420E-2,-3.699741840E0,1.605479479E0,4.034263155E0
9.011967851E0,-1.644413620E-1,-3.696545601E0,1.617617607E0,4.038338404E0
9.020180774E0,-3.625332117E-1,-3.682617664E0,1.435878277E0,3.969237914E0
9.028393851E0,-6.464004517E-1,-3.602672577E0,1.182405353E0,3.846448447E0
9.036605043E0,-8.151850700E-1,-3.555106163E0,1.011145711E0,3.784933576E0
9.044818581E0,-1.033891559E0,-3.623729706E0,9.978020191E-1,3.898199277E0
9.053034543E0,-1.185302258E0,-3.588359356E0,9.614748955E-1,3.899448459E0
9.061247235E0,-1.265652061E0,-3.614657402E0,1.056706429E0,3.972939938E0
9.069460581E0,-1.318352103E0,-3.649566650E0,1.281762362E0,4.086600513E0
9.077672927E0,-1.393913627E0,-3.585317135E0,1.728101134E0,4.217087583E0
9.085886427E0,-1.385101438E0,-3.342213154E0,1.320863247E0,3.851437975E0
9.094099850E0,-1.374492884E0,-2.741430283E0,2.341946363E-1,3.075632912E0
9.102312120E0,-7.102727294E-1,-1.829857826E0,-8.944737911E-2,1.964909120E0
9.110524850E0,-3.912862539E-1,-6.227598190E-1,-3.973585367E-1,8.359596470E-1
9.118737773E0,-3.935096264E-1,7.915544510E-1,-1.210746884E0,1.499105164E0
9.126952004E0,-5.636394024E-3,1.941234589E0,-2.277442455E0,2.992518610E0
9.135167812E0,4.154876471E-1,2.963767052E0,-3.227881432E0,4.401790960E0
9.143382350E0,1.032973051E0,3.960830688E0,-4.071678638E0,5.773541374E0
9.151594581E0,1.643236637E0,4.947368622E0,-4.663554192E0,6.994670873E0
9.159808504E0,2.139464378E0,6.306493759E0,-5.195858479E0,8.446663051E0
9.168020658E0,2.310329437E0,7.955164909E0,-5.415563583E0,9.896999534E0
9.176234042E0,1.913664460E0,1.031848907E1,-5.116290092E0,1.167517678E1
9.184448004E0,1.046565056E0,1.401730156E1,-4.372538567E0,1.472070430E1
9.192660927E0,-2.571175694E-1,1.895580101E1,-3.045388222E0,1.920059611E1
9.200873619E0,-2.116936445E0,2.393677521E1,-7.662520409E-1,2.404241605E1
9.209085235E0,-3.257544279E0,2.670210648E1,2.353577137E0,2.700284078E1
9.217303927E0,-3.233912945E0,2.678910065E1,5.485456944E0,2.753551061E1
9.225517350E0,-8.125365973E-1,2.385324097E1,6.415826797E0,2.471437140E1
9.233730658E0,1.074620247E0,1.920801163E1,3.810905933E0,1.961187200E1
9.241942773E0,8.487460017E-1,1.468110561E1,1.000354767E0,1.473960452E1
9.250153234E0,7.073974609E-1,1.101990604E1,-8.295494318E-1,1.107370275E1
9.258365619E0,6.399223208E-1,8.120586395E0,-1.679415226E0,8.317082390E0
9.266579734E0,3.452132344E-1,5.724997520E0,-1.827159166E0,6.019408559E0
9.274792042E0,-1.227377653E-1,3.605464935E0,-1.358326316E0,3.854801206E0
9.283004350E0,-5.931093693E-1,1.882325172E0,-7.846601009E-1,2.123821615E0
9.291215850E0,-1.035213470E0,-1.606845856E-2,-1.820381880E-1,1.051219780E0
9.299431350E0,-1.267824173E0,-1.814047813E0,3.268911839E-1,2.237186950E0
9.307643811E0,-1.448382974E0,-3.561617374E0,7.296562195E-1,3.913480517E0
9.315855619E0,-1.452972531E0,-5.215815544E0,1.016139984E0,5.508938322E0
9.324068965E0,-1.371648669E0,-6.699820042E0,1.264358759E0,6.954682720E0
9.332283503E0,-1.431756616E0,-8.114204407E0,1.660835981E0,8.405273126E0
9.340497080E0,-1.461170197E0,-9.205222130E0,2.042868614E0,9.541721280E0
9.348709965E0,-1.394020796E0,-9.947609901E0,2.364440441E0,1.031934181E1
9.356922465E0,-1.433772206E0,-1.061231136E1,2.672143221E0,1.103708316E1
9.365135926E0,-1.302349091E0,-1.103141403E1,2.754209042E0,1.144438186E1
9.373348157E0,-8.891866803E-1,-1.137727642E1,2.734351635E0,1.173497979E1
9.381563119E0,-3.979606032E-1,-1.159001827E1,2.712356567E0,1.190981840E1
9.389776157E0,1.202076674E-1,-1.163396835E1,2.474034548E0,1.189472641E1
9.397989195E0,3.999344409E-1,-1.171271133E1,2.354667187E0,1.195374468E1
9.406203811E0,7.294247150E-1,-1.159653759E1,2.274590492E0,1.183999605E1
9.414417465E0,8.359863758E-1,-1.161829185E1,2.221628666E0,1.185829721E1
9.422632195E0,6.954241991E-1,-1.149783230E1,2.152238369E0,1.171818639E1
9.430845849E0,9.509779215E-1,-1.140038967E1,1.861496449E0,1.159044489E1
9.439059311E0,7.147647738E-1,-1.119918156E1,1.579614162E0,1.133259622E1
9.447272503E0,6.946843863E-1,-1.108816719E1,1.477363348E0,1.120770452E1
9.455485349E0,8.086433411E-1,-1.113443756E1,1.431330681E0,1.125514600E1
9.463703849E0,8.432996869E-1,-1.099806404E1,1.304088473E0,1.110716948E1
9.471915695E0,8.931338191E-1,-1.083529091E1,4.944672585E-1,1.088327685E1
9.480129349E0,1.225502014E0,-1.105815315E1,7.655541897E-1,1.115216031E1
9.488343541E0,1.175622940E0,-1.116834736E1,8.844739795E-1,1.126482873E1
9.496557234E0,5.890288353E-1,-1.094809341E1,9.297203422E-1,1.100327607E1
9.504769618E0,4.299053252E-1,-1.094347095E1,8.907066584E-1,1.098807233E1
9.512983195E0,3.679886758E-1,-1.095594692E1,1.078011990E0,1.101500334E1
9.521194926E0,2.514946461E-1,-1.100187588E1,1.250240326E0,1.107554167E1
9.529407387E0,3.504796028E-1,-1.108613205E1,1.383124948E0,1.117757551E1
9.537617926E0,3.048395514E-1,-1.106010342E1,1.525634289E0,1.116899166E1
9.545833233E0,2.951733172E-1,-1.088309765E1,1.605839491E0,1.100489265E1
9.554044772E0,2.297968864E-1,-1.052426910E1,1.461772442E0,1.062778554E1
9.562256733E0,4.099193960E-2,-1.007939243E1,9.809710383E-1,1.012709911E1
9.570468849E0,1.435585320E-2,-9.489247322E0,4.548913240E-1,9.500155101E0
9.578681964E0,2.541618422E-2,-8.723351479E0,-2.368638515E-1,8.726603663E0
9.586895810E0,4.536635280E-1,-7.851986885E0,-1.373771787E0,7.984156659E0
9.595109656E0,3.346814811E-1,-6.823328972E0,-2.871746302E0,7.410584105E0
9.603323733E0,-3.814075589E-1,-3.100196362E0,-3.247823238E0,4.506111960E0
9.611536964E0,-1.019654274E0,4.699088097E0,-1.296922588E1,1.383191757E1
9.619749079E0,-3.590112686E0,2.563700104E1,-2.384347534E1,3.519454571E1
9.627964964E0,-7.740469456E0,3.454306412E1,-2.470312500E1,4.316691477E1
9.636176618E0,-7.907498360E0,3.913713074E1,-1.656424522E1,4.322751152E1
9.644387694E0,-2.549179316E0,4.038439560E1,-7.411017418E0,4.113782812E1
9.652599387E0,8.863361359E0,3.691347122E1,2.861858368E0,3.807037911E1
9.660810348E0,1.516484928E1,2.920148849E1,1.176365757E1,3.494400125E1
9.669022079E0,9.943655014E0,1.938944244E1,1.791608429E1,2.821015472E1
9.677233579E0,1.524563074E0,1.149225903E1,1.933500290E1,2.254414885E1
9.685444579E0,-3.248513699E0,3.888792038E0,2.054284477E1,2.115854475E1
9.693656964E0,-4.719038486E0,-8.255500793E-1,1.637696075E1,1.706328517E1
9.701868771E0,-3.664266586E0,-3.179345608E0,1.025339890E1,1.134315992E1
9.710086771E0,-2.174448490E0,-4.357415676E0,4.735202312E0,6.792454531E0
9.718297079E0,-6.538754702E-1,-4.622601032E0,5.648095608E-1,4.702659170E0
9.726508540E0,5.512472391E-1,-4.119137287E0,-2.025690556E0,4.623265917E0
9.734719617E0,1.085676432E0,-2.764894009E0,-7.732992172E0,8.283869876E0
9.742930963E0,-1.194159031E0,5.548534393E-1,-5.862226009E0,6.008291930E0
9.751143002E0,-3.398741007E0,2.962093353E-1,3.421244621E-1,3.428735853E0
9.759352963E0,-5.327974796E0,-6.114549637E-1,3.545313358E0,6.428875439E0
9.767564309E0,-4.678461552E0,-1.323871613E0,1.428875446E0,5.067773039E0
9.775775502E0,-3.257640123E0,-2.434292793E0,7.236599922E-1,4.130579180E0
9.783986502E0,-1.382114530E0,-3.350360394E0,7.822271585E-1,3.707699377E0
9.792200040E0,-2.818053067E-1,-3.899791718E0,8.528741598E-1,4.001897550E0
9.800410232E0,1.706083417E-1,-4.108764648E0,8.423143625E-1,4.197683603E0
9.808619771E0,1.805295944E-1,-3.978701115E0,9.788830280E-1,4.101324844E0
9.816830117E0,1.102818847E-1,-3.773553848E0,1.242894292E0,3.974500844E0
9.825041155E0,1.846792698E-1,-3.464185238E0,1.775015593E0,3.896840534E0
9.833251501E0,4.718309045E-1,-3.083296299E0,2.419588804E0,3.947625926E0
9.841463155E0,7.493550181E-1,-2.598865032E0,2.702432394E0,3.823450437E0
9.849674001E0,9.004627466E-1,-1.889198303E0,2.512024879E0,3.269582906E0
9.857885155E0,8.849362135E-1,-1.105197906E0,1.962701917E0,2.420077133E0
9.866097578E0,8.777391315E-1,-3.213882446E-1,1.304482937E0,1.604802829E0
9.874313501E0,7.371633053E-1,4.880905151E-1,8.028909564E-1,1.194267967E0
9.882525463E0,6.239078641E-1,1.083477974E0,4.323672056E-1,1.322923635E0
9.890737732E0,8.616194725E-1,1.741773605E0,7.855165005E-2,1.944822298E0
9.898950194E0,1.197628379E0,2.335981369E0,2.161663771E-2,2.625183797E0
9.907162193E0,1.539412260E0,2.756218910E0,2.451016307E-1,3.166481896E0
9.915375924E0,1.995700598E0,2.748890877E0,-4.143669307E-1,3.422122424E0
9.923588001E0,1.985361814E0,2.392515182E0,-9.689810276E-1,3.256488088E0
9.931798540E0,1.278310776E0,1.787334442E0,-7.934412956E-1,2.336277367E0
9.940009886E0,8.572568893E-1,1.053219795E0,-5.778155327E-1,1.475815741E0
9.948221539E0,8.013550043E-1,5.518150330E-1,-7.032279968E-1,1.200499600E0
9.956439463E0,8.566247225E-1,1.298208237E-1,-9.086005092E-1,1.255473714E0
9.964649078E0,8.281733990E-1,-7.878780365E-2,-1.166124105E0,1.432453883E0
9.972860424E0,5.841706395E-1,-2.081737518E-1,-1.259625435E0,1.404011354E0
9.981071578E0,3.432924747E-1,-3.206348419E-1,-1.350295424E0,1.429669248E0
9.989283001E0,2.671852708E-3,-5.622768402E-1,-1.537987590E0,1.637549453E0
9.997493001E0,-3.894866705E-1,-9.307746887E-1,-1.558956861E0,1.856983544E0
1.000570462E1,-7.586369514E-1,-1.220292091E0,-1.377030492E0,1.990189887E0
1.001391666E1,-9.949822426E-1,-1.349507332E0,-1.095559001E0,2.002850276E0
1.002212816E1,-1.077938199E0,-1.380645752E0,-7.744275928E-1,1.915168805E0
1.003033888E1,-1.023292661E0,-1.225088120E0,-3.925786614E-1,1.643802535E0
1.003855373E1,-9.566370249E-1,-9.737863541E-1,6.705194712E-3,1.365085792E0
1.004676535E1,-9.748641253E-1,-6.793727875E-1,4.693608880E-1,1.277578604E0
1.005497685E1,-1.079459906E0,-5.093793869E-1,7.910991311E-1,1.431970280E0
1.006318896E1,-1.101983428E0,-5.929698944E-1,1.046968937E0,1.631601890E0
1.007139981E1,-1.032402158E0,-9.252386093E-1,1.241340637E0,1.860872719E0
1.007961138E1,-9.203099012E-1,-1.285761833E0,1.311457157E0,2.054281792E0
1.008782227E1,-7.927021384E-1,-1.705526352E0,1.218951464E0,2.241213843E0
1.009603304E1,-7.388331890E-1,-2.031091213E0,9.453151226E-1,2.358988486E0
1.010424423E1,-6.909246445E-1,-2.348635674E0,5.581258535E-1,2.510970103E0
1.011245431E1,-6.274436712E-1,-2.636596680E0,2.003087699E-1,2.717618666E0
1.012066996E1,-6.105547547E-1,-2.940567970E0,-3.138738871E-2,3.003448396E0
1.012888158E1,-5.644434094E-1,-3.200959206E0,-1.145327091E-1,3.252361287E0
1.013709377E1,-5.449240208E-1,-3.458411217E0,-7.455796003E-2,3.501872245E0
1.014530642E1,-5.107093453E-1,-3.737005234E0,9.198957682E-2,3.772862870E0
1.015351815E1,-5.043199658E-1,-3.976801395E0,3.268831372E-1,4.021957304E0
1.016173085E1,-4.870359302E-1,-4.230414867E0,3.891572952E-1,4.276103056E0
1.016994289E1,-4.415393770E-1,-4.354521751E0,3.907126188E-1,4.394254551E0
1.017815508E1,-7.066575885E-1,-4.641036987E0,8.909985423E-1,4.778333147E0
1.018636665E1,-1.129533172E0,-4.794997215E0,1.841381431E0,5.259137672E0
1.019457877E1,-1.325304747E0,-4.647362232E0,1.993309498E0,5.227589420E0
1.020280208E1,-1.206437111E0,-4.060993195E0,9.847902656E-1,4.349364103E0
1.021101392E1,-9.538258910E-1,-3.381565094E0,4.336363077E-1,3.540170443E0
1.021922673E1,-2.969494164E-1,-2.706444263E0,5.506777763E-2,2.723242914E0
1.022743931E1,8.139126897E-1,-2.164838314E0,-8.187094927E-1,2.453418844E0
1.023565173E1,1.604381800E0,-1.384203911E0,-1.740620255E0,2.742229075E0
1.024386442E1,2.150743484E0,-4.374246597E-1,-2.440348387E0,3.282124025E0
1.025207585E1,2.443977833E0,6.789121628E-1,-3.166822433E0,4.057426980E0
1.026028792E1,1.978010178E0,2.646580696E0,-3.804292917E0,5.038805240E0
1.026850065E1,1.290459871E0,5.055992126E0,-4.362039089E0,6.801156378E0
1.027671281E1,8.239039183E-1,7.361402512E0,-4.494364738E0,8.664201002E0
1.028492796E1,3.919885159E-1,1.016332912E1,-4.406538963E0,1.108442599E1
1.029314015E1,1.393963099E-1,1.273782635E1,-3.978613853E0,1.334544940E1
1.030135250E1,4.264712334E-3,1.510907459E1,-3.107310772E0,1.542528876E1
1.030956373E1,1.858824492E-1,1.734561157E1,-1.779132366E0,1.743760606E1
1.031777488E1,4.155050516E-1,1.951225281E1,3.315973282E-2,1.951670448E1
1.032598688E1,7.088110447E-1,2.135976410E1,2.116344929E0,2.147605297E1
1.033419923E1,-1.464965343E-1,2.224969101E1,4.599823952E0,2.272066442E1
1.034241092E1,-1.633183599E0,2.156833839E1,5.467310905E0,2.231035630E1
1.035062285E1,-2.651317120E0,1.906217957E1,4.387409210E0,1.973944102E1
1.035883431E1,-1.952060699E0,1.596468163E1,1.945779443E0,1.620085362E1
1.036704865E1,-9.181784987E-1,1.343831062E1,-6.815152168E-1,1.348687166E1
1.037525985E1,-3.471872807E-1,1.176659775E1,-2.372765779E0,1.200847114E1
1.038347100E1,-2.583845258E-1,1.022455788E1,-2.731960773E0,1.058640430E1
1.039168177E1,-5.665345788E-1,8.192785263E0,-1.332094669E0,8.319685571E0
1.039989273E1,-7.544997334E-1,5.816680908E0,4.291665554E-1,5.881090933E0
1.040810542E1,-1.046802044E0,3.852458954E0,1.465741038E0,4.252720459E0
1.041631535E1,-1.403345108E0,1.802265167E0,2.033292055E0,3.058073545E0
1.042452588E1,-1.638625383E0,-1.242332458E-1,2.064433336E0,2.638638294E0
1.043273538E1,-1.588343620E0,-1.688168049E0,2.071011782E0,3.108349500E0
1.044094692E1,-1.637812257E0,-3.058641911E0,2.063852310E0,4.036979773E0
1.044916385E1,-1.539570689E0,-4.450656891E0,2.218177557E0,5.205663871E0
1.045737554E1,-1.240333319E0,-5.741924763E0,2.348030567E0,6.326244879E0
1.046558811E1,-8.287621737E-1,-6.987800598E0,2.451743126E0,7.451660774E0
1.047380042E1,-3.669768870E-1,-7.926838875E0,2.353283882E0,8.276919210E0
1.048201227E1,-1.157134771E-2,-8.687530518E0,2.171900272E0,8.954913243E0
1.049022500E1,2.347165346E-1,-9.389375687E0,2.105185509E0,9.625345379E0
1.049843800E1,3.266662061E-1,-9.986972809E0,2.076434135E0,1.020577853E1
1.050665165E1,3.687883019E-1,-1.061453152E1,2.267312527E0,1.086024817E1
1.051486411E1,5.155293345E-1,-1.113790703E1,2.350253582E0,1.139484249E1
1.052307754E1,6.674960852E-1,-1.146347427E1,2.444413185E0,1.174018523E1
1.053129404E1,4.495245218E-1,-1.156002522E1,2.308437347E0,1.179682747E1
1.053950592E1,5.154699683E-1,-1.156170464E1,2.358130217E0,1.181099071E1
1.054771985E1,3.190945983E-1,-1.151125050E1,2.355948925E0,1.175419945E1
1.055593296E1,2.130363137E-1,-1.149022865E1,2.247740269E0,1.170995625E1
1.056414738E1,4.277881980E-2,-1.144132805E1,2.266747475E0,1.166378848E1
1.057236200E1,-2.809183300E-2,-1.138155937E1,2.193322420E0,1.159100281E1
1.058057496E1,-2.364663035E-1,-1.132820034E1,2.419318199E0,1.158607525E1
1.058878738E1,-3.500964642E-1,-1.121835423E1,2.505151510E0,1.149999231E1
1.059700042E1,-2.310685068E-1,-1.127723789E1,2.803812504E0,1.162285902E1
1.060521250E1,-2.004325390E-2,-1.133917522E1,2.996232033E0,1.172837171E1
1.061342627E1,7.213001139E-3,-1.128668404E1,3.063127756E0,1.169495790E1
1.062163758E1,1.390729547E-1,-1.121118164E1,3.023196220E0,1.161247822E1
1.062984961E1,2.753925323E-1,-1.112425613E1,2.733943462E0,1.145859339E1
1.063806073E1,2.594441473E-1,-1.076364708E1,1.215893149E0,1.083521139E1
1.064627192E1,1.079056263E0,-1.111104584E1,1.143215656E0,1.122170415E1
1.065448358E1,1.874054313E0,-1.089749527E1,1.233895302E0,1.112609457E1
1.066269550E1,2.326796055E0,-1.062971783E1,6.740511656E-1,1.090225784E1
1.067090769E1,3.100781202E0,-1.034228230E1,9.772920609E-2,1.079755519E1
1.067911858E1,3.119171381E0,-9.926554680E0,-4.879143238E-1,1.041651469E1
1.068732934E1,2.864280224E0,-9.409751892E0,-1.232366323E0,9.912933906E0
1.069554573E1,2.589100122E0,-8.764116287E0,-2.075497866E0,9.371278735E0
1.070375669E1,1.960712075E0,-8.126265526E0,-2.813785315E0,8.820315813E0
1.071196781E1,1.269443274E0,-7.502420902E0,-3.374343872E0,8.323701231E0
1.072017854E1,3.989022970E-1,-6.687202930E0,-4.289944649E0,7.954962675E0
1.072839058E1,-6.002771258E-1,-4.842356682E0,-5.702594280E0,7.505220342E0
1.073660265E1,-1.601747274E0,-1.296667099E0,-8.354331970E0,8.604754649E0
1.074481415E1,-2.124640226E0,9.862413406E0,-1.038214111E1,1.447653786E1
1.075302392E1,-4.786297321E0,2.646164703E1,-1.227913189E1,2.956187555E1
1.076123396E1,-6.821170330E0,3.417105484E1,-1.031121445E1,3.633882905E1
1.076944519E1,-4.468855858E0,3.870806122E1,-5.871983528E0,3.940513756E1
1.077766023E1,4.443118572E0,4.008249283E1,3.553745270E0,4.048427645E1
1.078587196E1,1.290558624E1,3.603095627E1,1.246592903E1,4.025150125E1
1.079408496E1,1.217366219E1,2.566337967E1,1.675567055E1,3.297816857E1
1.080229715E1,4.135163784E0,1.675445175E1,1.538136101E1,2.311703916E1
1.081050865E1,-3.336462379E-1,8.698208809E0,1.277497387E1,1.545865821E1
1.081872027E1,-3.175873041E0,3.143421173E0,1.044357491E1,1.135938040E1
1.082693177E1,-4.375146389E0,-3.565244675E-1,8.169759750E0,9.274372755E0
1.083514296E1,-4.188858986E0,-2.558521271E0,5.908615112E0,7.681425860E0
1.084335373E1,-3.773841619E0,-4.125127792E0,4.230239868E0,7.010954943E0
1.085156504E1,-3.499079704E0,-4.946212292E0,3.925027847E0,7.219031681E0
1.085978077E1,-3.913882017E0,-7.429309845E0,9.454059601E-1,8.450260922E0
1.086799357E1,-3.658195019E0,-4.471549511E0,-1.718079567E0,6.027349602E0
1.087620569E1,-4.733086586E0,-3.106576920E0,7.912435532E-1,5.716554482E0
1.088441654E1,-5.599492550E0,-2.855195045E0,1.118104458E-1,6.286410513E0
1.089262804E1,-5.827344894E0,-2.625795364E0,-1.014615536E0,6.471645424E0
1.090084015E1,-5.591063023E0,-3.155568600E0,-1.060075641E0,6.507023842E0
1.090905177E1,-4.168360233E0,-4.034944534E0,-5.034060478E-1,5.823179722E0
1.091726161E1,-2.727366924E0,-4.568581104E0,-1.964819431E-2,5.320794085E0
1.092547196E1,-2.145358801E0,-4.398853302E0,-2.136902809E-1,4.898789472E0
1.093368369E1,-1.588145256E0,-3.787602425E0,-2.411922216E-1,4.114159838E0
1.094190254E1,-9.533377886E-1,-3.103367805E0,-1.992872357E-1,3.252608196E0
1.095011642E1,-8.283346891E-2,-2.683201790E0,-2.559518814E-2,2.684602083E0
1.095832911E1,8.261504173E-1,-2.364820957E0,2.458358556E-1,2.517009722E0
1.096654161E1,1.275830269E0,-1.968423367E0,6.782994270E-1,2.441827909E0
1.097475515E1,1.148273468E0,-1.089499474E0,1.197394371E0,1.984765563E0
1.098296877E1,1.075081825E0,-8.772850037E-2,1.677336812E0,1.994230679E0
1.099118119E1,1.044682622E0,1.155526161E0,2.554505348E0,2.992006027E0
1.099939557E1,1.538040280E0,2.013943672E0,2.681575775E0,3.689496667E0
1.100760911E1,1.976411462E0,2.718667984E0,2.072809458E0,3.948910853E0
1.101582250E1,2.483944893E0,2.893407822E0,9.156792164E-1,3.921767392E0
1.102403861E1,2.137483835E0,2.672439575E0,-1.432061791E-1,3.425095391E0
1.103225011E1,1.355592251E0,1.989210129E0,-1.008671045E0,2.609981717E0
1.104046123E1,5.241492391E-1,1.028366089E0,-1.751866221E0,2.097928620E0
1.104867361E1,2.153501511E-1,1.012592316E-1,-2.001592159E0,2.015688540E0
1.105688561E1,2.805228829E-1,-6.244907379E-1,-1.914939165E0,2.033635605E0
1.106509854E1,5.727761984E-1,-9.764995575E-1,-1.619751692E0,1.976162823E0
1.107331015E1,7.374179363E-1,-9.404153824E-1,-1.382694006E0,1.827569156E0
1.108152246E1,8.386892676E-1,-5.019035339E-1,-1.154665470E0,1.512798464E0
1.108973511E1,9.599450827E-1,8.762168884E-2,-9.095929861E-1,1.325342040E0
1.109794711E1,1.076434374E0,6.533241272E-1,-6.161125898E-1,1.401833835E0
1.110616361E1,1.097159624E0,1.104146957E0,-3.703226745E-1,1.600012071E0
1.111437730E1,1.023640990E0,1.289187431E0,-1.266303062E-1,1.651024029E0
1.112259104E1,9.832169414E-1,1.184478760E0,1.968991198E-2,1.539510695E0
1.113080396E1,6.465640664E-1,8.881740570E-1,1.237263381E-1,1.105534465E0
1.113901773E1,3.598056734E-1,5.751428604E-1,1.757799685E-1,7.008195415E-1
1.114723123E1,9.259966016E-2,1.976184845E-1,2.364838272E-1,3.217955298E-1
1.115544377E1,-1.409321725E-1,-8.633708954E-2,1.812509596E-1,2.452914199E-1
1.116365761E1,-3.698860407E-1,-3.005943298E-1,7.917515934E-2,4.831576762E-1
1.117187257E1,-6.302546263E-1,-5.050354004E-1,-8.951026201E-2,8.125846027E-1
1.118008884E1,-7.919671535E-1,-7.595252991E-1,-2.405487895E-1,1.123367425E0
1.118831130E1,-9.357345104E-1,-1.028216362E0,-3.066404760E-1,1.423677050E0
1.119652600E1,-9.252481461E-1,-1.327973366E0,-1.870523989E-1,1.629290027E0
1.120473946E1,-7.767077088E-1,-1.637173653E0,4.153794050E-2,1.812550092E0
1.121295330E1,-5.774139762E-1,-1.950973988E0,4.141005874E-1,2.076339495E0
1.122116784E1,-4.237650633E-1,-2.235619545E0,9.563809633E-1,2.468245556E0
1.122938234E1,-3.564895391E-1,-2.423784256E0,1.406331778E0,2.824815743E0
1.123759580E1,-4.260656238E-1,-2.481741905E0,1.583513021E0,2.974573631E0
1.124580996E1,-5.793820620E-1,-2.459558010E0,1.376409769E0,2.877431673E0
1.125402507E1,-6.715039015E-1,-2.464943886E0,9.839792252E-1,2.737714551E0
1.126223946E1,-7.975002527E-1,-2.514842987E0,6.685039997E-1,2.721642794E0
1.127045711E1,-9.035725594E-1,-2.604809284E0,5.122634172E-1,2.804262574E0
1.127867226E1,-1.110518217E0,-2.795166492E0,4.467483759E-1,3.040689156E0
1.128688861E1,-1.256298900E0,-3.064296246E0,4.586094022E-1,3.343429525E0
1.129510292E1,-1.398754001E0,-3.381327629E0,6.139029264E-1,3.710359294E0
1.130331757E1,-1.584682941E0,-3.717422009E0,7.866799831E-1,4.116954191E0
1.131153073E1,-1.708614349E0,-4.067748070E0,9.464622736E-1,4.512397167E0
1.131974380E1,-1.908588290E0,-4.401235104E0,1.153183341E0,4.933904287E0
1.132795823E1,-2.110509396E0,-4.791474819E0,1.539605737E0,5.457368109E0
1.133617338E1,-1.988360167E0,-4.938498974E0,1.564172268E0,5.548782132E0
1.134438815E1,-1.380746603E0,-4.892369747E0,1.219267607E0,5.227653051E0
1.135260576E1,-6.037766337E-1,-4.249253750E0,2.380608320E-1,4.298531914E0
1.136082030E1,5.695623159E-2,-2.998418331E0,2.086290121E-1,3.006207339E0
1.136903550E1,4.321917295E-1,-1.272212982E0,-2.612709999E-3,1.343622860E0
1.137725011E1,2.383870482E-1,8.363666534E-1,-1.316339016E0,1.577683735E0
1.138546476E1,1.922577024E-1,3.101474762E0,-2.425812483E0,3.942166273E0
1.139368003E1,3.737511635E-1,6.149260521E0,-3.792360544E0,7.234299785E0
1.140189573E1,1.127187967E0,9.347778320E0,-5.204978943E0,1.075840685E1
1.141011065E1,2.346979618E0,1.337951946E1,-6.510475159E0,1.506340404E1
1.141832457E1,3.473452806E0,1.714199257E1,-7.348819733E0,1.897150324E1
1.142653696E1,3.872814655E0,2.024773788E1,-6.992254734E0,2.176835338E1
1.143475615E1,2.116946697E0,2.207043266E1,-5.079251766E0,2.274608229E1
1.144296869E1,-1.108540416E0,2.261600494E1,-1.833975792E0,2.271730637E1
1.145118007E1,-3.179748058E0,2.219119644E1,9.914531708E-1,2.243976329E1
1.145939326E1,-3.764926910E0,2.094816208E1,3.277631283E0,2.153469377E1
1.146760576E1,-2.105461597E0,1.830150986E1,4.718225479E0,1.901683158E1
1.147581776E1,2.902317047E-1,1.543726730E1,5.101352692E0,1.626091189E1
1.148403030E1,1.920761347E0,1.242985725E1,4.897333145E0,1.349720517E1
1.149224334E1,1.765613079E0,9.929717064E0,4.228012085E0,1.093584732E1
1.150045673E1,4.450410008E-1,7.846100807E0,2.582985401E0,8.272313640E0
1.150867057E1,-8.054690361E-1,5.965722084E0,1.116903543E0,6.122588822E0
1.151688788E1,-1.485934615E0,4.127193451E0,1.317832470E-1,4.388518461E0
1.152510173E1,-1.959103107E0,2.352904320E0,-2.925421000E-1,3.075682787E0
1.153331453E1,-2.255957127E0,6.245193481E-1,-4.200713634E-1,2.378198252E0
1.154152830E1,-2.340379715E0,-8.318500519E-1,-3.132748604E-1,2.503496127E0
1.154974080E1,-2.390584230E0,-2.498261929E0,1.593661308E-1,3.461445246E0
1.155795450E1,-2.245804787E0,-4.147319317E0,7.992129326E-1,4.783580037E0
1.156616711E1,-2.040815830E0,-5.725677967E0,1.527600050E0,6.267525776E0
1.157438073E1,-2.081537962E0,-7.285221100E0,2.656320572E0,8.028903147E0
1.158259407E1,-1.784343243E0,-8.583378792E0,3.606151104E0,9.479588497E0
1.159080719E1,-1.344504476E0,-9.620248795E0,4.287264347E0,1.061779237E1
1.159902376E1,-6.935350895E-1,-1.037882423E1,4.177486897E0,1.120947725E1
1.160723757E1,-9.589052945E-2,-1.077249622E1,3.530905962E0,1.133680585E1
1.161545215E1,5.227082372E-1,-1.104875755E1,2.913551092E0,1.143840231E1
1.162366803E1,9.239048362E-1,-1.127979660E1,2.642359972E0,1.162193950E1
1.163188403E1,1.114409685E0,-1.144651985E1,2.468199968E0,1.176251405E1
1.164010103E1,1.385301709E0,-1.150840569E1,2.188669920E0,1.179630189E1
1.164831626E1,1.231085539E0,-1.137510777E1,2.062738657E0,1.162598551E1
1.165653150E1,1.078776002E0,-1.127143574E1,2.062767744E0,1.150930198E1
1.166474653E1,1.155181646E0,-1.113290596E1,2.022028923E0,1.137385778E1
1.167295961E1,9.106609821E-1,-1.106726360E1,2.119435310E0,1.130511535E1
1.168117930E1,7.908103466E-1,-1.102174950E1,2.177857876E0,1.126265545E1
1.168939246E1,5.990899205E-1,-1.097264099E1,2.334513426E0,1.123422058E1
1.169760542E1,7.643101215E-1,-1.099834251E1,2.479569912E0,1.130026438E1
1.170581942E1,7.203311920E-1,-1.098159218E1,2.528085709E0,1.129183161E1
1.171403261E1,6.361294985E-1,-1.090111542E1,2.583269119E0,1.122106311E1
1.172224630E1,6.042499542E-1,-1.098916912E1,2.749954939E0,1.134412659E1
1.173045911E1,5.860078931E-1,-1.101376343E1,2.705776453E0,1.135639099E1
1.173867107E1,8.780658841E-1,-1.097442818E1,2.521916151E0,1.129465071E1
1.174688342E1,1.048480749E0,-1.068727398E1,1.678763390E0,1.086901024E1
1.175509576E1,1.220076323E0,-1.066876984E1,1.479180098E0,1.083970525E1
1.176331261E1,1.819606662E0,-1.067213154E1,1.593907595E0,1.094284704E1
1.177152538E1,1.946918249E0,-1.041604805E1,1.039353013E0,1.064729084E1
1.177973630E1,1.661257386E0,-1.021705246E1,6.306731701E-1,1.037042360E1
1.178794853E1,1.473252416E0,-9.904805183E0,-2.906084061E-2,1.001381460E1
1.179616057E1,1.246894240E0,-9.457223892E0,-8.020048141E-1,9.572723788E0
1.180437415E1,9.878159761E-1,-9.031787872E0,-1.538514614E0,9.214987780E0
1.181258730E1,8.230652809E-1,-8.418732643E0,-2.464357853E0,8.810536613E0
1.182080011E1,6.193062067E-1,-7.622066975E0,-3.730353594E0,8.508524142E0
1.182901261E1,6.385901570E-2,-6.352732658E0,-4.666953087E0,7.883003318E0
1.183722680E1,-5.377572775E-1,-3.490373611E0,-6.097797394E0,7.046632096E0
1.184544530E1,-2.041321754E0,3.353728294E0,-1.166251373E1,1.230563751E1
1.185365819E1,-6.998165131E0,2.063600922E1,-1.711234474E1,2.770652512E1
1.186187126E1,-1.045884991E1,3.308489227E1,-1.722367477E1,3.873825772E1
1.187008392E1,-1.044651985E1,3.847195435E1,-1.181555462E1,4.157918204E1
1.187829538E1,-5.082309246E0,4.052132797E1,-6.878420353E0,4.141401399E1
1.188650849E1,7.299520016E0,3.708761978E1,3.645947218E0,3.797456339E1
1.189471976E1,1.689573288E1,2.944089508E1,1.188996315E1,3.596669732E1
1.190293165E1,1.582468128E1,2.011505890E1,1.671595573E1,3.056892717E1
1.191114396E1,6.437741756E0,1.153091717E1,1.654020119E1,2.116565201E1
1.191935569E1,-3.450840712E-2,5.004141808E0,1.662779236E1,1.736450704E1
1.192757649E1,-3.207364082E0,2.272462845E-1,1.605518532E1,1.637399770E1
1.193578880E1,-3.333973408E0,-2.409399509E0,1.126075935E1,1.198854811E1
1.194400172E1,-2.367815971E0,-3.659303188E0,6.491889000E0,7.819314234E0
1.195221326E1,-1.324305654E0,-4.236806870E0,1.983794570E0,4.862073509E0
1.196042684E1,-8.070210218E-1,-4.014475346E0,-7.678539753E-1,4.166160698E0
1.196863942E1,-6.982561350E-1,-4.800414085E0,-3.800594807E-1,4.865797183E0
1.197685207E1,-2.003098011E0,-2.324608803E0,-6.941612244E0,7.589610548E0
1.198506376E1,-5.413201809E0,-1.349815369E0,-2.280001640E0,6.026870069E0
1.199327465E1,-7.759639740E0,-2.407011032E0,1.905266762E0,8.344803918E0
1.200148807E1,-7.676854134E0,-3.273255348E0,1.935064554E0,8.566957733E0
1.200970592E1,-6.696281910E0,-4.052562237E0,1.718102217E0,8.013446657E0
1.201792065E1,-3.562503099E0,-5.032154083E0,1.327459455E0,6.306833727E0
1.202613530E1,-1.231882572E0,-5.434520721E0,9.570289254E-1,5.653976875E0
1.203434965E1,-7.378461361E-1,-5.128868103E0,3.296674490E-1,5.192146528E0
1.204256430E1,-2.519018948E-1,-4.623816967E0,1.556648016E-1,4.633289268E0
1.205077972E1,4.621762037E-1,-4.026735306E0,3.755591512E-1,4.070534208E0
1.205899346E1,1.246133685E0,-3.549851418E0,8.301478028E-1,3.852718472E0
1.206720753E1,1.609189391E0,-3.176752090E0,1.464230537E0,3.850352634E0
1.207542088E1,1.511119008E0,-2.923676968E0,2.185373306E0,3.950597949E0
1.208363442E1,1.017912865E0,-2.546627998E0,2.301183224E0,3.580070529E0
1.209185138E1,4.144371152E-1,-1.989140034E0,1.979961753E0,2.837020398E0
1.210006438E1,1.898191869E-2,-1.262012482E0,1.825252414E0,2.219139967E0
1.210827876E1,1.393456310E-1,-3.448114395E-1,1.987589836E0,2.022084442E0
1.211649261E1,3.852154315E-1,8.359518051E-1,1.952635050E0,2.158700995E0
1.212470699E1,7.469915152E-1,1.994872093E0,1.499098301E0,2.604766152E0
1.213292118E1,1.162477255E0,3.119810104E0,6.607543230E-1,3.394284126E0
1.214113503E1,1.623479128E0,3.741658211E0,-9.258760512E-2,4.079738118E0
1.214934834E1,1.726634741E0,3.710043907E0,-1.004963756E0,4.213744828E0
1.215756280E1,1.398715973E0,3.147106171E0,-1.336002588E0,3.693993305E0
1.216577722E1,6.261959672E-1,2.435790062E0,-1.847691894E0,3.120762719E0
1.217399842E1,1.839312166E-1,1.719555855E0,-1.773592710E0,2.477162516E0
1.218221199E1,3.597302735E-1,1.041583061E0,-1.399688125E0,1.781411797E0
1.219042426E1,7.158192396E-1,6.030826569E-1,-9.646834135E-1,1.344142836E0
1.219863638E1,8.134616017E-1,4.257469177E-1,-5.631594658E-1,1.077092753E0
1.220684942E1,7.571785450E-1,3.037309647E-1,-2.858748436E-1,8.644629975E-1
1.221506361E1,6.028892994E-1,1.532392502E-1,-2.223119140E-2,6.224564250E-1
1.222327684E1,4.136702716E-1,5.379676819E-3,1.575446427E-1,4.426876427E-1
1.223148915E1,9.030279517E-2,-1.685466766E-1,1.920622736E-1,2.710175160E-1
1.223970207E1,-3.023324013E-1,-4.092330933E-1,1.205349267E-1,5.228817017E-1
1.224791565E1,-6.675406694E-1,-6.065368652E-1,-4.744395614E-2,9.031879335E-1
1.225613292E1,-9.279514551E-1,-7.868318558E-1,-3.108565807E-1,1.255718952E0
1.226434680E1,-1.152842879E0,-8.807935715E-1,-5.748445988E-1,1.560541679E0
1.227255968E1,-1.191297293E0,-8.238372803E-1,-7.014952898E-1,1.609345440E0
1.228077353E1,-1.081531286E0,-6.449117661E-1,-8.168566227E-1,1.500958311E0
1.228898911E1,-7.330448627E-1,-4.519071579E-1,-7.303898335E-1,1.129178533E0
1.229720349E1,-4.549672902E-1,-3.790102005E-1,-4.374448061E-1,7.362078005E-1
1.230541872E1,-4.067302346E-1,-4.070367813E-1,1.113598347E-1,5.860967820E-1
1.231363272E1,-3.459427357E-1,-5.093507767E-1,7.939020991E-1,1.004686584E0
1.232184549E1,-2.762067616E-1,-6.018562317E-1,1.439051867E0,1.584105859E0
1.233005780E1,-3.544744849E-2,-8.397855759E-1,2.229691982E0,2.382860187E0
1.233827468E1,6.887158006E-2,-1.050269127E0,2.644899845E0,2.846630240E0
1.234648876E1,-1.133338213E-1,-1.192307472E0,2.379365921E0,2.663798763E0
1.235470072E1,-5.359580517E-1,-1.227429390E0,1.414647579E0,1.948091813E0
1.236291430E1,-8.963009119E-1,-1.285400391E0,4.119822085E-1,1.620289736E0
1.237112818E1,-1.016195416E0,-1.488922119E0,-2.936481833E-1,1.826409444E0
1.237934030E1,-9.806721210E-1,-1.855475903E0,-5.409662724E-1,2.167291661E0
1.238755311E1,-1.114738107E0,-2.304087639E0,-4.566856623E-1,2.600004363E0
1.239576526E1,-1.275384903E0,-2.719932079E0,-2.268846035E-1,3.012658924E0
1.240397695E1,-1.508648992E0,-3.146161079E0,1.058846712E-1,3.490782560E0
1.241218838E1,-1.712551832E0,-3.398161411E0,3.119497299E-1,3.818068542E0
1.242040653E1,-1.854648590E0,-3.688804150E0,4.983032942E-1,4.158762270E0
1.242861888E1,-1.934065461E0,-4.013278008E0,6.218503714E-1,4.498189353E0
1.243683280E1,-1.877622843E0,-4.361774445E0,6.501911879E-1,4.793046257E0
1.244504607E1,-1.793487668E0,-4.688886166E0,6.662523746E-1,5.064202180E0
1.245325780E1,-1.560716391E0,-5.095052242E0,6.060180068E-1,5.363082213E0
1.246147118E1,-1.185938120E0,-5.417536259E0,7.199574113E-1,5.592359700E0
1.246968522E1,-4.844111204E-1,-5.474114418E0,1.084877014E0,5.601565936E0
1.247789914E1,5.271422863E-2,-5.209043980E0,1.428995609E0,5.401754014E0
1.248611284E1,4.735442400E-1,-4.568867207E0,2.008747101E0,5.013367792E0
1.249432576E1,8.444682956E-1,-3.454260826E0,2.168213844E0,4.164876449E0
1.250254230E1,9.816093445E-1,-1.988806725E0,1.618848801E0,2.745829662E0
1.251075438E1,1.074934840E0,1.652193069E-1,9.435672760E-1,1.439826911E0
1.251896695E1,1.674114227E0,2.749441147E0,-4.327396154E-1,3.247976084E0
1.252718118E1,1.991217852E0,5.332613945E0,-2.175589085E0,6.093841800E0
1.253539349E1,2.143764496E0,8.138094902E0,-4.221942425E0,9.415365775E0
1.254360638E1,2.583645821E0,1.056885147E1,-6.069581509E0,1.245855798E1
1.255181857E1,3.364101648E0,1.297907066E1,-7.712979794E0,1.546814509E1
1.256003364E1,4.145951271E0,1.440576649E1,-8.286613464E0,1.712842616E1
1.256824672E1,4.071003914E0,1.480186653E1,-6.964578629E0,1.685745180E1
1.257646007E1,3.237397194E0,1.534726238E1,-4.674194336E0,1.636665195E1
1.258467757E1,1.668724298E0,1.657933426E1,-2.315931320E0,1.682327266E1
1.259289080E1,-9.377276301E-1,1.789215088E1,1.027568579E-1,1.791700185E1
1.260110468E1,-3.521955490E0,1.842215347E1,2.189296961E0,1.888313878E1
1.260931799E1,-5.122958183E0,1.839076996E1,3.710427523E0,1.944819767E1
1.261753149E1,-5.369168282E0,1.777802658E1,4.418962955E0,1.908961578E1
1.262574653E1,-3.365258694E0,1.655672455E1,4.649499416E0,1.752335409E1
1.263395968E1,-9.807544947E-2,1.425104618E1,3.381049395E0,1.464695979E1
1.264217241E1,5.279746056E-1,1.151698208E1,1.440231562E0,1.161868755E1
1.265038545E1,-6.360279322E-1,9.028409958E0,2.659095526E-1,9.054690817E0
1.265859872E1,-1.471247435E0,6.926265717E0,-3.230222464E-1,7.088164019E0
1.266681822E1,-1.973792553E0,4.954902649E0,-1.398605108E-1,5.335398604E0
1.267503034E1,-2.236593485E0,3.170687675E0,3.353852034E-1,3.894623729E0
1.268324195E1,-2.587181330E0,1.151259422E0,1.046298742E0,3.018881672E0
1.269145284E1,-2.810441017E0,-6.255483627E-1,1.514668941E0,3.253323142E0
1.269966522E1,-2.588077784E0,-2.269474506E0,1.714510918E0,3.845544023E0
1.270787768E1,-2.171004057E0,-3.842972755E0,1.959962606E0,4.829404894E0
1.271609049E1,-1.696809649E0,-5.332082748E0,2.298627853E0,6.049294127E0
1.272430253E1,-1.134904623E0,-6.847396851E0,2.787019730E0,7.479460616E0
1.273251384E1,-5.256851912E-1,-8.362067223E0,3.039182186E0,8.912751624E0
1.274072564E1,-1.590346694E-1,-9.414085388E0,3.176378727E0,9.936784064E0
1.274893999E1,-2.002269030E-3,-9.938840866E0,3.004037380E0,1.038290915E1
1.275715141E1,1.692161709E-1,-1.027443027E1,2.532946825E0,1.058340074E1
1.276536291E1,3.454390168E-1,-1.055901909E1,2.195244312E0,1.079033409E1
1.277357453E1,5.936883688E-1,-1.089272976E1,2.206604719E0,1.112983072E1
1.278178707E1,1.007315874E0,-1.106227493E1,2.104248524E0,1.130559480E1
1.278999884E1,9.156463742E-1,-1.112535858E1,2.033206224E0,1.134662679E1
1.279821126E1,8.941761255E-1,-1.112237263E1,2.052924156E0,1.134553751E1
1.280642345E1,8.965733051E-1,-1.110840225E1,2.062897682E0,1.133384273E1
1.281463464E1,6.417341828E-1,-1.109781265E1,2.060883999E0,1.130577336E1
1.282284657E1,5.244628787E-1,-1.116941643E1,2.268559933E0,1.140952623E1
1.283106160E1,5.338147879E-1,-1.116521454E1,2.121008873E0,1.137741854E1
1.283927318E1,5.711221695E-1,-1.122681808E1,2.212452173E0,1.145698780E1
1.284748414E1,2.514677644E-1,-1.128229237E1,2.385303736E0,1.153442807E1
1.285569695E1,2.779746354E-1,-1.121882153E1,2.600530624E0,1.151963480E1
1.286391076E1,2.132477462E-1,-1.120873356E1,2.790781498E0,1.155290630E1
1.287212430E1,4.223167896E-1,-1.118013000E1,2.998681068E0,1.158299385E1
1.288033611E1,7.093620300E-1,-1.118823433E1,3.037995815E0,1.161504199E1
1.288854699E1,1.161927819E0,-1.109146881E1,2.856429577E0,1.151216516E1
1.289675814E1,1.527100325E0,-1.107946205E1,2.663866997E0,1.149707363E1
1.290496814E1,2.017378807E0,-1.098758888E1,2.057468891E0,1.135914191E1
1.291318437E1,2.320425987E0,-1.078371811E1,1.177151322E0,1.109317981E1
1.292139580E1,2.190540552E0,-1.036432171E1,-4.602262974E-1,1.060327500E1
1.292960784E1,3.116630077E0,-1.033307266E1,-6.714944839E-1,1.081372639E1
1.293781995E1,3.076168060E0,-1.001550007E1,-8.571934700E-1,1.051227055E1
1.294603049E1,3.018716812E0,-9.508171082E0,-1.468138456E0,1.008332282E1
1.295424114E1,2.454819202E0,-8.924094200E0,-1.968102455E0,9.462506110E0
1.296245268E1,1.885765791E0,-8.246037483E0,-2.432248354E0,8.801652052E0
1.297066472E1,1.174018979E0,-7.670287132E0,-2.663837671E0,8.204124353E0
1.297887587E1,3.097521663E-1,-6.917006493E0,-3.219578266E0,7.635876468E0
1.298708795E1,-3.246373534E-1,-5.208742142E0,-4.039042473E0,6.599261186E0
1.299530418E1,1.634156704E-1,-6.849489212E-1,-3.536592722E0,3.606015500E0
1.300351707E1,-1.684122682E0,1.087717819E1,-8.431529045E0,1.386506245E1
1.301172872E1,-6.343940735E0,3.390299988E1,-1.248468971E1,3.668141848E1
1.301993945E1,-9.668040276E0,4.308546066E1,-1.417952156E1,4.637765362E1
1.302815037E1,-7.096205711E0,4.609219360E1,-1.087466908E1,4.788637462E1
1.303636157E1,2.605762005E0,3.942382812E1,-3.761275291E0,3.968847958E1
1.304457307E1,1.188685513E1,3.015679359E1,4.021796703E0,3.266350216E1
1.305278437E1,1.498230839E1,2.088295174E1,8.330590248E0,2.701788244E1
1.306099507E1,9.087813377E0,1.271919918E1,1.070685101E1,1.894737550E1
1.306920480E1,2.438701153E0,7.374835968E0,1.214255428E1,1.441447513E1
1.307741918E1,-1.861197352E0,2.259648323E0,1.823955727E1,1.847299422E1
1.308562984E1,-5.154682636E0,-2.313595295E0,2.157755470E1,2.230502955E1
1.309384187E1,-4.248679638E0,-4.483994007E0,1.501154041E1,1.623280094E1
1.310205222E1,-2.259355068E0,-4.545674324E0,6.812295914E0,8.495599802E0
1.311026457E1,-8.327201605E-1,-3.235261440E0,-2.861547470E-2,3.340831977E0
1.311847710E1,-1.389192343E-1,-2.844892502E0,-1.388837528E1,1.417743559E1
1.312668887E1,-2.908465385E0,-1.180086136E-1,-1.158895016E1,1.194892726E1
1.313490060E1,-7.019107819E0,-1.122923851E0,-2.736099005E0,7.616762456E0
1.314311291E1,-8.687701225E0,-1.975858688E0,1.851793289E0,9.099962007E0
1.315132437E1,-9.049471855E0,-2.576032162E0,4.068712234E0,1.025101467E1
1.315954222E1,-7.931212902E0,-3.437562943E0,4.696154594E0,9.837420651E0
1.316775357E1,-3.812216997E0,-4.088472366E0,4.463155746E0,7.153206550E0
1.317596460E1,-1.190357685E0,-4.286283493E0,3.505715370E0,5.663851857E0
1.318417576E1,3.849922419E-1,-4.597092152E0,2.635285854E0,5.312834160E0
1.319238645E1,9.434590340E-1,-4.981484413E0,1.552574635E0,5.302432452E0
1.320059764E1,8.549717665E-1,-5.176422119E0,7.516056895E-1,5.300116394E0
1.320880918E1,5.545578003E-1,-5.177426815E0,1.343119144E-1,5.208773605E0
1.321701910E1,1.070724428E-1,-4.997054100E0,-3.412191272E-1,5.009834796E0
1.322522976E1,-2.477428913E-1,-4.716443539E0,-7.331228852E-1,4.779506811E0
1.323343984E1,3.867064416E-2,-4.306946754E0,-7.496359348E-1,4.371869143E0
1.324165245E1,2.155237496E-1,-3.421461105E0,-4.519217610E-1,3.457901077E0
1.324986314E1,4.838197827E-1,-2.158360481E0,2.205441892E-1,2.222890301E0
1.325807280E1,5.448237658E-1,-6.089868546E-1,-1.452290565E-1,8.299333730E-1
1.326628337E1,3.855109215E-1,8.143692017E-1,-2.647679746E-1,9.391048651E-1
1.327449303E1,3.220180869E-1,2.489647865E0,-5.541965961E-1,2.570831774E0
1.328270337E1,7.690934837E-2,3.935461044E0,-9.286977053E-1,4.044285859E0
1.329091387E1,-1.458680332E-1,4.948269844E0,-1.228814125E0,5.100650555E0
1.329912457E1,3.797810972E-1,5.190525055E0,-1.315137148E0,5.367994946E0
1.330733583E1,1.637028098E0,4.243241310E0,-1.039579272E0,4.665370604E0
1.331554607E1,2.718124390E0,2.941843033E0,-6.160370111E-1,4.052424241E0
1.332376095E1,2.528913736E0,1.678632736E0,-1.199733391E-1,3.037697508E0
1.333197080E1,1.777301431E0,7.384223938E-1,1.667736024E-1,1.931807817E0
1.334018137E1,1.392700076E0,-9.887599945E-2,3.079091907E-1,1.429754537E0
1.334839099E1,1.485986352E0,-7.589492798E-1,2.679834962E-1,1.689962900E0
1.335660083E1,1.614928603E0,-1.107667923E0,1.083493531E-1,1.961290953E0
1.336482364E1,1.609056950E0,-1.030102730E0,-2.527786493E-1,1.927193023E0
1.337303449E1,1.324381232E0,-6.508150101E-1,-5.426367521E-1,1.572259670E0
1.338124580E1,8.768897653E-1,-1.301498413E-1,-7.008928657E-1,1.130099753E0
1.338945626E1,4.287694395E-1,3.092079163E-1,-6.681548357E-1,8.519880587E-1
1.339766649E1,1.738440990E-2,5.906486511E-1,-5.912731886E-1,8.359258522E-1
1.340588341E1,-2.086209804E-1,8.147525787E-1,-4.714989662E-1,9.641865759E-1
1.341409468E1,-2.118278146E-1,9.000701904E-1,-2.523809075E-1,9.584849990E-1
1.342230537E1,-8.449658751E-2,8.226613998E-1,5.601018667E-2,8.288839443E-1
1.343051518E1,-1.375182867E-1,5.442428589E-1,4.331767261E-1,7.090512285E-1
1.343872530E1,-2.860783041E-1,1.703538895E-1,8.984400034E-1,9.581522235E-1
1.344693426E1,-3.636636436E-1,-2.629814148E-1,1.433498859E0,1.502108335E0
1.345514353E1,-5.395680666E-1,-6.238918304E-1,1.900914669E0,2.072161020E0
1.346335337E1,-7.464436293E-1,-8.139543533E-1,2.044960976E0,2.324126755E0
1.347156295E1,-8.357685804E-1,-8.474340439E-1,1.755332351E0,2.120812401E0
1.347977264E1,-8.687107563E-1,-7.675142288E-1,1.111261725E0,1.605814152E0
1.348798599E1,-7.836847305E-1,-6.202068329E-1,4.562385380E-1,1.098622718E0
1.349619453E1,-7.697235346E-1,-4.446020126E-1,-7.760107517E-2,8.922820161E-1
1.350440499E1,-8.593183756E-1,-3.368263245E-1,-3.651316166E-1,9.925729902E-1
1.351261537E1,-9.778673053E-1,-2.875108719E-1,-4.188355207E-1,1.101957423E0
1.352082610E1,-1.267919898E0,-4.285430908E-1,-1.153795719E-1,1.343347496E0
1.352903749E1,-1.506024122E0,-6.924600601E-1,2.878326178E-1,1.682396269E0
