"Time (s)","Linear Acceleration x (m/s^2)","Linear Acceleration y (m/s^2)","Linear Acceleration z (m/s^2)","Absolute acceleration (m/s^2)"
1.687335400E-2,-5.772066116E-2,6.235580444E-1,-7.511854172E-2,6.307131716E-1
2.508673800E-2,3.352099657E-2,5.510292053E-1,1.964700818E-1,5.859670088E-1
3.330131500E-2,1.341856122E-1,3.982267380E-1,3.884214759E-1,5.722425677E-1
4.151773800E-2,8.286535740E-2,1.221084595E-1,4.298333526E-1,4.544599590E-1
4.973258400E-2,3.022456169E-1,-1.662549973E-1,3.401602507E-1,4.844606622E-1
5.795054600E-2,5.271069407E-1,-3.332433701E-1,8.175784349E-2,6.289492950E-1
6.616543100E-2,3.888225257E-1,-3.432359695E-1,-2.011213899E-1,5.562766405E-1
7.438073800E-2,2.499411404E-1,-2.611217499E-1,-4.728603363E-1,5.951907590E-1
8.259570000E-2,1.289024353E-1,-1.940345764E-1,-6.079922915E-1,6.510913002E-1
9.081012300E-2,8.087754250E-3,-7.824993134E-2,-5.587602854E-1,5.642707861E-1
9.902393000E-2,5.196571350E-3,6.712818146E-2,-3.624832630E-1,3.686832151E-1
1.072362380E-1,4.751265049E-3,3.959741592E-1,-9.040594101E-2,4.061912646E-1
1.154508150E-1,1.220053434E-2,8.057451248E-1,8.892822266E-2,8.107294789E-1
1.236638920E-1,-4.967021942E-2,1.066945076E0,3.540744781E-1,1.125258931E0
1.318763920E-1,-2.371978164E-1,1.100660324E0,6.470400691E-1,1.298605715E0
1.400909300E-1,-3.200099468E-1,8.846740723E-1,9.016316533E-1,1.303071072E0
1.483042760E-1,-3.860300779E-1,5.769004822E-1,8.782131672E-1,1.119415809E0
1.565183920E-1,-3.079305291E-1,3.004980087E-1,5.604157448E-1,7.065310121E-1
1.647301220E-1,-1.572371125E-1,-3.970623016E-2,2.005925179E-1,2.579485462E-1
1.729426990E-1,-2.226399183E-1,-2.008419037E-1,-3.135216236E-1,4.338223277E-1
1.811556610E-1,-1.490137577E-1,-3.212461472E-1,-5.341876149E-1,6.409060734E-1
1.893690840E-1,-2.521156669E-1,-2.523651123E-1,-5.637934208E-1,6.671682552E-1
1.975821990E-1,-3.565602899E-1,-5.141353607E-2,-6.167558432E-1,7.142593101E-1
2.058219300E-1,-2.342942357E-1,7.287311554E-2,-3.875596523E-1,4.587011707E-1
2.140345840E-1,-5.759114027E-2,2.634630203E-1,-2.322916985E-1,3.559338923E-1
2.222503530E-1,-3.556883335E-2,4.722194672E-1,-9.240090847E-2,4.824876112E-1
2.304628530E-1,-8.752864599E-2,4.893884659E-1,1.124922037E-1,5.097223070E-1
2.386771990E-1,-3.293999434E-1,4.702596664E-1,2.054099441E-1,6.097882597E-1
2.469048140E-1,-4.371465445E-1,4.481077194E-1,-7.173693180E-2,6.301141301E-1
2.551212760E-1,-1.065396070E-1,3.548870087E-1,-1.325070858E-1,3.935144274E-1
2.633370450E-1,-9.925997257E-2,3.788394928E-1,-5.715795755E-1,6.928745302E-1
2.715518140E-1,-9.574997425E-2,4.057521820E-1,-7.132581472E-1,8.261598365E-1
2.797661220E-1,1.505234838E-1,3.584423065E-1,-4.982794523E-1,6.319973251E-1
2.879812760E-1,3.322355151E-1,3.566818237E-1,-3.775523901E-1,6.165615688E-1
2.961964300E-1,1.702808738E-1,3.114004135E-1,-3.222239017E-1,4.793683723E-1
3.044148140E-1,-2.177847624E-1,1.667652130E-1,-4.037702084E-1,4.881303311E-1
3.126315830E-1,-5.407041311E-1,-5.564594269E-2,-1.022183180E0,1.157720122E0
3.208469680E-1,-7.136497498E-1,-2.429189682E-1,-1.570881367E0,1.742404620E0
3.290616600E-1,-6.175546646E-1,-3.621215820E-1,-1.996309638E0,2.120791827E0
3.372748910E-1,-5.077313185E-1,-3.585681915E-1,-2.337719679E0,2.418945129E0
3.454896990E-1,-3.343968391E-1,-2.829627991E-1,-2.533588886E0,2.571179075E0
3.537052370E-1,-1.643151045E-1,-2.873840332E-1,-1.923921704E0,1.952194601E0
3.619198910E-1,-4.335033894E-2,-2.228746414E-1,-8.890683651E-1,9.176028092E-1
3.701613520E-1,-1.392012835E-1,1.807451248E-1,4.400891066E-1,4.957057788E-1
3.783757370E-1,-1.681674719E-1,6.272716522E-1,1.528145552E0,1.660415265E0
3.865927750E-1,-2.701010704E-1,8.676090240E-1,1.914245725E0,2.118970670E0
3.948067370E-1,-9.623396397E-2,6.728000641E-1,1.359867454E0,1.520250109E0
4.030206600E-1,5.111892223E-1,1.863222122E-1,4.997764826E-1,7.387874663E-1
4.112357750E-1,8.085592985E-1,-5.867671967E-2,-4.914659262E-1,9.480241839E-1
4.194509680E-1,9.242289066E-1,-1.424312592E-2,-1.217903972E0,1.528951282E0
4.276658140E-1,9.994655252E-1,9.784889221E-2,-1.580751419E0,1.872773556E0
4.358795440E-1,1.136726856E0,2.984037399E-1,-1.494611979E0,1.901330509E0
4.440938140E-1,1.328485727E0,6.343393326E-1,-8.550554514E-1,1.702463081E0
4.523110060E-1,1.647267580E0,9.618425369E-1,2.387285233E-2,1.907669117E0
4.605253520E-1,1.327647090E0,1.140744209E0,4.711155891E-1,1.812703518E0
4.687424670E-1,6.126470566E-1,1.087322235E0,5.161910057E-1,1.350577363E0
4.769565060E-1,3.178668022E-1,7.077798843E-1,3.794567585E-1,8.637008164E-1
4.851707370E-1,2.336126566E-1,3.644132614E-1,-2.606403828E-2,4.336487432E-1
4.933984290E-1,3.372777700E-1,2.608137131E-1,-3.233931065E-1,5.351291325E-1
5.016124290E-1,6.552960873E-1,2.241659164E-1,-3.619037867E-1,7.814330879E-1
5.098266210E-1,7.237661481E-1,1.976852417E-1,-4.896998405E-1,8.959480039E-1
5.180413520E-1,7.055956125E-1,2.333002090E-1,-6.208248138E-1,9.683582010E-1
5.262547360E-1,7.858443856E-1,3.426122665E-1,-5.568761826E-1,1.022274741E0
5.344683520E-1,7.192615271E-1,5.238676071E-1,-6.543520689E-1,1.104513940E0
5.426817360E-1,6.717743278E-1,6.620054245E-1,-6.324659586E-1,1.135581401E0
5.509007750E-1,6.553975940E-1,7.255516052E-1,-5.438086987E-1,1.118793564E0
5.591172750E-1,5.436808467E-1,8.300819397E-1,-5.283443928E-1,1.124176448E0
5.673321590E-1,4.996594191E-1,9.267835617E-1,-5.202741623E-1,1.174424331E0
5.755469670E-1,5.279778242E-1,8.579111099E-1,-4.099938869E-1,1.087596912E0
5.837614670E-1,5.619882941E-1,7.938194275E-1,-4.589755535E-1,1.075471378E0
5.919761980E-1,6.040305495E-1,7.049627304E-1,-4.018287659E-1,1.011578822E0
6.001904670E-1,7.249588370E-1,4.621829987E-1,-1.650838852E-1,8.754605238E-1
6.084048520E-1,7.706730366E-1,2.716608047E-1,-1.555790901E-1,8.318301362E-1
6.166184670E-1,8.306657672E-1,5.673789978E-2,-1.227941513E-1,8.416075152E-1
6.248327750E-1,9.025472999E-1,-1.755037308E-1,-2.135379314E-1,9.439235330E-1
6.330518900E-1,8.868322372E-1,-1.414508820E-1,-4.380093813E-1,9.991656455E-1
6.412680050E-1,8.293621540E-1,1.227531433E-1,-7.356610298E-1,1.115395476E0
6.494841210E-1,8.187664747E-1,2.270851135E-1,-8.036990166E-1,1.169563294E0
6.577005050E-1,7.350167632E-1,3.133354187E-1,-9.275988340E-1,1.224282779E0
6.659170440E-1,7.232664227E-1,2.225313187E-1,-7.828024626E-1,1.088767285E0
6.741340440E-1,6.206418872E-1,4.356193542E-2,-6.592514515E-1,9.064802649E-1
6.823496200E-1,5.913184285E-1,-1.466617584E-1,-5.848834515E-1,8.445447336E-1
6.905659670E-1,7.055839896E-1,-2.814064026E-1,-6.605728865E-1,1.006675155E0
6.987811200E-1,8.920502663E-1,-3.369455338E-1,-8.187973499E-1,1.256867165E0
7.069958510E-1,1.061631680E0,-3.035917282E-1,-1.082176447E0,1.546071028E0
7.152153130E-1,1.175487757E0,-1.314783096E-1,-1.297646284E0,1.755831396E0
7.234297360E-1,1.201157451E0,1.720075607E-1,-1.374755144E0,1.833662327E0
7.316455430E-1,1.218721986E0,5.346155167E-1,-1.344225168E0,1.891570335E0
7.398740820E-1,1.341933966E0,8.962831497E-1,-1.228009939E0,2.027835956E0
7.480893510E-1,1.539009333E0,1.101103783E0,-1.111320972E0,2.194541768E0
7.563059280E-1,1.806431532E0,1.056078911E0,-9.989740849E-1,2.318716621E0
7.645226590E-1,2.000730991E0,7.923793793E-1,-9.325608015E-1,2.345305786E0
7.727390050E-1,2.110086918E0,3.771867752E-1,-8.779568672E-1,2.316364592E0
7.809532740E-1,2.244051456E0,-8.149337769E-2,-8.519673347E-1,2.401719478E0
7.891683510E-1,2.313524246E0,-4.373416901E-1,-7.827934027E-1,2.481214965E0
7.973851970E-1,2.198549271E0,-6.350288391E-1,-8.071516752E-1,2.426597278E0
8.055995430E-1,2.176583767E0,-7.679376602E-1,-8.771930933E-1,2.469152257E0
8.138138510E-1,2.131937981E0,-7.020235062E-1,-9.042680264E-1,2.419854793E0
8.220282740E-1,2.075047970E0,-5.688447952E-1,-8.335992098E-1,2.307443633E0
8.302407740E-1,1.900006771E0,-3.277111053E-1,-8.449857235E-1,2.105094100E0
8.384554280E-1,1.817252398E0,-9.961128235E-3,-8.168872595E-1,1.992438279E0
8.466693510E-1,1.708388090E0,3.484334946E-1,-5.972191095E-1,1.843004729E0
8.548833120E-1,1.767064333E0,6.660022736E-1,-2.311382294E-1,1.902498427E0
8.630985040E-1,1.764589190E0,7.828626633E-1,1.093529463E-1,1.933547783E0
8.713130430E-1,1.707657337E0,7.903308868E-1,3.864448071E-1,1.920951868E0
8.795284270E-1,1.682151318E0,6.240186691E-1,7.551846504E-1,1.946621743E0
8.877417350E-1,1.118371964E0,3.441448212E-1,1.071020246E0,1.586277363E0
8.959534270E-1,4.732367992E-1,-3.648757935E-3,8.071478605E-1,9.356570153E-1
9.041653500E-1,1.691656113E-1,-5.037536621E-1,6.016210914E-1,8.027033659E-1
9.123781970E-1,-5.091726035E-2,-9.100036621E-1,5.332769156E-1,1.055975142E0
9.205915430E-1,-5.214282870E-1,-1.354234695E0,5.462871790E-1,1.550570460E0
9.288055040E-1,-8.842592835E-1,-1.611502647E0,7.581196427E-1,1.988366328E0
9.370191580E-1,-1.449421048E0,-1.686290741E0,1.298481345E0,2.574966338E0
9.452316580E-1,-2.162043333E0,-1.400810242E0,1.709627748E0,3.091848596E0
9.534446190E-1,-2.672157764E0,-8.617296219E-1,1.923537016E0,3.403380630E0
9.616623890E-1,-2.902977943E0,-1.879549026E-1,1.900196433E0,3.474673290E0
9.698763500E-1,-2.516232014E0,7.238464355E-1,1.756591320E0,3.152933598E0
9.780909660E-1,-1.703001261E0,1.631917953E0,1.491417050E0,2.790644069E0
9.863163890E-1,-9.600433111E-1,2.725270271E0,1.446017981E0,3.231060075E0
9.945292350E-1,-5.742385387E-1,3.799328804E0,1.415919304E0,4.095055157E0
1.002742196E0,-3.242132366E-1,4.832180023E0,1.317612290E0,5.019081604E0
1.010954196E0,-4.432705939E-1,5.242557526E0,1.316500545E0,5.423474155E0
1.019166388E0,-8.336955905E-1,4.855842590E0,1.434765458E0,5.131550206E0
1.027408773E0,-1.131245852E0,3.961348534E0,1.542635202E0,4.399059303E0
1.035621311E0,-1.417636752E0,3.140323639E0,1.568196297E0,3.785573423E0
1.043836388E0,-1.485319138E0,2.253065109E0,1.512911797E0,3.093764282E0
1.052048965E0,-1.567338467E0,1.301043510E0,1.263540149E0,2.397039381E0
1.060261696E0,-1.599074364E0,3.462295532E-1,9.746696949E-1,1.904440794E0
1.068476465E0,-1.952758551E0,-3.280172348E-1,8.091998100E-1,2.139080549E0
1.076690273E0,-2.291952133E0,-7.265672684E-1,8.505840302E-1,2.550379926E0
1.084903465E0,-2.624127388E0,-9.785680771E-1,1.382540345E0,3.123308796E0
1.093117927E0,-2.315614700E0,-1.089733124E0,2.224782228E0,3.391053772E0
1.101330196E0,-1.674275160E0,-1.106984138E0,3.167247057E0,3.749675334E0
1.109543657E0,-7.769086361E-1,-9.057006836E-1,3.584134102E0,3.777551855E0
1.117758657E0,-5.841742754E-1,-5.204210281E-1,2.859559536E0,2.964654848E0
1.125976157E0,-7.746933103E-1,-1.654663086E-1,1.686648130E0,1.863413733E0
1.134189542E0,-8.761440516E-1,1.488304138E-2,8.817341328E-1,1.243102966E0
1.142403273E0,-8.004003763E-1,-3.385257721E-2,5.964460373E-1,9.987665567E-1
1.150617388E0,-6.790698171E-1,-3.288335800E-1,1.013964891E0,1.263879797E0
1.158830849E0,-9.159463048E-1,-4.762592316E-1,1.773196816E0,2.051830266E0
1.167046926E0,-1.373854995E0,-5.135450363E-1,2.338837624E0,2.760682430E0
1.175263311E0,-1.271524072E0,-5.211839676E-1,1.827043295E0,2.286152531E0
1.183477234E0,-7.967417240E-1,-5.675649643E-1,1.037541866E0,1.425980536E0
1.191722003E0,-8.912224770E-1,-5.405673981E-1,4.090154171E-1,1.119725067E0
1.199935811E0,-1.311364651E0,-7.094745636E-1,8.131184578E-1,1.698291209E0
1.208152618E0,-1.390807152E0,-9.362783432E-1,1.403781056E0,2.186678514E0
1.216366542E0,-1.000150561E0,-9.925022125E-1,1.429967284E0,2.007527888E0
1.224579926E0,-8.675703406E-1,-9.482679367E-1,1.215983748E0,1.769323840E0
1.232806580E0,-8.130939007E-1,-7.180767059E-1,1.029404879E0,1.495469910E0
1.241019465E0,-7.913137674E-1,-3.744935989E-1,8.741021156E-1,1.237124667E0
1.249235580E0,-5.626563430E-1,2.064857483E-1,5.488657951E-1,8.126943987E-1
1.257449888E0,-4.211810231E-1,5.405693054E-1,4.385905266E-1,8.136155592E-1
1.265663234E0,-2.206393480E-1,6.639614105E-1,3.826417923E-1,7.974592264E-1
1.273878580E0,-2.633047104E-2,7.140245438E-1,2.459018230E-1,7.556401587E-1
1.282092080E0,1.865216494E-1,6.796665192E-1,1.403310299E-1,7.186304342E-1
1.290308157E0,4.830017090E-1,7.148628235E-1,5.519962311E-2,8.645036181E-1
1.298520310E0,5.852324963E-1,7.078723907E-1,9.311008453E-2,9.231738103E-1
1.306732618E0,8.615206480E-1,6.621589661E-1,1.482059956E-1,1.096648230E0
1.314947233E0,1.542054892E0,5.521697998E-1,3.088519573E-1,1.666797621E0
1.323159426E0,2.594957829E0,3.269233704E-1,8.261460066E-1,2.742845648E0
1.331371926E0,3.610368729E0,1.104459763E-1,1.523628116E0,3.920255515E0
1.339583464E0,4.162535667E0,5.953502655E-2,1.879527807E0,4.567589340E0
1.347795387E0,3.838052988E0,2.640752792E-1,1.761516333E0,4.231232242E0
1.356043926E0,2.288707256E0,7.882175446E-1,1.135156035E0,2.673583181E0
1.364257002E0,9.185522795E-1,1.259395599E0,4.439358711E-1,1.620769763E0
1.372475079E0,6.537005901E-1,1.345387459E0,-7.095623016E-2,1.497473426E0
1.380689387E0,8.353394270E-1,1.232464790E0,-3.942055702E-1,1.540181629E0
1.388904541E0,1.167312503E0,7.189226151E-1,-4.274771214E-1,1.436037916E0
1.397119195E0,1.190239429E0,1.087999344E-1,-2.954266071E-1,1.231171883E0
1.405334195E0,1.164250493E0,-5.115871429E-1,-9.491658211E-2,1.275229302E0
1.413548233E0,8.681381941E-1,-9.480857849E-1,7.037782669E-2,1.287432957E0
1.421760002E0,3.700568676E-1,-9.535007477E-1,6.107819080E-2,1.024615199E0
1.429973041E0,4.043781757E-2,-8.178424835E-1,3.796207905E-2,8.197210894E-1
1.438184964E0,-1.256674528E-1,-3.306350708E-1,8.344566822E-2,3.634212959E-1
1.446397156E0,-8.548057079E-2,9.343318939E-1,6.796503067E-2,9.406924372E-1
1.454613694E0,-3.833973408E-2,2.709211349E0,1.768231392E-1,2.715246304E0
1.462825733E0,-1.713228822E-1,4.314962387E0,2.575733662E-1,4.326036982E0
1.471039156E0,-5.553098917E-1,5.033764839E0,4.278939962E-1,5.082346978E0
1.479265771E0,-1.156797647E0,4.624382019E0,8.169859052E-1,4.836378379E0
1.487478464E0,-1.670840621E0,3.232941628E0,1.210994601E0,3.835378452E0
1.495690579E0,-1.862660170E0,1.637965202E0,1.206089735E0,2.758094516E0
1.503901694E0,-1.843195438E0,2.433214188E-1,1.011433005E0,2.116499814E0
1.512113348E0,-1.757278204E0,-1.229703903E0,9.443082213E-1,2.343483815E0
1.520354963E0,-1.660002589E0,-2.394246101E0,9.850014448E-1,3.075426936E0
1.528566386E0,-1.602444649E0,-3.222342491E0,1.109762669E0,3.766018211E0
1.536783117E0,-1.732057571E0,-3.463824749E0,1.472683787E0,4.143296135E0
1.544995040E0,-1.624309540E0,-2.772894859E0,1.999004960E0,3.784619956E0
1.553207002E0,-1.414298058E0,-1.553994179E0,2.851819038E0,3.542316859E0
1.561417502E0,-1.556799531E0,-2.733888626E-1,2.971649647E0,3.365868071E0
1.569629732E0,-1.674233079E0,6.999702454E-1,2.262182713E0,2.900083684E0
1.577843463E0,-1.333183050E0,1.635725021E0,1.167218566E0,2.411508360E0
1.586056309E0,-7.208532095E-1,2.614115715E0,7.070338726E-2,2.712605627E0
1.594267540E0,-1.103781700E0,3.269526482E0,-8.368501663E-1,3.550838726E0
1.602477463E0,-1.710475683E0,2.796492577E0,-1.118761301E0,3.463773180E0
1.610687578E0,-2.392676115E0,1.747534752E0,-6.380094290E-1,3.030813873E0
1.618900540E0,-3.017333031E0,4.703826904E-1,-2.302156687E-1,3.062443101E0
1.627110809E0,-3.370524168E0,-6.228713989E-1,3.152228594E-1,3.442058599E0
1.635322809E0,-3.531549454E0,-1.497982025E0,4.175721407E-1,3.858776773E0
1.643533732E0,-3.322015047E0,-2.085494995E0,8.386302590E-1,4.011031546E0
1.651744924E0,-2.726426840E0,-2.343001366E0,1.128075600E0,3.767706633E0
1.659956886E0,-2.242458820E0,-1.932541370E0,9.190370440E-1,3.099672047E0
1.668167771E0,-2.198029280E0,-1.288043976E0,6.514283419E-1,2.629591011E0
1.676379347E0,-2.367143154E0,-6.484127045E-1,2.472738028E-1,2.466769158E0
1.684621771E0,-2.529955387E0,-2.220849991E-1,-5.422620773E-1,2.596929758E0
1.692834424E0,-2.400271416E0,1.246833801E-1,-1.576081991E0,2.874175231E0
1.701048501E0,-2.022722721E0,3.760299683E-1,-2.212980270E0,3.021603452E0
1.709260193E0,-1.701336503E0,5.664091110E-1,-2.095664501E0,2.758110745E0
1.717470232E0,-1.400203228E0,8.697061539E-1,-6.429095268E-1,1.769262709E0
1.725693117E0,-6.067178249E-1,1.724022865E0,2.284766912E0,2.925836838E0
1.733904309E0,-2.728651464E-2,1.479677200E0,3.826473713E0,4.102693048E0
1.742115424E0,3.986917436E-1,7.107925415E-1,3.817911625E0,3.903924989E0
1.750328616E0,4.321341217E-1,-6.558036804E-2,2.612649202E0,2.648957632E0
1.758541078E0,8.496960998E-2,-5.168743134E-1,1.055593252E0,1.178412493E0
1.766752039E0,-8.522548527E-2,-5.798234940E-1,-2.718191147E-1,6.460219026E-1
1.774964539E0,-3.586143255E-2,-3.766164780E-1,-1.230223894E0,1.287080745E0
1.783181270E0,3.385727704E-1,8.199691772E-3,-1.603708982E0,1.639079393E0
1.791394847E0,1.061588526E0,2.290763855E-1,-1.281814933E0,1.680028485E0
1.799607270E0,1.886952162E0,3.257675171E-1,-2.448713779E-1,1.930459771E0
1.807819616E0,2.552349329E0,3.725852966E-1,7.792840600E-1,2.694548301E0
1.816031885E0,2.879695892E0,2.165775299E-1,8.954522014E-1,3.023472987E0
1.824245424E0,2.869828939E0,4.196739197E-2,2.820557356E-1,2.883961657E0
1.832459847E0,1.952267170E0,2.937269211E-1,-1.132673025E-1,1.977486306E0
1.840672655E0,8.754978180E-1,3.683061600E-1,-2.684905529E-1,9.870324381E-1
1.848912885E0,4.352211058E-1,1.218729019E-1,-5.649714470E-1,7.235075335E-1
1.857126847E0,2.898890674E-1,-1.225938797E-1,-7.883459330E-1,8.488546641E-1
1.865343693E0,5.187672377E-2,-3.932094574E-2,-7.229382992E-1,7.258630144E-1
1.873556577E0,-2.429991961E-2,1.802492142E-1,-6.125324965E-1,6.389650417E-1
1.881770308E0,-1.564519405E-1,4.482202530E-1,-8.766359091E-1,9.969298481E-1
1.889985808E0,-2.791672945E-1,5.422849655E-1,-1.324399948E0,1.458095533E0
1.898201000E0,-3.532032967E-1,6.398172379E-1,-1.943183661E0,2.076073555E0
1.906415231E0,-3.603221178E-1,8.770370483E-1,-2.358284473E0,2.541757595E0
1.914629308E0,-3.453482389E-1,1.131249428E0,-2.457546711E0,2.727366222E0
1.922841616E0,-1.445198059E-1,1.214815140E0,-2.281666517E0,2.588950346E0
1.931053885E0,1.893607974E-1,9.476490021E-1,-1.327098370E0,1.641671778E0
1.939265770E0,7.882980108E-1,3.754463196E-1,-1.702557802E-1,8.895845791E-1
1.947482923E0,1.209963322E0,-3.232002258E-2,6.341300607E-1,1.366446764E0
1.955696385E0,1.202746868E0,9.434700012E-3,8.699712753E-1,1.484432236E0
1.963908269E0,8.444275856E-1,4.312620163E-1,2.417047024E-1,9.785019352E-1
1.972135000E0,8.457413912E-1,6.462459564E-1,-7.188253403E-1,1.284376194E0
1.980348692E0,1.169973969E0,4.507160187E-1,-1.358397961E0,1.848574867E0
1.988563846E0,1.521471381E0,5.304336548E-3,-1.650368571E0,2.244686998E0
1.996778462E0,1.957704782E0,-4.551410675E-1,-1.715820312E0,2.642688168E0
2.004991615E0,2.255264282E0,-7.652025223E-1,-1.711348653E0,2.932655127E0
2.013231885E0,2.549707413E0,-1.065887451E0,-1.673927188E0,3.230968304E0
2.021443769E0,2.556245804E0,-1.141254425E0,-1.483976483E0,3.168444488E0
2.029659346E0,2.497614861E0,-8.738689423E-1,-1.398554564E0,2.992938654E0
2.037872000E0,2.382711649E0,-4.024019241E-1,-1.274256110E0,2.731843836E0
2.046084577E0,2.416702032E0,-2.104578018E-1,-1.197946548E0,2.705516056E0
2.054298615E0,2.465256214E0,-1.039209366E-1,-1.127047181E0,2.712659785E0
2.062510077E0,2.375280380E0,2.011394501E-2,-1.032102585E0,2.589902933E0
2.070723577E0,2.181998491E0,3.603048325E-1,-1.021984935E0,2.436265625E0
2.078936423E0,1.807502985E0,6.027975082E-1,-8.291530609E-1,2.077962145E0
2.087151307E0,1.075125456E0,5.490627289E-1,-5.890899897E-1,1.343276458E0
2.095365615E0,3.613594770E-1,5.004768372E-1,-2.346417904E-1,6.603896622E-1
2.103579807E0,-1.096009165E-1,4.308948517E-1,5.203644633E-1,6.844427725E-1
2.111798192E0,-4.684545696E-1,2.619247437E-1,9.586995244E-1,1.098707893E0
2.120013077E0,-7.799440622E-1,1.660528183E-1,1.376634717E0,1.590914650E0
2.128225538E0,-1.593834639E0,4.045486450E-1,2.372381926E0,2.886548884E0
2.136437576E0,-2.441274166E0,8.251972198E-1,2.933183193E0,3.904399269E0
2.144648576E0,-3.238469601E0,1.455555916E0,3.930801868E0,5.296936068E0
2.152860769E0,-3.868243217E0,2.372392654E0,4.721007824E0,6.548241548E0
2.161072499E0,-4.047541618E0,3.366737366E0,4.215086937E0,6.744217636E0
2.169283999E0,-3.940604687E0,4.410546303E0,3.234541893E0,6.741182778E0
2.177526153E0,-2.996804237E0,5.088446617E0,2.228216171E0,6.311740799E0
2.185737692E0,-2.238305569E0,5.356990814E0,1.419389486E0,5.976790854E0
2.193954076E0,-1.591004610E0,4.841230392E0,6.944711208E-1,5.143063048E0
2.202166076E0,-1.047232628E0,3.636134148E0,4.939565659E-1,3.816039938E0
2.210376884E0,-4.655989408E-1,1.765469551E0,4.230020046E-1,1.874192041E0
2.218600845E0,-1.122491360E-1,1.098222733E-1,1.254785061E-1,2.010115811E-1
2.226811615E0,-8.632647991E-2,-1.137020111E0,-1.119530201E-1,1.145775053E0
2.235024153E0,-9.072037935E-1,-1.799935818E0,4.831361771E-2,2.016214740E0
2.243234538E0,-2.098941803E0,-2.048512936E0,5.829660892E-1,2.990286174E0
2.251446076E0,-3.167062283E0,-2.030287266E0,1.230834723E0,3.958194538E0
2.259657807E0,-3.978754520E0,-1.885860920E0,1.997272730E0,4.834879244E0
2.267869807E0,-3.966487408E0,-1.512989521E0,2.776914597E0,5.072811284E0
2.276085807E0,-3.216156006E0,-9.315891266E-1,3.501765013E0,4.844984619E0
2.284297999E0,-2.395793915E0,-3.154296875E-1,3.730731010E0,4.444960994E0
2.292511730E0,-1.808059335E0,1.523332596E-1,3.423932791E0,3.874996740E0
2.300724422E0,-1.477040887E0,3.193702698E-1,2.490861654E0,2.913423919E0
2.308936884E0,-1.456018209E0,2.790422440E-1,1.409208417E0,2.045414863E0
2.317149768E0,-1.583883762E0,1.518344879E-1,1.012897491E0,1.886187375E0
2.325361153E0,-1.293360353E0,-1.543064117E-1,1.151477575E0,1.738531586E0
2.333573499E0,-6.897836924E-1,-5.044622421E-1,1.482432365E0,1.711107657E0
2.341814614E0,-5.136238933E-1,-7.448301315E-1,1.852299333E0,2.061454401E0
2.350025076E0,-1.034908772E0,-7.360153198E-1,1.710752368E0,2.130593434E0
2.358241806E0,-1.529827714E0,-7.487554550E-1,1.388210654E0,2.197302070E0
2.366452383E0,-1.657241821E0,-8.073205948E-1,1.115415096E0,2.154615472E0
2.374664383E0,-1.600652575E0,-8.841562271E-1,1.040236712E0,2.103785473E0
2.382875191E0,-1.549997926E0,-1.009083748E0,1.263197422E0,2.239734651E0
2.391087306E0,-1.426323414E0,-1.113101959E0,1.652216554E0,2.450145708E0
2.399300806E0,-1.271780729E0,-1.052044868E0,1.902431607E0,2.518624753E0
2.407512960E0,-9.881436825E-1,-7.802972794E-1,1.817563176E0,2.211069352E0
2.415723691E0,-7.625949979E-1,-3.343658447E-1,1.677819490E0,1.873080322E0
2.423936075E0,-4.895515442E-1,1.928405762E-1,1.409053087E0,1.504087366E0
2.432149114E0,-4.390804768E-1,7.992048264E-1,1.112341404E0,1.438340509E0
2.440366037E0,-3.216374516E-1,1.470908165E0,6.932964325E-1,1.657613171E0
2.448577960E0,-2.452546954E-1,1.905032158E0,3.005108833E-1,1.944120413E0
2.456789729E0,-1.066739559E-1,2.153720856E0,-2.257750034E-1,2.168148337E0
2.465013921E0,-3.317147493E-2,2.267367363E0,-5.257606506E-1,2.327762739E0
2.473226844E0,-1.359962821E-1,2.090953827E0,-3.999667168E-1,2.133203288E0
2.481440652E0,3.016877174E-2,1.681180954E0,5.913734436E-3,1.681462021E0
2.489652960E0,1.076587319E0,9.091901779E-1,-8.714938164E-2,1.411829328E0
2.497865421E0,2.581231833E0,1.642608643E-1,-1.988291740E-2,2.586529477E0
2.506109383E0,3.591460705E0,-3.544588089E-1,1.056354046E-1,3.610455633E0
2.514322613E0,3.720116615E0,-6.270256042E-1,2.340064049E-1,3.779839644E0
2.522537844E0,3.269233465E0,-6.944980621E-1,3.907322884E-1,3.364949737E0
2.530749306E0,2.511397839E0,-2.182426453E-1,3.465607166E-1,2.544573301E0
2.538959998E0,1.598060489E0,2.943115234E-1,1.181818247E-1,1.629227898E0
2.547171344E0,9.395076036E-1,7.024269104E-1,-2.080072165E-1,1.191362709E0
2.555383267E0,7.386965752E-1,9.508543015E-1,-4.800708294E-1,1.296250182E0
2.563594306E0,1.043659210E0,1.470393181E0,-5.993533134E-1,1.900132903E0
2.571806306E0,1.420753598E0,2.658083916E0,-5.058367252E-1,3.056112184E0
2.580018767E0,1.801678419E0,4.150152206E0,-2.761573792E-1,4.532777444E0
2.588232113E0,2.102244139E0,5.796038628E0,-1.232198477E-1,6.166739602E0
2.596444882E0,2.154623032E0,6.930164337E0,2.368258238E-1,7.261244013E0
2.604662421E0,1.433989286E0,7.316168785E0,8.031395674E-1,7.498512128E0
2.612876998E0,2.385939956E-1,6.586422920E0,1.512948394E0,6.762167317E0
2.621089459E0,-8.334275484E-1,4.248537064E0,1.914947748E0,4.734099021E0
2.629302728E0,-1.023787498E0,1.317041397E0,1.724694729E0,2.399439683E0
2.637517151E0,-1.112344861E0,-1.119429588E0,1.557297111E0,2.217117043E0
2.645731959E0,-1.212456703E0,-2.970773697E0,1.509919167E0,3.546181539E0
2.653947574E0,-1.372697592E0,-4.139227390E0,1.695844173E0,4.679037244E0
2.662160305E0,-1.542108297E0,-5.023088455E0,1.808005810E0,5.556833688E0
2.670401921E0,-1.708311081E0,-5.348156929E0,1.880116463E0,5.920806296E0
2.678612690E0,-1.820956707E0,-5.018250942E0,1.978172541E0,5.693144338E0
2.686827728E0,-1.791604519E0,-4.002537251E0,2.006593466E0,4.822506457E0
2.695040459E0,-1.659495950E0,-2.835151196E0,1.875958085E0,3.783018351E0
2.703254228E0,-1.598776340E0,-1.444181442E0,1.649236679E0,2.713250348E0
2.711480844E0,-2.043715477E0,2.944269180E-1,9.090915918E-1,2.256082375E0
2.719692882E0,-2.239227295E0,1.929762840E0,-1.613848209E-1,2.960433846E0
2.727905574E0,-1.884407520E0,3.272126198E0,-1.456875443E0,4.047256801E0
2.736117497E0,-2.327853203E0,4.199097633E0,-1.796760559E0,5.126370058E0
2.744329843E0,-2.903543949E0,4.125623703E0,-1.654599428E0,5.309334956E0
2.752542766E0,-3.063965559E0,2.807838440E0,-5.232424736E-1,4.188749734E0
2.760754074E0,-2.790045023E0,9.580564499E-1,4.310979843E-1,2.981286444E0
2.768970382E0,-2.451250792E0,-7.650299072E-1,1.463809609E0,2.955780739E0
2.777183151E0,-2.182510376E0,-1.956376076E0,2.013502598E0,3.555974072E0
2.785396574E0,-2.141742468E0,-2.398007870E0,2.222555399E0,3.908612931E0
2.793611228E0,-2.028041363E0,-2.317850113E0,1.832381248E0,3.583713431E0
2.801824497E0,-2.278840780E0,-1.953454971E0,1.039883852E0,3.176548450E0
2.810038420E0,-2.679322481E0,-1.448904037E0,2.184555531E-1,3.053819690E0
2.818251843E0,-3.114070892E0,-8.737583160E-1,-5.303279161E-1,3.277520224E0
2.826465458E0,-3.368820667E0,-4.890193939E-1,-1.369346261E0,3.669223602E0
2.834709843E0,-3.014969826E0,-3.760347366E-1,-2.123518944E0,3.706855524E0
2.842921574E0,-2.400339127E0,-3.007116318E-1,-2.673126221E0,3.605226650E0
2.851136958E0,-2.097079754E0,-1.464061737E-1,-2.780943155E0,3.486089944E0
2.859347920E0,-1.340529442E0,-2.292547226E-1,-1.781604171E0,2.241359037E0
2.867559420E0,-7.268947363E-1,-1.820421219E-1,-1.086506367E0,1.319852786E0
2.875771112E0,-2.725458741E-1,-1.097812653E-1,1.695963144E-1,3.392581459E-1
2.883982689E0,3.627905250E-1,2.858161926E-3,2.103872538E0,2.134925008E0
2.892195689E0,9.808286428E-1,6.356515884E-1,4.078805923E0,4.242963060E0
2.900407266E0,1.116853714E0,1.110853195E0,4.053053856E0,4.348402304E0
2.908621574E0,1.215601206E0,9.229526520E-1,3.132403851E0,3.484462910E0
2.916834766E0,1.515135527E0,6.590414047E-1,2.401602507E0,2.915075614E0
2.925046997E0,1.234179020E0,3.254184723E-1,1.566883445E0,2.020945018E0
2.933262689E0,3.129872084E-1,1.219205856E-1,3.478960991E-1,4.835879626E-1
2.941475189E0,-7.905207276E-1,2.399063110E-2,-9.550951719E-1,1.240042483E0
2.949689189E0,-1.101827741E0,-4.745101929E-2,-2.330027103E0,2.577848380E0
2.957914727E0,-6.504894495E-1,-2.325811386E-1,-3.181361675E0,3.255501900E0
2.966127227E0,4.210442305E-2,-4.176731110E-1,-2.865242481E0,2.895831156E0
2.974339535E0,6.724928617E-1,-6.299781799E-1,-1.160074830E0,1.481517049E0
2.982549881E0,8.918182254E-1,-5.747709274E-1,7.627468109E-1,1.306707337E0
2.990762073E0,9.569762945E-1,-3.185100555E-1,1.441285491E0,1.759135057E0
2.999004958E0,7.558029890E-1,1.606607437E-1,7.286742926E-1,1.062081097E0
3.007218073E0,3.773632646E-1,3.498668671E-1,-6.143506765E-1,8.013966633E-1
3.015434958E0,4.310771227E-1,4.786205292E-2,-1.382244706E0,1.448695513E0
3.023648188E0,3.999564946E-1,-4.476299286E-1,-1.643184185E0,1.749397615E0
3.031860727E0,1.526090503E-1,-6.043672562E-1,-1.728637576E0,1.837590045E0
3.040072919E0,-1.938658953E-1,-3.355045319E-1,-1.851116061E0,1.891237148E0
3.048283535E0,-1.462345719E-1,2.828025818E-2,-1.845198750E0,1.851200354E0
3.056495611E0,1.971489191E-2,3.761606216E-1,-1.534550786E0,1.580104935E0
3.064707573E0,2.900448442E-1,7.053594589E-1,-8.236587048E-1,1.122529126E0
3.072919419E0,4.008306265E-1,1.036985397E0,-1.064113379E-1,1.116838072E0
3.081130842E0,1.589916945E-1,1.324916840E0,4.405418634E-1,1.405261586E0
3.089343034E0,-1.335648894E-1,1.377253532E0,2.906281948E-1,1.413906510E0
3.097557996E0,8.064031601E-3,9.923343658E-1,-5.229938030E-1,1.121746424E0
3.105769727E0,2.730475664E-1,3.424854279E-1,-1.369172931E0,1.437527654E0
3.113983919E0,7.354181409E-1,-4.068155289E-1,-1.982040524E0,2.152863989E0
3.122198034E0,1.007674098E0,-9.770174026E-1,-2.157588482E0,2.573938257E0
3.130411842E0,1.287561417E0,-1.369661331E0,-2.209545612E0,2.901013336E0
3.138625803E0,1.477940083E0,-1.510201454E0,-1.966883302E0,2.886805370E0
3.146838457E0,1.546134233E0,-1.427560806E0,-1.564713717E0,2.622363426E0
3.155050996E0,1.302244186E0,-9.974107742E-1,-1.353321791E0,2.126534280E0
3.163291457E0,1.324078798E0,-5.428342819E-1,-1.121610403E0,1.818203404E0
3.171505765E0,1.327316761E0,-6.221771240E-3,-1.075088263E0,1.708105169E0
3.179721649E0,1.442974687E0,4.973697662E-1,-9.301147461E-1,1.787362882E0
3.187934457E0,1.314079165E0,8.882989883E-1,-4.859224558E-1,1.658915242E0
3.196148072E0,1.083987713E0,1.322368622E0,7.858490944E-2,1.711684469E0
3.204375842E0,6.227528453E-1,1.423967361E0,1.051421881E0,1.876430687E0
3.212591380E0,-4.318590760E-1,1.323653221E0,2.085496187E0,2.507559463E0
3.220807803E0,-1.173183918E0,1.111253738E0,2.866899490E0,3.290950936E0
3.229022572E0,-1.623977661E0,7.849121094E-1,4.232333660E0,4.600656331E0
3.237234495E0,-2.154480219E0,6.853075027E-1,5.008824825E0,5.495430603E0
3.245445572E0,-2.507124424E0,9.984598160E-1,4.918609619E0,5.610286576E0
3.253657957E0,-2.748708010E0,1.715993881E0,4.024719715E0,5.167049401E0
3.261874495E0,-2.444247484E0,2.603312492E0,2.997264385E0,4.662099902E0
3.270088418E0,-2.116682053E0,3.627315521E0,2.301935434E0,4.789224107E0
3.278301418E0,-1.781591415E0,4.511730194E0,1.613234282E0,5.111976346E0
3.286513995E0,-1.337338686E0,5.189947128E0,8.969684839E-1,5.434020465E0
3.294727264E0,-8.333117962E-1,5.231391907E0,4.008910656E-1,5.312493151E0
3.302940226E0,-8.611987829E-1,4.665699005E0,1.642930508E-1,4.747357450E0
3.311153418E0,-7.349176407E-1,3.572769165E0,-6.482601166E-3,3.647578028E0
3.319367303E0,-1.936047077E-1,2.262240410E0,-1.214244366E-1,2.273754241E0
3.327611033E0,-3.263092041E-2,1.108833313E0,4.834437370E-2,1.110366278E0
3.335823726E0,-5.962359905E-2,-8.660888672E-2,5.480682850E-1,5.580635428E-1
3.344039303E0,-6.128248572E-1,-9.239768982E-1,1.075705051E0,1.544807099E0
3.352252072E0,-1.218544602E0,-1.373986721E0,1.731942177E0,2.524344303E0
3.360464956E0,-1.765657425E0,-1.540403366E0,2.648464203E0,3.536205778E0
3.368677495E0,-1.916554809E0,-1.468046188E0,3.742764950E0,4.453833339E0
3.376889303E0,-1.766446233E0,-1.044210434E0,5.007095337E0,5.411257842E0
3.385102726E0,-1.698000669E0,-3.419876099E-1,6.314843655E0,6.548084619E0
3.393313726E0,-1.916259050E0,5.777502060E-1,6.595740795E0,6.892723749E0
3.401524264E0,-2.087396860E0,8.244390488E-1,3.785228014E0,4.400554115E0
3.409735610E0,-2.173631191E0,7.027711868E-1,1.142729044E0,2.554288465E0
3.417947072E0,-2.007067680E0,4.822988510E-1,-4.701700211E-1,2.117071729E0
3.426163648E0,-1.664917231E0,1.764116287E-1,-9.834475517E-1,1.941710466E0
3.434375764E0,-1.391471863E0,-2.178430557E-1,1.547400951E-1,1.416895917E0
3.442587071E0,-1.815805674E0,-3.830041885E-1,1.838280439E0,2.612109765E0
3.450810956E0,-2.481645346E0,-6.136627197E-1,2.982966185E0,3.928515345E0
3.459021956E0,-2.751102448E0,-7.820100784E-1,3.332731962E0,4.391720252E0
3.467234764E0,-2.856414795E0,-9.209012985E-1,3.152098179E0,4.352342773E0
3.475446494E0,-2.787736893E0,-1.035902023E0,2.801004410E0,4.085363593E0
3.483658802E0,-2.504746914E0,-1.149775505E0,2.539417505E0,3.747583499E0
3.491901802E0,-2.532967567E0,-1.237583637E0,2.339932442E0,3.663716936E0
3.500113917E0,-2.367137432E0,-1.253367424E0,2.086740732E0,3.395402245E0
3.508332379E0,-2.051130533E0,-1.116050720E0,1.632366300E0,2.849092033E0
3.516547725E0,-1.536332130E0,-6.136922836E-1,1.288495541E0,2.096939530E0
3.524762994E0,-1.305847645E0,7.804870605E-3,1.100149512E0,1.707520992E0
3.532978033E0,-1.159740806E0,6.785583496E-1,1.070704341E0,1.718094280E0
3.541193071E0,-1.359195590E0,1.352444649E0,5.507302284E-1,1.994949364E0
3.549410417E0,-1.479916930E0,1.764479637E0,-2.709245682E-2,2.303101498E0
3.557624879E0,-1.314606667E0,1.578455925E0,3.706359863E-2,2.054528536E0
3.565839225E0,-9.623433948E-1,9.974498749E-1,4.183828831E-1,1.447775984E0
3.574052609E0,-6.768535376E-1,3.752346039E-1,7.522554398E-1,1.079268255E0
3.582265302E0,-1.187152863E-1,-2.133016586E-1,7.552419901E-1,7.937136640E-1
3.590482956E0,-1.882731915E-2,-5.146245956E-1,7.692012787E-1,9.256692441E-1
3.598697571E0,2.360457182E-1,-5.547218323E-1,7.870079279E-1,9.913704509E-1
3.606911994E0,2.986946106E-1,-3.892021179E-1,4.866329432E-1,6.910198118E-1
3.615127225E0,1.496456861E-1,-2.026243210E-1,6.883907318E-2,2.611307428E-1
3.623343148E0,1.818165779E-1,-1.701993942E-1,-4.043669701E-1,4.749081472E-1
3.631559340E0,4.029531479E-1,-5.051898956E-2,-8.494551182E-1,9.415399118E-1
3.639774302E0,4.464646578E-1,-1.101150513E-1,-9.733114243E-1,1.076471618E0
3.647988109E0,4.007350206E-1,-3.784656525E-2,-1.071176887E0,1.144308019E0
3.656212071E0,3.140851855E-1,4.466934204E-1,-1.151137948E0,1.274089122E0
3.664426417E0,1.804445386E-1,1.185404778E0,-1.292070031E0,1.762722237E0
3.672644494E0,2.228599191E-1,2.317403793E0,-1.342755437E0,2.687567496E0
3.680858917E0,3.627964854E-1,3.716231346E0,-1.094786406E0,3.891086478E0
3.689072301E0,5.711473227E-1,5.153182983E0,-4.235922098E-1,5.202012542E0
3.697298032E0,1.624670982E0,5.889440536E0,9.523969293E-1,6.183213206E0
3.705510801E0,3.122385263E0,5.446648598E0,2.647848129E0,6.813689925E0
3.713724301E0,4.251776218E0,3.479489326E0,3.989312172E0,6.789628752E0
3.721938224E0,2.776699066E0,1.289849281E0,4.156345367E0,5.162264589E0
3.730154109E0,5.413137674E-1,-4.701328278E-2,3.464722872E0,3.507069349E0
3.738370263E0,-4.704803228E-1,-1.407278061E0,2.474482059E0,2.885280703E0
3.746584263E0,-9.606666565E-1,-2.389893532E0,1.720073223E0,3.097276773E0
3.754802801E0,-1.216869235E0,-2.946861267E0,1.249597311E0,3.424362058E0
3.763016647E0,-1.473905802E0,-2.681749821E0,1.033055067E0,3.229765190E0
3.771229416E0,-1.563080072E0,-1.530929565E0,1.218286514E0,2.504233751E0
3.779441416E0,-1.418045163E0,3.595638275E-2,1.424626946E0,2.010399682E0
3.787653724E0,-1.672017455E0,1.724144936E0,1.620448112E0,2.897269441E0
3.795866493E0,-1.828041792E0,2.872363091E0,1.982682109E0,3.939953662E0
3.804079609E0,-1.676137328E0,3.649832726E0,1.869782329E0,4.430214580E0
3.812292609E0,-1.489550591E0,4.254186630E0,8.428714275E-1,4.585553084E0
3.820533916E0,-1.566983223E0,4.189074516E0,1.141524315E-2,4.472573312E0
3.828748493E0,-1.998978734E0,3.184537888E0,-6.069118977E-1,3.808613867E0
3.836966724E0,-3.321242809E0,1.622478485E0,-6.756093502E-1,3.757597401E0
3.845180647E0,-5.101237297E0,1.962661743E-1,-2.920730114E-1,5.113359856E0
3.853393416E0,-5.244396210E0,-1.174282074E0,3.750172853E-1,5.387324750E0
3.861604839E0,-6.234961987E0,-2.239233017E0,2.052981853E0,6.935679489E0
3.869816724E0,-6.934167385E0,-2.526297092E0,3.413687706E0,8.131304820E0
3.878029570E0,-6.470591068E0,-2.374726772E0,4.148787498E0,8.044893643E0
3.886241570E0,-4.967456818E0,-1.834796429E0,3.607190132E0,6.407333753E0
3.894455416E0,-3.091735840E0,-9.775314331E-1,2.225158691E0,3.932649159E0
3.902668724E0,-2.353855610E0,2.995796204E-1,5.042586327E-1,2.425832012E0
3.910882685E0,-2.941190243E0,1.462125778E0,-1.204344511E0,3.498407857E0
3.919099377E0,-3.862302542E0,2.234565735E0,-2.101116896E0,4.932074326E0
3.927312493E0,-4.741502285E0,2.407590866E0,-1.442084312E0,5.509804430E0
3.935526070E0,-4.558829784E0,2.033476830E0,2.006530762E-3,4.991789363E0
3.943753031E0,-3.610167980E0,1.297243118E0,1.318236709E0,4.056340786E0
3.951966223E0,-2.991479397E0,6.581478119E-1,1.678767681E0,3.492902583E0
3.960213146E0,-2.886315823E0,1.261882782E-1,1.357697964E0,3.192191453E0
3.968425608E0,-3.053598881E0,-2.870922089E-1,7.927192450E-1,3.167852879E0
3.976638569E0,-3.120006800E0,-6.512727737E-1,3.311661482E-1,3.204414092E0
3.984882877E0,-2.850339174E0,-8.948936462E-1,3.921961784E-2,2.987776134E0
3.993095492E0,-2.492491484E0,-9.407882690E-1,-4.399538040E-2,2.664494691E0
4.001311454E0,-2.051056623E0,-8.957786560E-1,3.184008598E-2,2.238362451E0
4.009523877E0,-1.732789159E0,-6.149873734E-1,-8.035659790E-3,1.838703976E0
4.017736569E0,-1.474708438E0,-2.870702744E-1,-1.735073328E-1,1.512375322E0
4.025949954E0,-1.407935023E0,1.173715591E-1,-4.245432615E-1,1.475226794E0
4.034164608E0,-1.342748761E0,2.537317276E-1,-5.767880678E-1,1.483252676E0
4.042378685E0,-1.497410178E0,5.509662628E-1,-8.810907602E-1,1.822668920E0
4.050592261E0,-1.566014647E0,6.378278732E-1,-1.152544141E0,2.046358783E0
4.058804415E0,-1.369567156E0,5.093240738E-1,-1.628072977E0,2.187634984E0
4.067016377E0,-1.001600266E0,3.754596710E-1,-2.341579437E0,2.574328518E0
4.075229646E0,-6.820458174E-1,1.371173859E-1,-2.950435162E0,3.031345463E0
4.083446108E0,-9.516572952E-2,-9.610652924E-2,-3.198222160E0,3.201080750E0
4.091658300E0,3.836185038E-1,-2.643661499E-1,-3.365921736E0,3.398011440E0
4.099869915E0,6.849842668E-1,-3.773374557E-1,-3.376466751E0,3.465849784E0
4.108082184E0,8.962734342E-1,-4.517374039E-1,-3.232681274E0,3.384907823E0
4.116295223E0,1.043673992E0,-4.323921204E-1,-3.072697163E0,3.273787745E0
4.124508069E0,9.984045029E-1,-3.430767059E-1,-2.969544172E0,3.151619547E0
4.132722492E0,7.030242085E-1,-8.553504944E-2,-2.688563347E0,2.780275553E0
4.140937607E0,5.095621943E-1,6.485366821E-2,-2.448502064E0,2.501803746E0
4.149153876E0,2.814010978E-1,7.937240601E-2,-2.083436489E0,2.103852219E0
4.157367607E0,9.923225641E-2,-7.305812836E-2,-1.741645336E0,1.745999143E0
4.165585530E0,2.500498295E-2,-3.876581192E-1,-1.481743574E0,1.531818555E0
4.173798799E0,-5.125403404E-3,-7.877988815E-1,-1.365890741E0,1.576804003E0
4.182012761E0,2.860963345E-3,-1.141919136E0,-1.440049410E0,1.837860115E0
4.190238799E0,1.205328107E-1,-1.431228638E0,-1.543618917E0,2.108483563E0
4.198452722E0,3.909992576E-1,-1.548191071E0,-1.729550600E0,2.353958642E0
4.206667492E0,7.233367562E-1,-1.354087830E0,-1.942123652E0,2.475603803E0
4.214882915E0,1.144254804E0,-7.818002701E-1,-2.230909586E0,2.626306970E0
4.223098145E0,1.284993410E0,1.496334076E-1,-2.383863926E0,2.712269426E0
4.231314568E0,1.299090266E0,1.251125336E0,-2.152052402E0,2.807895950E0
4.239529992E0,1.329676628E0,2.359384537E0,-1.626365900E0,3.159082362E0
4.247748491E0,1.413967490E0,3.098834038E0,-7.541234493E-1,3.488664305E0
4.255964491E0,1.445307255E0,3.271340370E0,3.624006510E-1,3.594706540E0
4.264180761E0,1.095130682E0,2.959104538E0,1.568879843E0,3.523775651E0
4.272396838E0,3.334372938E-1,2.299150467E0,2.452091217E0,3.377872797E0
4.280609838E0,-2.347384095E-1,1.255938530E0,3.051723719E0,3.308398611E0
4.288823799E0,-5.095394850E-1,2.943677902E-1,3.062634468E0,3.118655603E0
4.297037184E0,-4.071580768E-1,-4.083375931E-1,2.798006535E0,2.856809034E0
4.305250607E0,-2.657862306E-1,-6.365823746E-1,2.175629616E0,2.282376758E0
4.313494107E0,-1.254124045E-1,1.099100113E-1,1.337991714E0,1.348343543E0
4.321706722E0,2.425228357E-1,1.358952522E0,5.011278391E-1,1.468570187E0
4.329922876E0,7.345598936E-1,2.501827240E0,-3.027801514E-1,2.624955923E0
4.338136299E0,1.054478407E0,3.161219597E0,-8.851087093E-1,3.447992384E0
4.346350260E0,1.202951908E0,3.403186798E0,-1.047481298E0,3.758455899E0
4.354565260E0,1.282796741E0,2.867854118E0,-6.876509190E-1,3.216056360E0
4.362780337E0,1.111536503E0,1.737398148E0,1.300587654E-1,2.066635189E0
4.370995183E0,8.181149364E-1,5.913925171E-1,8.760892153E-1,1.336633634E0
4.379208953E0,4.691563249E-1,-2.947177887E-1,1.240616083E0,1.358710601E0
4.387422183E0,1.550117731E-1,-9.544887543E-1,1.202753663E0,1.543273730E0
4.395635952E0,-1.869485378E-1,-1.475942612E0,9.531749487E-1,1.766889592E0
4.403848452E0,-3.799731731E-1,-1.831173897E0,6.738584042E-1,1.987878920E0
4.412065799E0,-4.156844616E-1,-2.070765972E0,4.762284756E-1,2.165100193E0
4.420278299E0,-4.026204348E-1,-2.194387913E0,2.989895344E-1,2.250963409E0
4.428492068E0,-3.198834658E-1,-2.094836235E0,2.218027115E-1,2.130694893E0
4.436717568E0,2.337275147E-1,-1.865546703E0,1.119067669E-1,1.883458568E0
4.444932337E0,8.888421059E-1,-1.396138191E0,-1.230013371E-1,1.659629919E0
4.453147606E0,1.412734270E0,-7.549152374E-1,-4.991831779E-1,1.677766068E0
4.461361991E0,1.942077160E0,-1.983871460E-1,-9.138991833E-1,2.155512206E0
4.469575721E0,2.182986736E0,3.406667709E-1,-1.209293604E0,2.518705215E0
4.477818991E0,2.096345901E0,7.767305374E-1,-1.215374947E0,2.544624280E0
4.486031760E0,2.087126732E0,1.254183769E0,-9.599965811E-1,2.617378146E0
4.494248337E0,2.105135202E0,1.669067383E0,-4.693008661E-1,2.727200662E0
4.502462606E0,2.275819540E0,1.848105431E0,-1.438093185E-1,2.935222203E0
4.510676452E0,2.773392200E0,1.727330208E0,-3.185999393E-2,3.267474408E0
4.518889914E0,3.277556419E0,1.338354111E0,-1.813637018E-1,3.544920394E0
4.527104221E0,3.643361092E0,7.770404816E-1,-4.053869247E-1,3.747293759E0
4.535317952E0,3.455991030E0,3.091917038E-1,-5.198334455E-1,3.508518251E0
4.543531183E0,2.391830921E0,5.911540985E-2,-7.001625299E-1,2.492905404E0
4.551746375E0,1.605663300E0,-2.472906113E-1,-1.149530172E0,1.990157505E0
4.559960529E0,1.134147525E0,-4.955825806E-1,-1.330722451E0,1.817337323E0
4.568173721E0,9.951772094E-1,-7.576217651E-1,-1.231643200E0,1.755367024E0
4.576391798E0,1.057772756E0,-9.444799423E-1,-1.196174383E0,1.855197757E0
4.584605413E0,1.108390570E0,-1.043900490E0,-1.130339146E0,1.896292296E0
4.592820298E0,1.131604910E0,-9.840440750E-1,-1.303054810E0,1.986661584E0
4.601034644E0,1.070054412E0,-6.931037903E-1,-1.611595392E0,2.054908518E0
4.609249990E0,1.066193581E0,-4.897584915E-1,-1.709148407E0,2.073118523E0
4.617465913E0,1.075057983E0,-3.477716446E-1,-1.597733855E0,1.956897610E0
4.625680798E0,1.310404301E0,-2.720232010E-1,-1.358231902E0,1.906816707E0
4.633894721E0,1.562886238E0,-1.500768661E-1,-1.022161603E0,1.873486269E0
4.642109644E0,1.624420285E0,-4.179191589E-2,-7.061282396E-1,1.771751935E0
4.650325490E0,1.776997089E0,8.859443665E-2,-4.584913850E-1,1.837330123E0
4.658544490E0,1.723318815E0,1.954641342E-1,-3.330845833E-1,1.766063223E0
4.666758451E0,1.742776871E0,2.667856216E-1,-1.646369994E-1,1.770748749E0
4.674972490E0,1.804034233E0,3.312187195E-1,-5.976444483E-2,1.835161340E0
4.683199028E0,1.918073893E0,3.863286972E-1,5.568796396E-2,1.957385621E0
4.691413067E0,2.065838575E0,4.249544144E-1,8.846330643E-2,2.110947899E0
4.699626759E0,2.240314007E0,4.710273743E-1,1.550017446E-1,2.294536811E0
4.707840528E0,2.563836813E0,4.311819077E-1,2.187649310E-1,2.609029539E0
4.716053913E0,2.942969561E0,4.779129028E-1,3.857102394E-1,3.006367071E0
4.724268374E0,3.016727448E0,5.562028885E-1,5.884013772E-1,3.123495210E0
4.732482759E0,3.027094364E0,5.129680634E-1,7.397621870E-1,3.158114092E0
4.740699874E0,2.920521021E0,4.320888519E-1,7.009826303E-1,3.034389635E0
4.748914874E0,2.905495644E0,2.991275787E-1,6.303881407E-1,2.988104993E0
4.757129990E0,2.740263462E0,1.260824203E-1,6.299456954E-1,2.814564300E0
4.765344759E0,2.403416872E0,-4.889488220E-2,5.586655736E-1,2.467977024E0
4.773559374E0,2.091558218E0,-2.618789673E-1,4.966232181E-1,2.165601762E0
4.781773374E0,2.036562204E0,-5.227394104E-1,3.963754177E-1,2.139615754E0
4.789987874E0,2.095049858E0,-6.879882812E-1,1.297048330E-1,2.208933029E0
4.798202643E0,2.381423235E0,-7.936258316E-1,-1.728185415E-1,2.516124964E0
4.806451028E0,2.597120285E0,-7.894830704E-1,-3.384948373E-1,2.735488265E0
4.814664528E0,2.443414450E0,-7.115030289E-1,-3.326011300E-1,2.566541300E0
4.822881759E0,2.358479261E0,-7.393865585E-1,-6.862223148E-2,2.472615199E0
4.831095143E0,2.295555115E0,-7.820825577E-1,3.618652225E-1,2.451973257E0
4.839307874E0,2.284659624E0,-9.230222702E-1,6.363800764E-1,2.544920296E0
4.847520835E0,2.381906986E0,-1.164390564E0,6.317957640E-1,2.725518696E0
4.855734566E0,2.450286865E0,-1.424577713E0,3.558692336E-1,2.856566172E0
4.863949220E0,2.464929342E0,-1.564862251E0,-1.351397038E-1,2.922829668E0
4.872163220E0,2.447397709E0,-1.391682625E0,-5.752929449E-1,2.873586269E0
4.880375258E0,2.388229847E0,-1.010688782E0,-8.869353533E-1,2.740764115E0
4.888587066E0,2.445671797E0,-3.815765381E-1,-1.015164256E0,2.675344774E0
4.896799874E0,2.829816580E0,3.900537491E-1,-1.060096979E0,3.046934428E0
4.905015566E0,2.978881836E0,1.308991432E0,-8.547510505E-1,3.364193056E0
4.913227566E0,2.875218391E0,2.174633026E0,-3.228705525E-1,3.619413625E0
4.921438989E0,2.825094938E0,2.738754272E0,3.577917218E-1,3.950943089E0
4.929664220E0,2.476204872E0,2.747871399E0,1.099763989E0,3.858998397E0
4.937876835E0,1.739579558E0,2.036648750E0,1.760805607E0,3.205387895E0
4.946090450E0,1.244425774E0,8.967180252E-1,2.243095160E0,2.717383782E0
4.954304527E0,9.585911036E-1,-1.190414429E-1,2.461720467E0,2.644453710E0
4.962518950E0,9.884729385E-1,-1.020277023E0,2.404728889E0,2.792984960E0
4.970764873E0,1.144907117E0,-1.292011261E0,1.944839358E0,2.600481789E0
4.978978412E0,1.305000663E0,-1.140034676E0,1.160830140E0,2.085721076E0
4.987195066E0,1.544272900E0,-9.181365967E-1,2.426747680E-1,1.812910544E0
4.995406412E0,1.560798287E0,-6.001815796E-1,-5.811883807E-1,1.770335888E0
5.003618258E0,1.413033247E0,-2.801437378E-1,-1.210016966E0,1.881298628E0
5.011830181E0,1.066765070E0,1.037025452E-1,-1.660926580E0,1.976719261E0
5.020042065E0,4.714171886E-1,5.174312592E-1,-1.838085651E0,1.966857426E0
5.028254642E0,-5.423291326E-1,1.090182304E0,-1.213448286E0,1.719033184E0
5.036466950E0,-1.076889873E0,1.403582573E0,-1.378593683E0,2.242823306E0
5.044678335E0,-1.566111922E0,1.790046692E0,-1.705047846E0,2.926458930E0
5.052891065E0,-1.546329737E0,1.943280220E0,-1.467659593E0,2.884700738E0
5.061104988E0,-1.318634391E0,1.840079308E0,-1.031204700E0,2.487583496E0
5.069322373E0,-8.440977931E-1,1.313737869E0,-7.317626476E-2,1.563253991E0
5.077533527E0,-3.400938511E-1,7.602853775E-1,1.626344621E-1,8.486151372E-1
5.085744565E0,-1.586186886E-2,2.588882446E-1,9.370064735E-2,2.757798640E-1
5.093955642E0,2.911787033E-1,-8.511161804E-2,-6.442185640E-1,7.120720350E-1
5.102165257E0,4.007104039E-2,-3.439102173E-1,-1.618375182E0,1.654997932E0
5.110376911E0,-6.446305513E-1,-5.058746338E-1,-2.079614401E0,2.235230133E0
5.118587796E0,-1.436163187E0,-5.712270737E-1,-2.169000149E0,2.663348778E0
5.126798604E0,-2.605103970E0,-5.136680603E-1,-1.782963157E0,3.198340067E0
5.135036796E0,-3.398030758E0,-5.152788162E-1,-1.203097343E0,3.641369043E0
5.143247373E0,-3.938321590E0,-6.408586502E-1,-4.883797765E-1,4.019899447E0
5.151462296E0,-4.058437824E0,-8.881664276E-1,1.175643206E-1,4.156149486E0
5.159673834E0,-2.575788498E0,-1.240260124E0,6.653466225E-1,2.935237246E0
5.167885411E0,-1.274423003E0,-1.392512321E0,3.260340393E-1,1.915605061E0
5.176111142E0,-1.020839453E0,-1.294685364E0,-2.378957272E-1,1.665808439E0
5.184324449E0,-9.560947418E-1,-1.062209129E0,-8.130523562E-1,1.644220035E0
5.192538565E0,-6.958451271E-1,-7.386951447E-1,-1.315424442E0,1.661388703E0
5.200751834E0,-3.250206113E-1,-2.669372559E-1,-1.590084195E0,1.644767961E0
5.208963757E0,2.681843638E-1,3.672494888E-1,-1.445634365E0,1.515471464E0
5.217175142E0,9.705601931E-1,8.812723160E-1,-9.531236887E-1,1.620824713E0
5.225388334E0,1.505494356E0,1.531055450E0,-3.453143835E-1,2.174830125E0
5.233603526E0,2.451969385E0,1.992952347E0,5.857336521E-1,3.213580065E0
5.241814411E0,3.253891706E0,2.166678429E0,1.466194868E0,4.175168744E0
5.250025565E0,3.993930817E0,2.050712585E0,1.570906162E0,4.756537779E0
5.258237218E0,4.422308445E0,1.775294304E0,9.925725460E-1,4.867615649E0
5.266450218E0,4.361593246E0,1.223484993E0,-1.469522715E-1,4.532328998E0
5.274663718E0,3.947944164E0,7.470283508E-1,-1.142156959E0,4.177180508E0
5.282873488E0,2.995674133E0,3.837308884E-1,-1.776870012E0,3.504080471E0
5.291083641E0,1.568426371E0,-1.575851440E-2,-2.066974163E0,2.594723839E0
5.299321141E0,8.752121329E-1,-4.742879868E-1,-1.934832335E0,2.175895571E0
5.307532718E0,4.473519325E-1,-7.141237259E-1,-1.453864813E0,1.680422370E0
5.315747295E0,3.507018089E-2,-6.370468140E-1,-7.112059593E-1,9.554436024E-1
5.323957372E0,1.063138247E-1,-1.114559174E-1,9.526300430E-2,1.811079535E-1
5.332168334E0,6.272435188E-1,5.111579895E-1,4.667956829E-1,9.341387112E-1
5.340377987E0,1.131261945E0,8.718824387E-1,3.427812457E-1,1.468819784E0
5.348589603E0,1.307973266E0,1.079153061E0,-6.394267082E-2,1.696895417E0
5.356801064E0,1.350636244E0,1.257874489E0,-5.866723657E-1,1.936659742E0
5.365012141E0,1.513209105E0,1.317025185E0,-1.123036742E0,2.299036462E0
5.373224295E0,1.774553657E0,1.182380676E0,-1.632990122E0,2.685837203E0
5.381434949E0,2.146076679E0,8.801126480E-1,-1.904208183E0,3.001041851E0
5.389645256E0,2.370779276E0,5.059480667E-1,-1.907223701E0,3.084490245E0
5.397859526E0,2.378287554E0,2.011003494E-1,-1.585879803E0,2.865607752E0
5.406070026E0,2.125968456E0,1.812276840E-1,-1.051451445E0,2.378683563E0
5.414281026E0,1.957182169E0,3.910531998E-1,-5.096516013E-1,2.059910047E0
5.422502795E0,1.682411432E0,6.006631851E-1,-1.976233721E-1,1.797320085E0
5.430712910E0,1.548736691E0,6.540784836E-1,-1.471667886E-1,1.687620237E0
5.438924102E0,1.481863260E0,5.991239548E-1,-5.048807859E-1,1.676237705E0
5.447135218E0,1.488288760E0,3.495540619E-1,-9.688813090E-1,1.809950957E0
5.455346948E0,1.552215934E0,-3.244972229E-2,-1.341522694E0,2.051855362E0
5.463587910E0,1.738914847E0,-4.388084412E-1,-1.654157758E0,2.439798267E0
5.471800910E0,1.995763302E0,-7.619142532E-1,-1.757004499E0,2.765980712E0
5.480015564E0,2.250973940E0,-9.010601044E-1,-1.771999240E0,3.003127419E0
5.488226371E0,2.355794907E0,-7.723665237E-1,-1.761846066E0,3.041450517E0
5.496436410E0,2.378539562E0,-6.319074631E-1,-1.719055533E0,3.001984247E0
5.504645794E0,2.018102646E0,-3.860950470E-1,-1.814787865E0,2.741397941E0
5.512856025E0,1.967407703E0,-6.125831604E-2,-1.949851632E0,2.770625749E0
5.521066410E0,1.754665375E0,3.904714584E-1,-1.868471026E0,2.592778917E0
5.529277487E0,1.708314896E0,7.920427322E-1,-1.645737171E0,2.500824326E0
5.537487640E0,1.291027784E0,1.188808441E0,-1.360103488E0,2.220337755E0
5.545697140E0,2.049556077E-1,1.324664116E0,-9.786177874E-1,1.659648937E0
5.553907679E0,-3.767857552E-1,1.206725121E0,-5.932019949E-1,1.396438910E0
5.562120679E0,-6.064971685E-1,8.475694656E-1,-1.079173088E-1,1.047787650E0
5.570332910E0,-8.050035238E-1,3.650894165E-1,5.592027307E-1,1.045958245E0
5.578544025E0,-1.100337625E0,-9.908485413E-2,1.314790845E0,1.717333882E0
5.586755794E0,-1.204111695E0,-4.965410233E-1,2.435170174E0,2.761610352E0
5.594967448E0,-1.238599896E0,-4.773139954E-1,3.417247057E0,3.665997245E0
5.603178179E0,-1.313203335E0,-9.562492371E-3,4.102424145E0,4.307490952E0
5.611389679E0,-2.312760353E0,8.308229446E-1,3.374248505E0,4.174287986E0
5.619600909E0,-2.844902039E0,1.627600670E0,3.043037891E0,4.472430118E0
5.627841448E0,-2.824101925E0,2.767127037E0,2.309256554E0,4.578778172E0
5.636052448E0,-2.732264280E0,3.993361473E0,1.396276116E0,5.036049140E0
5.644268140E0,-2.297829390E0,4.926474571E0,3.189034462E-1,5.445353158E0
5.652482063E0,-1.867124677E0,4.987354279E0,-3.395714760E-1,5.336212706E0
5.660694871E0,-1.260120630E0,3.988102913E0,-6.108937263E-1,4.226826232E0
5.668920832E0,-7.706147432E-1,2.685079575E0,-4.656593800E-1,2.832020138E0
5.677134217E0,-5.250554681E-1,1.263907433E0,-2.771520615E-2,1.368909557E0
5.685348294E0,-4.266179204E-1,1.554450989E-1,2.075531483E-1,4.992437662E-1
5.693563255E0,-3.408352137E-1,-6.954183578E-1,2.227239609E-1,8.058419808E-1
5.701777140E0,-5.294166207E-1,-1.379376411E0,3.707301617E-1,1.523286610E0
5.709990409E0,-1.202024698E0,-1.753356457E0,6.182985306E-1,2.213914026E0
5.718202563E0,-1.980338573E0,-1.926535606E0,1.062695384E0,2.960169216E0
5.726417947E0,-2.260763168E0,-1.971584320E0,1.530549526E0,3.367606967E0
5.734631178E0,-1.831441641E0,-1.964833736E0,2.140312910E0,3.434485325E0
5.742841293E0,-1.063984990E0,-1.743105888E0,2.715577841E0,3.397770623E0
5.751052870E0,-7.421524525E-1,-1.392131805E0,3.025561333E0,3.412160987E0
5.759262947E0,-4.345965981E-1,-9.380054474E-1,2.888829470E0,3.068234692E0
5.767474909E0,3.958630562E-1,-6.233482361E-1,2.244002819E0,2.362375761E0
5.775686370E0,1.114335775E0,-3.162412643E-1,1.254160643E0,1.707240954E0
5.783898293E0,1.539846420E0,-4.758071899E-2,3.771195412E-1,1.586067486E0
5.792138409E0,1.882362843E0,3.458881378E-2,-1.299643517E-1,1.887161093E0
5.800350447E0,1.978682280E0,-2.672195435E-3,-1.156845093E-1,1.982062968E0
5.808566024E0,1.791127920E0,-1.711330414E-1,1.762006283E-1,1.807891702E0
5.816778024E0,1.034703851E0,-4.169864655E-1,6.488895416E-1,1.290560889E0
5.824991639E0,4.055230618E-1,-7.579269409E-1,1.008389831E0,1.325048019E0
5.833205678E0,-1.021445990E-1,-1.092671394E0,1.188772440E0,1.617882631E0
5.841417832E0,-6.642440557E-1,-1.327606201E0,1.327607632E0,1.991557284E0
5.849631793E0,-8.401864171E-1,-1.586616039E0,1.319102287E0,2.227845263E0
5.857844639E0,-1.002692461E0,-1.669057369E0,1.283923268E0,2.332295786E0
5.866056331E0,-9.799937606E-1,-1.543740273E0,1.130264759E0,2.149655839E0
5.874270216E0,-7.509677410E-1,-1.074572563E0,1.009199262E0,1.654430987E0
5.882482447E0,-1.558576226E-1,-5.084600449E-1,9.385761023E-1,1.078771670E0
5.890700139E0,2.460781932E-1,-8.034706116E-2,8.840304613E-1,9.211514446E-1
5.898912485E0,4.580305815E-1,5.475578308E-1,6.516795158E-1,9.665908043E-1
5.907125254E0,4.677928686E-1,1.028015137E0,2.093453407E-1,1.148682184E0
5.915351870E0,4.714725614E-1,1.363820076E0,-2.969119549E-1,1.473244136E0
5.923563754E0,7.291244268E-1,1.706443787E0,-1.148858547E0,2.182532655E0
5.931776716E0,1.133357763E0,1.588799477E0,-1.385010004E0,2.393122711E0
5.939988985E0,1.684177876E0,1.126157761E0,-1.259102821E0,2.385377608E0
5.948202331E0,2.292207003E0,4.794034958E-1,-9.542174339E-1,2.528749012E0
5.956416447E0,2.602131128E0,8.733272552E-2,-4.939923286E-1,2.650045629E0
5.964629639E0,3.940765619E0,-3.608379364E-1,3.346109390E-2,3.957392744E0
5.972846408E0,5.020744324E0,-5.442609787E-1,6.104255915E-1,5.086915861E0
5.981060062E0,5.371523380E0,-9.406280518E-2,1.210842371E0,5.507109086E0
5.989276562E0,5.117160320E0,7.244434357E-1,1.360287666E0,5.344205326E0
5.997491716E0,4.356261253E0,1.595058441E0,9.986556768E-1,4.745370028E0
6.005706216E0,3.133432388E0,2.092130661E0,4.055706263E-1,3.789445443E0
6.013921100E0,2.644011259E0,1.858312607E0,-2.592914104E-1,3.242121731E0
6.022134523E0,2.749750137E0,1.186424255E0,-7.413203716E-1,3.085171669E0
6.030348946E0,2.549454927E0,3.523454666E-1,-9.073679447E-1,2.728952975E0
6.038562254E0,2.070383787E0,-2.064714432E-1,-7.173217535E-1,2.200833929E0
6.046775408E0,1.582508326E0,-5.278072357E-1,-2.231423855E-1,1.683064349E0
6.054991562E0,1.240625262E0,-4.665355682E-1,3.303050995E-1,1.365982407E0
6.063203946E0,1.080062628E0,1.336565018E-1,7.402192354E-1,1.316177745E0
6.071417638E0,9.830214381E-1,1.260942459E0,9.627823234E-1,1.866348530E0
6.079631792E0,8.714611530E-1,2.460711479E0,9.689233303E-1,2.784485221E0
6.087846369E0,4.628060460E-1,3.429327011E0,8.688327670E-1,3.567820562E0
6.096060446E0,1.551318169E-2,4.413495064E0,6.572995186E-1,4.462199233E0
6.104273523E0,-6.464790702E-1,4.598850250E0,6.588543653E-1,4.690570103E0
6.112486792E0,-1.466132879E0,3.937054634E0,8.505430818E-1,4.286416726E0
6.120727715E0,-2.054620743E0,2.554916382E0,1.043265343E0,3.440561973E0
6.128941369E0,-2.383342981E0,8.927431107E-1,1.005880356E0,2.736623708E0
6.137158369E0,-2.274565220E0,-7.360792160E-1,9.024234414E-1,2.555352739E0
6.145369830E0,-1.969356418E0,-1.948540688E0,9.387912750E-1,2.925150350E0
6.153582523E0,-1.917970419E0,-2.742874146E0,1.142365098E0,3.536519069E0
6.161808523E0,-2.238451719E0,-2.937278271E0,1.289026856E0,3.911503544E0
6.170022407E0,-2.489424229E0,-2.786458969E0,1.271578908E0,3.946960792E0
6.178235176E0,-2.825158119E0,-2.103663445E0,1.344581008E0,3.770254152E0
6.186449138E0,-3.192057133E0,-9.725456238E-1,1.443643451E0,3.635819047E0
6.194662599E0,-3.222521067E0,2.191228867E-1,1.473148942E0,3.550045728E0
6.202875253E0,-3.038026333E0,1.013704300E0,1.437349916E0,3.510438033E0
6.211088138E0,-2.802058935E0,1.719686508E0,1.041498780E0,3.448706377E0
6.219303561E0,-2.767879486E0,2.091062546E0,2.609329224E-1,3.478762051E0
6.227516561E0,-2.907793999E0,2.050268173E0,-3.062906265E-1,3.571089395E0
6.235729407E0,-3.127855539E0,1.567443848E0,-9.318237305E-1,3.620587791E0
6.243942061E0,-3.484844685E0,9.796409607E-1,-1.145156264E0,3.796738305E0
6.252154907E0,-3.475952387E0,6.669139862E-2,-8.603565693E-1,3.581467041E0
6.260367330E0,-2.591939449E0,-1.046676636E0,-1.686691046E-1,2.800380573E0
6.268580330E0,-1.732098937E0,-1.756264210E0,7.356266975E-1,2.574058535E0
6.276792984E0,-1.002788305E0,-1.744571686E0,1.705629587E0,2.637856524E0
6.285037830E0,-7.512195110E-1,-1.457054138E0,1.269862175E0,2.073616999E0
6.293252138E0,-1.136572361E0,-1.226571083E0,5.889133811E-1,1.772876850E0
6.301468791E0,-1.511940002E0,-7.875261307E-1,-1.742565632E-1,1.713629285E0
6.309681214E0,-1.795817971E0,-3.461666107E-1,-1.096113086E0,2.132195442E0
6.317893099E0,-2.145219803E0,-1.353826523E-1,-1.760998011E0,2.778742604E0
6.326105830E0,-2.241475821E0,-1.103382111E-1,-1.840515137E0,2.902392865E0
6.334317099E0,-1.897235036E0,-2.901811600E-1,-1.560755253E0,2.473795231E0
6.342529445E0,-1.320476055E0,-6.221580505E-1,-1.056636691E0,1.802004092E0
6.350742060E0,-8.050804138E-1,-7.514467239E-1,-6.192201376E-1,1.263431926E0
6.358954214E0,-2.929612398E-1,-7.757968903E-1,-4.309124947E-1,9.345441033E-1
6.367168368E0,4.151088893E-1,-6.690263748E-1,-1.240646839E-2,7.874424428E-1
6.375381830E0,1.001775503E0,-3.209428787E-1,7.284756303E-1,1.279544932E0
6.383599253E0,1.631642222E0,8.773307800E-1,2.159723520E0,2.845412329E0
6.391813214E0,2.209291220E0,1.275088310E0,2.073688507E0,3.287400480E0
6.400027406E0,2.401550770E0,1.152320862E0,1.414245367E0,3.015854676E0
6.408256406E0,2.504829407E0,6.089210510E-1,1.012050629E0,2.769332352E0
6.416471252E0,1.983608842E0,1.231088638E-1,6.043021679E-1,2.077267662E0
6.424685906E0,1.721180916E0,-1.349811554E-1,-3.455126286E-1,1.760699473E0
6.432900675E0,1.423182011E0,-6.925773621E-2,-1.568255901E0,2.118884197E0
6.441113214E0,1.219251871E0,1.041412354E-2,-2.443054676E0,2.730421163E0
6.449353829E0,1.342829704E0,8.071994781E-2,-2.246556044E0,2.618534205E0
6.457566714E0,1.373984098E0,2.816867828E-2,-1.067154527E0,1.739955333E0
6.465782714E0,1.156048298E0,-1.343441010E-2,2.306418419E-1,1.178907889E0
6.473994406E0,3.425526023E-1,2.807426453E-2,8.924369216E-1,9.563336806E-1
6.482206714E0,5.634093285E-2,-2.948617935E-1,-2.769064903E-2,3.014706454E-1
6.490420944E0,1.794543266E-1,-2.575330734E-1,-7.988427877E-1,8.582988633E-1
6.498635291E0,2.569735050E-1,-1.301660538E-1,-1.094254255E0,1.131534780E0
6.506851137E0,1.315993071E-1,-1.488122940E-1,-1.788306236E0,1.799306164E0
6.515066214E0,3.076868057E-1,-3.083209991E-1,-2.486992836E0,2.524849773E0
6.523278829E0,4.981514215E-1,-4.798603058E-2,-2.988371372E0,3.029986956E0
6.531491252E0,7.438561916E-1,8.467168808E-1,-2.889826775E0,3.101830153E0
6.539703483E0,9.671791196E-1,1.702601433E0,-2.179335117E0,2.929810342E0
6.547918675E0,1.302008748E0,2.014363289E0,-1.341363668E0,2.748116215E0
6.556130290E0,1.987656832E0,1.463621140E0,-9.638439417E-1,2.649898425E0
6.564342175E0,2.614406824E0,7.037324905E-1,-6.885001659E-1,2.793634718E0
6.572554213E0,3.134582996E0,2.112607956E-1,-2.966057062E-1,3.155664214E0
6.580765406E0,3.099955559E0,3.767795563E-1,-3.217921257E-1,3.139305253E0
6.588978021E0,2.842354774E0,7.739591599E-1,-7.042471170E-1,3.028854148E0
6.597190906E0,2.664688110E0,8.209333420E-1,-1.301759481E0,3.077185731E0
6.605404829E0,2.729698181E0,3.454408646E-1,-1.888287425E0,3.337096185E0
6.613644982E0,2.781158686E0,-4.394216537E-1,-2.223693371E0,3.587861094E0
6.621856559E0,2.715253353E0,-1.042647362E0,-2.131056786E0,3.605706216E0
6.630072136E0,2.649558067E0,-1.222338676E0,-1.763862610E0,3.409615975E0
6.638285213E0,2.244525909E0,-1.081228256E0,-1.388260126E0,2.852054922E0
6.646497636E0,1.880979180E0,-7.559461594E-1,-1.106840253E0,2.309682363E0
6.654723521E0,1.528490186E0,-4.810838699E-1,-1.154679775E0,1.975097294E0
6.662936098E0,1.281085849E0,-2.067823410E-1,-1.413845062E0,1.919087739E0
6.671150213E0,1.088599205E0,3.527259827E-2,-1.457680821E0,1.819649901E0
6.679363675E0,9.339862466E-1,1.019306183E-1,-1.456412315E0,1.733163868E0
6.687576944E0,8.057131767E-1,1.986131668E-1,-1.258340001E0,1.507328920E0
6.695792021E0,4.005320966E-1,2.658948898E-1,-6.914777756E-1,8.421802461E-1
6.704006636E0,-1.989541352E-1,4.603567123E-1,2.771925926E-2,5.022742357E-1
6.712224174E0,-1.062447071E0,7.445192337E-1,8.543717265E-1,1.553400694E0
6.720435636E0,-2.047409296E0,1.279603004E0,1.623223782E0,2.909316779E0
6.728648828E0,-2.349464417E0,1.776930809E0,3.029718399E0,4.225714108E0
6.736860828E0,-2.756211281E0,2.707879066E0,4.291121483E0,5.774342668E0
6.745073674E0,-3.216689587E0,3.882486343E0,5.178236961E0,7.227373668E0
6.753285174E0,-3.226038456E0,4.948078156E0,5.136358261E0,7.827705777E0
6.761496174E0,-3.605085373E0,5.811656952E0,4.412720203E0,8.139047651E0
6.769707443E0,-3.141452074E0,6.142929077E0,3.280443668E0,7.639738833E0
6.777951943E0,-2.798831940E0,6.085719109E0,1.822427034E0,6.941950561E0
6.786164059E0,-2.323580027E0,5.258709908E0,4.690905809E-1,5.768283974E0
6.794380482E0,-1.538616538E0,3.423890114E0,-3.550028801E-1,3.770463023E0
6.802594636E0,2.965558767E-1,1.047572136E0,-8.929243088E-1,1.408071940E0
6.810808943E0,8.946729898E-1,-6.880187988E-1,-1.051523209E0,1.542566266E0
6.819019712E0,1.035666466E-1,-1.634796619E0,-7.277402878E-1,1.792454173E0
6.827230982E0,-8.274975419E-1,-2.261878967E0,4.915642738E-2,2.408996679E0
6.835443520E0,-1.520997643E0,-2.547947884E0,9.861294031E-1,3.126967133E0
6.843655405E0,-2.548856258E0,-2.432810783E0,2.210693359E0,4.159615567E0
6.851868597E0,-3.224136353E0,-2.128038883E0,3.451262236E0,5.180233173E0
6.860082020E0,-3.340087414E0,-1.600116253E0,4.914625168E0,6.153868417E0
6.868296251E0,-2.823502064E0,-1.206534386E0,5.150475025E0,5.996272351E0
6.876513712E0,-2.461077452E0,-9.369802475E-1,3.642250776E0,4.494532782E0
6.884728097E0,-1.981932640E0,-1.045690536E0,1.917056441E0,2.949005101E0
6.892941597E0,-1.389138699E0,-1.265374184E0,7.997498512E-1,2.042174815E0
6.901169481E0,-1.013869286E0,-1.460962296E0,5.102005005E-1,1.850039542E0
6.909384827E0,-7.369707823E-1,-1.649225235E0,7.370226383E-1,1.950966986E0
6.917599866E0,-9.940349460E-1,-1.460956573E0,9.790754318E-1,2.020170360E0
6.925813827E0,-8.179013729E-1,-1.234091759E0,1.015879631E0,1.795537955E0
6.934029174E0,-5.049329400E-1,-1.039625168E0,1.198951483E0,1.665311509E0
6.942272904E0,-1.335909963E-1,-8.672742844E-1,1.296180844E0,1.565278256E0
6.950487404E0,7.688260078E-2,-6.684389114E-1,1.330391765E0,1.490860074E0
6.958704289E0,2.100208998E-1,-7.213516235E-1,1.284901261E0,1.488431454E0
6.966918173E0,9.807705879E-2,-8.668346405E-1,1.236359119E0,1.513144169E0
6.975132404E0,-2.583252192E-1,-1.014760971E0,1.210728884E0,1.600729889E0
6.983346558E0,-4.205017090E-1,-1.066985130E0,1.232456923E0,1.683516861E0
6.991561404E0,-4.996947646E-1,-1.066981316E0,1.378690839E0,1.813541401E0
6.999776827E0,-3.779084682E-1,-7.010517120E-1,1.359131455E0,1.575286205E0
7.007993481E0,-2.119206190E-1,-2.594547272E-1,1.281613350E0,1.324673500E0
7.016208366E0,-7.538801432E-2,3.487253189E-1,1.197962880E0,1.249963105E0
7.024423212E0,1.375660896E-1,1.062222481E0,6.891076565E-1,1.273620976E0
7.032637865E0,4.128932953E-1,1.729129791E0,1.768331528E-1,1.786516351E0
7.040855212E0,5.395439267E-1,2.073691368E0,-6.112504005E-2,2.143604397E0
7.049070096E0,6.808922887E-1,2.255762100E0,-2.472679615E-1,2.369223165E0
7.057285442E0,8.031733632E-1,2.118397713E0,-3.451828957E-1,2.291690981E0
7.065500712E0,8.395959139E-1,1.710313797E0,-2.162754536E-1,1.917516533E0
7.073717135E0,1.024291039E0,1.000946045E0,1.508638859E-1,1.440078133E0
7.081939173E0,1.703472376E0,4.338655472E-1,2.708866596E-1,1.778605361E0
7.090156211E0,2.707011223E0,4.242134094E-2,2.595276833E-1,2.719754391E0
7.098373058E0,3.260431051E0,-3.468198776E-1,4.414706230E-1,3.308412154E0
7.106619673E0,3.290346622E0,-5.924816132E-1,6.306670904E-1,3.402228143E0
7.114837327E0,2.823350906E0,-4.691314697E-1,6.071914434E-1,2.925760777E0
7.123058173E0,2.123459578E0,-1.056861877E-1,2.207477093E-1,2.137517181E0
7.131274673E0,1.556217194E0,2.776641846E-1,-3.821861744E-1,1.626338103E0
7.139489288E0,1.385741949E0,4.219055176E-1,-9.251291752E-1,1.718763802E0
7.147717827E0,1.613608003E0,2.835369110E-1,-1.243056536E0,2.056529484E0
7.155934788E0,1.812933803E0,1.609706879E-1,-1.190744638E0,2.174974328E0
7.164150211E0,1.863883972E0,4.201316833E-1,-9.371500015E-1,2.128103432E0
7.172364903E0,1.782811999E0,1.295664787E0,-7.263970375E-1,2.320521175E0
7.180579134E0,1.818293095E0,3.300239563E0,-5.698387623E-1,3.810838119E0
7.188793211E0,1.967646599E0,5.858056068E0,-1.862356663E-1,6.182486374E0
7.197007057E0,1.976377010E0,8.129639626E0,3.111023903E-1,8.372209459E0
7.205225942E0,1.405183434E0,9.203837395E0,1.220212340E0,9.390105507E0
7.213440865E0,1.164079905E-1,8.622460365E0,2.549504519E0,8.992238145E0
7.221655980E0,-7.716022134E-1,5.911867142E0,3.233951569E0,6.782623816E0
7.229871403E0,-1.182787776E0,2.631015778E0,3.123677492E0,4.251892757E0
7.238084942E0,-1.479917765E0,8.853816986E-2,2.750200272E0,3.124355475E0
7.246298095E0,-1.630074978E0,-1.587403297E0,2.519663334E0,3.394951690E0
7.254513095E0,-1.713783503E0,-3.137419224E0,2.257722855E0,4.228210705E0
7.262727595E0,-1.703783751E0,-4.238882065E0,2.109811783E0,5.032127382E0
7.270972172E0,-1.698793888E0,-4.796538353E0,1.909268260E0,5.434886028E0
7.279185865E0,-1.852039576E0,-4.704858780E0,1.548932791E0,5.288188680E0
7.287403557E0,-2.081134796E0,-4.086430073E0,1.159888983E0,4.730261645E0
7.295617134E0,-2.382588863E0,-3.127313614E0,6.647498608E-1,3.987318963E0
7.303831018E0,-2.646201134E0,-2.175496578E0,2.336854935E-1,3.433624137E0
7.312047941E0,-2.758673191E0,-1.217033386E0,-1.789877415E-1,3.020510660E0
7.320264249E0,-3.096562147E0,3.264045715E-2,-7.143396139E-1,3.178056578E0
7.328480134E0,-3.382082462E0,1.101482391E0,-9.513977766E-1,3.681969985E0
7.336693941E0,-3.524027348E0,1.896394730E0,-7.566874027E-1,4.072794807E0
7.344908634E0,-3.579453945E0,2.143332481E0,-3.524204493E-1,4.186951737E0
7.353121980E0,-3.477791786E0,1.839826584E0,6.714414358E-1,3.991344531E0
7.361335903E0,-3.153893232E0,1.116645813E0,1.575085402E0,3.697950029E0
7.369552518E0,-2.770504236E0,5.758171082E-1,2.845553160E0,4.013032750E0
7.377765518E0,-2.820353985E0,2.042369843E-1,2.876533508E0,4.033677524E0
7.385978518E0,-3.228199720E0,-2.091150284E-1,1.637890577E0,3.625974086E0
7.394204979E0,-3.891754150E0,-5.932950974E-1,-2.200373411E-1,3.942862649E0
7.402419595E0,-4.319490433E0,-8.726282120E-1,-1.903928638E0,4.800460587E0
7.410635441E0,-3.562381268E0,-1.211273193E0,-2.825512886E0,4.705450681E0
7.418853172E0,-2.604390860E0,-1.488348961E0,-2.926122904E0,4.190492767E0
7.427070479E0,-1.730073452E0,-1.663184643E0,-2.221381903E0,3.270149058E0
7.435316710E0,-1.157892704E0,-1.627779007E0,-9.333108664E-1,2.204869425E0
7.443530902E0,-1.169453979E0,-1.351809502E0,5.141735077E-1,1.859942454E0
7.451748210E0,-1.218186140E0,-9.099359512E-1,1.893824697E0,2.428689541E0
7.459961518E0,-1.254097462E0,-7.765293121E-2,2.424401522E0,2.730661671E0
7.468174210E0,-9.829749465E-1,7.186279297E-1,1.944861531E0,2.294591951E0
7.476388210E0,-5.551934838E-1,1.650415421E0,1.125054955E0,2.073127955E0
7.484602018E0,2.941752672E-1,2.026644707E0,6.244499683E-1,2.140973054E0
7.492815210E0,1.265528798E0,1.503170967E0,8.016543388E-1,2.122200691E0
7.501026979E0,2.149849176E0,6.914319992E-1,1.337016582E0,2.624412893E0
7.509239864E0,2.189812422E0,-1.036071777E-2,1.130610347E0,2.464480786E0
7.517452364E0,1.693867564E0,-4.550752640E-1,5.077899694E-1,1.825960425E0
7.525663825E0,7.163150311E-1,-6.360607147E-1,-6.165097952E-1,1.139194796E0
7.533878517E0,3.995907307E-2,-5.651216507E-1,-1.384380460E0,1.495816989E0
7.542089556E0,2.013283372E-1,-4.394521713E-1,-1.795932531E0,1.859845415E0
7.550301979E0,7.134696245E-1,-3.438014984E-1,-1.571316004E0,1.759622789E0
7.558514171E0,1.118013382E0,-8.036899567E-2,-7.765161991E-1,1.363594700E0
7.566727748E0,1.326094151E0,1.082305908E-1,2.717635632E-1,1.357974591E0
7.574940902E0,1.485777378E0,2.958717346E-1,1.092766047E0,1.867943290E0
7.583153402E0,1.456716776E0,5.829515457E-1,1.108673811E0,1.921201158E0
7.591365825E0,1.137809277E0,7.257261276E-1,4.424386024E-1,1.420225433E0
7.599607248E0,8.258085251E-1,4.351015091E-1,-7.478169203E-1,1.196036450E0
7.607820056E0,6.157526374E-1,4.686355591E-2,-1.648951411E0,1.760791941E0
7.616036171E0,4.680202007E-1,-1.871042252E-1,-2.193867683E0,2.251023392E0
7.624250517E0,6.003025174E-1,-2.742481232E-1,-1.965986729E0,2.073807841E0
7.632464556E0,7.843674421E-1,-1.593980789E-1,-1.234590292E0,1.471344019E0
7.640690440E0,8.846881390E-1,2.772331238E-2,-2.766560316E-1,9.273511984E-1
7.648903671E0,7.639645338E-1,2.795457840E-1,4.472299814E-1,9.283330817E-1
7.657115786E0,6.477917433E-1,5.764389038E-1,7.732704878E-1,1.161836133E0
7.665327863E0,4.507871270E-1,7.603559494E-1,6.815139651E-1,1.116159258E0
7.673540825E0,2.112711072E-1,6.925163269E-1,2.059084177E-1,7.527367536E-1
7.681751786E0,1.280099750E-1,3.991975784E-1,-3.196071386E-1,5.271565075E-1
7.689963555E0,1.203415990E-1,7.445335388E-2,-7.277911901E-1,7.414212155E-1
7.698177786E0,2.665969729E-1,-2.790956497E-1,-9.231582880E-1,1.000594599E0
7.706388094E0,4.461026192E-1,-5.031700134E-1,-1.027424097E0,1.227920146E0
7.714599017E0,6.858992577E-1,-6.673698425E-1,-1.045079589E0,1.417050333E0
7.722810863E0,9.130586386E-1,-7.670660019E-1,-9.715362787E-1,1.538164188E0
7.731023017E0,1.170349479E0,-7.641296387E-1,-1.104803681E0,1.781629361E0
7.739234517E0,1.453893423E0,-6.587963104E-1,-1.467312574E0,2.168138569E0
7.747446786E0,1.348659635E0,-2.476949692E-1,-1.765527964E0,2.235469659E0
7.755658132E0,1.078563333E0,2.389545441E-1,-1.752393723E0,2.071540947E0
7.763870093E0,1.102236867E0,5.429611206E-1,-1.653150797E0,2.059767086E0
7.772082478E0,1.188068509E0,4.702425003E-1,-1.616143942E0,2.060232034E0
7.780297401E0,1.457955003E0,3.414411545E-1,-1.696978807E0,2.263172977E0
7.788509440E0,1.483096123E0,3.552694321E-1,-1.744855762E0,2.317393386E0
7.796721632E0,1.488264322E0,4.828405380E-1,-1.552600622E0,2.204231016E0
7.804934978E0,1.309583306E0,5.188875198E-1,-1.012139440E0,1.734554392E0
7.813147209E0,1.158551335E0,3.206253052E-1,-1.420148611E-1,1.210458592E0
7.821360939E0,-2.752951905E-2,1.668624878E-1,8.937146664E-1,9.095751036E-1
7.829573709E0,-7.570407391E-1,-2.120933533E-1,1.984469414E0,2.134528783E0
7.837785939E0,-1.184266686E0,-4.515352249E-1,2.206288338E0,2.544421324E0
7.845998901E0,-1.395509243E0,-4.938373566E-1,2.151953697E0,2.611939145E0
7.854210439E0,-2.012378931E0,-3.033123016E-1,2.410319328E0,3.154569159E0
7.862424978E0,-2.662504435E0,2.592535019E-1,3.104752541E0,4.098247257E0
7.870637555E0,-3.344276905E0,1.410278320E0,3.980295420E0,5.386633883E0
7.878847862E0,-3.235527277E0,3.011353493E0,4.144497871E0,6.059187175E0
7.887072093E0,-2.668517590E0,4.501111984E0,3.452622890E0,6.269098822E0
7.895283939E0,-1.767945051E0,5.615827560E0,2.034675598E0,6.229209716E0
7.903497247E0,-8.665084839E-1,6.005707741E0,4.327274561E-1,6.083306294E0
7.911709862E0,-5.181886554E-1,5.381639481E0,-6.803500652E-1,5.449168670E0
7.919920747E0,-1.090915322E0,4.016599655E0,-1.098228812E0,4.304564502E0
7.928167016E0,-1.993900299E0,2.154154778E0,-7.073981762E-1,3.019343205E0
7.936380093E0,-1.876411319E0,4.638147354E-1,-1.226518154E-1,1.936772319E0
7.944596747E0,-1.280010581E0,-9.962968826E-1,3.685333729E-1,1.663385527E0
7.952808977E0,-6.658078432E-1,-1.800144672E0,4.350426197E-1,1.968014991E0
7.961021170E0,-3.905143738E-1,-2.338814259E0,6.305044889E-1,2.453587073E0
7.969233439E0,-7.128508687E-1,-2.633494854E0,1.012834311E0,2.910203575E0
7.977444900E0,-1.151940346E0,-2.662777424E0,1.596069813E0,3.311312280E0
7.985656823E0,-9.154094458E-1,-2.476122379E0,2.209383011E0,3.442459844E0
7.993868823E0,-8.721053600E-1,-1.903124332E0,2.911882162E0,3.586294426E0
8.002078554E0,-1.003271461E0,-1.014840126E0,3.398253679E0,3.685726818E0
8.010289477E0,-1.087908149E0,-1.030330658E-1,3.560787201E0,3.724696691E0
8.018501285E0,-6.449807882E-1,6.400642395E-1,4.019083023E0,4.120523121E0
8.026720131E0,2.254240513E-1,7.967786789E-1,2.877994061E0,2.994749084E0
8.034932285E0,1.019111156E0,4.752655029E-1,1.322867870E0,1.736215496E0
8.043144554E0,1.208314776E0,2.320566177E-1,2.605388165E-1,1.257678555E0
8.051356669E0,1.000943303E0,5.584716797E-2,-4.619121552E-2,1.003563665E0
8.059567169E0,7.884560823E-1,-1.618318558E-1,3.292963505E-1,8.696485668E-1
8.067778438E0,3.594092131E-1,-4.288587570E-1,1.062843323E0,1.201137271E0
8.075989285E0,-3.101879954E-1,-7.297906876E-1,1.294122219E0,1.517749439E0
8.084201246E0,-8.830183744E-1,-1.033734322E0,1.183154225E0,1.802271350E0
8.092443823E0,-1.364326000E0,-1.254849434E0,1.004768610E0,2.108457374E0
8.100654477E0,-1.615454674E0,-1.460400105E0,1.210499287E0,2.491539843E0
8.108870438E0,-1.442469358E0,-1.565956593E0,1.232427597E0,2.460043837E0
8.117082400E0,-1.278745770E0,-1.344367027E0,9.806797504E-1,2.098629606E0
8.125295554E0,-1.226572514E0,-9.134960175E-1,7.372555733E-1,1.697792945E0
8.133524669E0,-1.223114252E0,-4.577493668E-1,6.102116108E-1,1.441492687E0
8.141740169E0,-6.796081662E-1,6.184577942E-3,4.757218361E-1,8.295883159E-1
8.149953554E0,-1.606472135E-1,5.668010712E-1,3.142213821E-1,6.676870962E-1
8.158165400E0,1.130632162E-1,1.178551674E0,1.202611923E-1,1.190054660E0
8.166377169E0,1.893320084E-1,1.626590729E0,-2.758121490E-2,1.637804852E0
8.174589400E0,3.343606591E-1,1.892836571E0,-2.871527672E-1,1.943472162E0
8.182801207E0,5.470867157E-1,1.968626976E0,-5.552992821E-1,2.117345824E0
8.191018207E0,7.367706895E-1,1.935433388E0,-7.844388485E-1,2.214515241E0
8.199230361E0,9.515993595E-1,1.670919418E0,-8.032307625E-1,2.083912834E0
8.207442592E0,1.164038539E0,1.342644691E0,-6.286263466E-1,1.884900945E0
8.215655246E0,1.396586418E0,1.094594955E0,-1.962473392E-1,1.785246414E0
8.223867476E0,2.025085926E0,7.423992157E-1,1.841355562E-1,2.164725273E0
8.232083515E0,2.656490326E0,3.673286438E-1,5.053261518E-1,2.728960554E0
8.240297861E0,3.132678747E0,-5.005359650E-2,9.087497592E-1,3.262209009E0
8.248511822E0,3.264814138E0,-4.142713547E-1,1.300724983E0,3.538716942E0
8.256751784E0,3.050025225E0,-5.264024734E-1,1.557605386E0,3.464951367E0
8.264963207E0,2.304453611E0,-4.722146988E-1,1.480411053E0,2.779408220E0
8.273179515E0,1.353756905E0,-2.250709534E-1,9.669278264E-1,1.678768630E0
8.281390245E0,7.952947617E-1,1.145744324E-2,4.005050659E-1,8.905219474E-1
8.289601553E0,6.081023216E-1,2.724971771E-1,-7.336568832E-2,6.703921758E-1
8.297812591E0,7.385555506E-1,6.172161102E-1,-3.214958906E-1,1.014780585E0
8.306024591E0,8.967366219E-1,1.107306480E0,-4.109779596E-1,1.482958898E0
8.314236668E0,1.062477827E0,1.998719215E0,-3.835463524E-1,2.295832189E0
8.322447245E0,1.088896990E0,3.136286736E0,-3.496580124E-1,3.338300746E0
8.330659091E0,1.162974119E0,4.324110031E0,-2.225772142E-1,4.483299787E0
8.338871899E0,8.447571993E-1,4.854031563E0,4.114794731E-2,4.927162499E0
8.347086360E0,3.221958876E-2,4.345774651E0,4.271301031E-1,4.366833583E0
8.355302591E0,-1.070311785E0,3.343423843E0,7.755167484E-1,3.595201878E0
8.363515053E0,-1.628502727E0,2.244446754E0,9.763999581E-1,2.939884223E0
8.371726976E0,-1.796990156E0,1.123111725E0,1.070427895E0,2.374103925E0
8.379951207E0,-1.697550535E0,-6.403160095E-2,1.206947803E0,2.083866806E0
8.388164976E0,-1.469676614E0,-9.939641953E-1,1.330968142E0,2.217969875E0
8.396378937E0,-1.435061812E0,-1.662111282E0,1.383895874E0,2.595608620E0
8.404592091E0,-1.342283130E0,-1.968883991E0,1.244007587E0,2.688081667E0
8.412804783E0,-1.318334937E0,-1.886014462E0,1.084293842E0,2.543767028E0
8.421047245E0,-1.149931908E0,-1.487878799E0,8.967998028E-1,2.083357051E0
8.429259399E0,-1.007804394E0,-7.241764069E-1,5.449620485E-1,1.355391013E0
8.437475668E0,-9.568464160E-1,1.055622101E-1,1.944329739E-1,9.820909455E-1
8.445689591E0,-8.895657659E-1,5.221424103E-1,-1.982529163E-1,1.050363826E0
8.453901629E0,-1.189508677E0,6.214208603E-1,-3.445488214E-1,1.385571603E0
8.462112975E0,-1.402389169E0,4.897356033E-1,-6.762344837E-1,1.632124204E0
8.470324975E0,-1.453208923E0,1.510047913E-1,-1.022447348E0,1.783260273E0
8.478536898E0,-2.141243696E0,-7.891559601E-2,-1.006911397E0,2.367492935E0
8.486749975E0,-2.302113533E0,-3.983001709E-1,-1.027978778E0,2.552471374E0
8.494962398E0,-1.636202335E0,-5.315027237E-1,-1.062744975E0,2.022147401E0
8.503175629E0,-1.294412613E0,-5.862884521E-1,-8.073457479E-1,1.634333295E0
8.511390898E0,-8.860706091E-1,-5.672359467E-1,-5.523322225E-1,1.188254446E0
8.519608898E0,-9.383590221E-1,-5.551948547E-1,-3.814986944E-1,1.155119143E0
8.527823283E0,-9.526503086E-1,-5.568675995E-1,-2.699930668E-1,1.136019538E0
8.536038360E0,-9.897809029E-1,-4.140281677E-1,2.000212669E-3,1.072888419E0
8.544253360E0,-8.621373773E-1,-8.537387848E-2,5.197609663E-1,1.010307388E0
8.552467860E0,-7.621303797E-1,1.900444031E-1,3.325514793E-1,8.529654607E-1
8.560683590E0,-3.969044089E-1,2.853736877E-1,8.714401722E-2,4.965534525E-1
8.568895706E0,-1.483800113E-1,2.481851578E-1,-5.361381173E-1,6.091441382E-1
8.577105975E0,-5.910992622E-3,5.215835571E-2,-2.082468033E0,2.083129507E0
8.585345321E0,1.311752051E-1,-1.117238998E-1,-3.815892696E0,3.819780914E0
8.593557283E0,3.976365328E-1,-3.856782913E-1,-4.544104576E0,4.577744964E0
8.601771975E0,7.121683359E-1,-6.697654724E-1,-4.667044640E0,4.768340927E0
8.609983936E0,1.091146588E0,-9.018745422E-1,-4.000175953E0,4.243275412E0
8.618194513E0,1.328155041E0,-8.925781250E-1,-2.887340784E0,3.301125312E0
8.626418821E0,1.330050111E0,-6.558351517E-1,-1.760222197E0,2.301637509E0
8.634628282E0,1.113737822E0,-4.093084335E-1,-9.391816854E-1,1.513277095E0
8.642840590E0,8.256886601E-1,-1.479368210E-1,-3.322252631E-1,9.022309527E-1
8.651052975E0,5.665531158E-1,-5.108165741E-2,1.230143905E-1,5.820002655E-1
8.659263782E0,3.873383999E-1,-4.918861389E-2,3.725116849E-1,5.396438744E-1
8.667475859E0,2.932955623E-1,-1.302051544E-1,4.810387194E-1,5.782507403E-1
8.675686398E0,3.198851347E-1,-2.319526672E-1,2.478922606E-1,4.664537620E-1
8.683900898E0,5.486860275E-1,-2.756061554E-1,-3.134166002E-1,6.893802108E-1
8.692112782E0,7.496025562E-1,-2.951107025E-1,-9.687491655E-1,1.259948120E0
8.700325436E0,9.151991010E-1,-2.883596420E-1,-1.459944606E0,1.747048634E0
8.708538282E0,9.802697897E-1,-3.491697311E-1,-1.764462948E0,2.048457433E0
8.716750167E0,1.029305339E0,-4.728717804E-1,-1.899363637E0,2.211483535E0
8.724962436E0,9.383323789E-1,-5.421276093E-1,-1.933134317E0,2.216162965E0
8.733174167E0,5.709674358E-1,-6.573753357E-1,-1.924268842E0,2.112097706E0
8.741386359E0,1.462611258E-1,-7.968406677E-1,-1.983304858E0,2.142392477E0
8.749624897E0,-2.680664062E-1,-9.629287720E-1,-1.828323722E0,2.083712804E0
8.757837282E0,-5.890820622E-1,-1.148522377E0,-1.305112958E0,1.835603759E0
8.766052167E0,-7.506272197E-1,-1.228948593E0,-7.460960150E-1,1.621855459E0
8.774265243E0,-8.435720801E-1,-1.079439163E0,-4.372341633E-1,1.438046061E0
8.782477167E0,-1.097113371E0,-8.602581024E-1,-4.105062485E-1,1.453346872E0
8.790688359E0,-1.414415240E0,-6.743249893E-1,-5.934177637E-1,1.675538512E0
8.798899051E0,-1.823193312E0,-4.595155716E-1,-1.042109132E0,2.149692968E0
8.807111436E0,-2.188947916E0,-2.711925507E-1,-1.610181332E0,2.730883062E0
8.815321859E0,-2.593889475E0,-7.609558105E-2,-2.112034321E0,3.345854467E0
8.823532051E0,-2.717181206E0,3.958606720E-2,-2.180868149E0,3.484368902E0
8.831743128E0,-2.544635296E0,1.386709213E-1,-1.771317482E0,3.103540564E0
8.839954820E0,-2.535872459E0,3.890228271E-1,-1.200749397E0,2.832628992E0
8.848172666E0,-2.384485483E0,9.493350983E-1,-6.207862496E-1,2.640527166E0
8.856387551E0,-2.373159409E0,1.544835091E0,-1.175245345E-1,2.834115921E0
8.864601089E0,-2.570656776E0,2.638144493E0,2.082335800E-1,3.689369032E0
8.872826128E0,-2.985692263E0,4.102775574E0,-5.474513769E-2,5.074457875E0
8.881038397E0,-2.946383715E0,4.782124519E0,-4.891571403E-1,5.638188239E0
8.889252205E0,-1.800966620E0,4.199318886E0,-3.867530227E-1,4.585557520E0
8.897464051E0,-8.100053668E-1,2.936497688E0,-2.281248569E-1,3.054696109E0
8.905677551E0,-3.199108839E-1,1.542145729E0,-2.344821393E-1,1.592337369E0
8.913894820E0,-5.893471241E-1,7.375383377E-1,-6.688994169E-1,1.157030364E0
8.922106512E0,-1.231247187E0,4.745407104E-1,-8.512415886E-1,1.570277288E0
8.930321820E0,-2.090079784E0,6.940679550E-1,-1.112760782E0,2.467468417E0
8.938533820E0,-2.715664387E0,1.017574310E0,-1.574309826E0,3.299809383E0
8.946746820E0,-2.250008821E0,1.036741257E0,-1.785141587E0,3.053539359E0
8.954959781E0,-1.387822151E0,9.331645966E-1,-1.782177448E0,2.443972779E0
8.963172435E0,-9.558505416E-1,6.343755722E-1,-1.527886987E0,1.910633735E0
8.971386397E0,-1.009349823E0,7.632446289E-2,-8.006349206E-1,1.290592409E0
8.979598012E0,-1.020580769E0,-5.758476257E-2,-6.031149626E-1,1.186865101E0
8.987810089E0,-2.298754454E-1,-1.638870239E-1,-1.276944160E0,1.307779823E0
8.996021512E0,3.394908905E-1,-3.510761261E-1,-1.481622696E0,1.560036642E0
9.004234358E0,6.505138874E-1,-5.503530502E-1,-1.437013268E0,1.670647758E0
9.012448704E0,7.392570972E-1,-5.246515274E-1,-1.201639652E0,1.505223616E0
9.020660204E0,7.679215670E-1,-3.360586166E-1,-9.410960674E-1,1.260278039E0
9.028873166E0,6.993733644E-1,-1.521158218E-1,-6.464607716E-1,9.644552117E-1
9.037085166E0,4.826791286E-1,3.514003754E-2,-1.172603369E-1,4.979597876E-1
9.045298742E0,1.869684458E-1,1.685352325E-1,5.714543462E-1,6.244368616E-1
9.053514281E0,-2.150079012E-1,1.964845657E-1,9.088982344E-1,9.544268346E-1
9.061728319E0,-5.094044209E-1,1.243267059E-1,8.432587981E-1,9.929931492E-1
9.069941627E0,-6.997890472E-1,-4.324245453E-2,4.166303277E-1,8.155706287E-1
9.078182242E0,-8.291332722E-1,-2.227706909E-1,-3.476999998E-1,9.262742864E-1
9.086396550E0,-8.951228261E-1,-4.231452942E-1,-1.086310863E0,1.469819073E0
9.094613281E0,-9.860653281E-1,-5.479049683E-1,-1.514594197E0,1.888523304E0
9.102827242E0,-1.004273534E0,-6.719617844E-1,-1.568295240E0,1.979810075E0
9.111041281E0,-1.350049257E0,-5.736274719E-1,-1.245425582E0,1.924257351E0
9.119265819E0,-1.777996421E0,-3.295764923E-1,-6.900705099E-1,1.935481657E0
9.127477781E0,-2.181841612E0,-9.730815887E-2,-1.441679001E-1,2.188763596E0
9.135691050E0,-2.384036303E0,2.868671417E-1,1.684998274E-1,2.407138143E0
9.143904357E0,-2.197515249E0,5.597000122E-1,7.331168652E-2,2.268856976E0
9.152118319E0,-1.817487478E0,7.114763260E-1,-1.068196297E-1,1.954704512E0
9.160332050E0,-1.587589741E0,6.870841980E-1,-1.395280361E-1,1.735509710E0
9.168547050E0,-1.276453495E0,5.969266891E-1,-2.634805441E-1,1.433553973E0
9.176762973E0,-1.144433022E0,3.260450363E-1,-3.911839724E-1,1.252620137E0
9.184975896E0,-1.258001566E0,9.974002838E-2,-4.989423752E-1,1.357003871E0
9.193189357E0,-6.943097115E-1,-4.794788361E-2,-5.766781569E-1,9.038377463E-1
9.201402665E0,-2.355512381E-1,-2.341270447E-2,-7.925876379E-1,8.271805753E-1
9.209615857E0,-3.517936170E-1,2.070322037E-1,-1.084105968E0,1.158407024E0
9.217829588E0,-6.448320150E-1,4.908523560E-1,-1.200985074E0,1.448830394E0
9.226044626E0,-6.772548556E-1,5.389413834E-1,-1.220306516E0,1.496088215E0
9.234259472E0,-4.978588820E-1,5.188102722E-1,-1.243012547E0,1.436004094E0
9.242477819E0,-1.519821286E-1,2.966613770E-1,-1.032720208E0,1.085180892E0
9.250692049E0,3.998959661E-1,-9.430503845E-2,-8.216326237E-1,9.186350702E-1
9.258910511E0,9.208060503E-1,-4.604711533E-1,-5.804159641E-1,1.181863002E0
9.267126665E0,1.258245230E0,-7.693548203E-1,-3.436867595E-1,1.514334338E0
9.275341280E0,1.423642278E0,-9.940166473E-1,-1.982519627E-1,1.747607013E0
9.283554857E0,1.368794322E0,-1.188751221E0,-2.143973708E-1,1.825566650E0
9.291769165E0,4.045896530E-1,-1.220818520E0,-3.876336813E-1,1.343261150E0
9.299982511E0,-1.078104377E-1,-1.258379936E0,-6.985802650E-1,1.443314775E0
9.308195472E0,-1.981494129E-1,-1.032241821E0,-8.988857865E-1,1.383033631E0
9.316407780E0,-3.938668966E-1,-5.356721878E-1,-8.966190219E-1,1.116244371E0
9.324620588E0,-5.989569426E-1,-9.153652191E-2,-9.169323444E-1,1.099041982E0
9.332834011E0,-7.150000334E-1,1.949148178E-1,-9.990805387E-1,1.243936798E0
9.341050203E0,-8.584922552E-1,1.201639175E-1,-1.147289038E0,1.437957042E0
9.349263241E0,-1.071394682E0,-2.800769806E-1,-1.296262980E0,1.704883395E0
9.357478087E0,-1.421101928E0,-8.407669067E-1,-1.417441130E0,2.176133966E0
9.365707010E0,-1.834278822E0,-1.346435547E0,-1.427012444E0,2.685857776E0
9.373921087E0,-2.193859816E0,-1.653386116E0,-1.359430790E0,3.065087048E0
9.382137010E0,-2.396136045E0,-1.720928192E0,-1.200264215E0,3.184916950E0
9.390349472E0,-2.552544355E0,-1.455610275E0,-1.006498814E0,3.106014137E0
9.398561933E0,-2.483588934E0,-1.051345825E0,-7.687571049E-1,2.804376851E0
9.406777126E0,-2.229377270E0,-5.080490112E-1,-4.440277219E-1,2.329248254E0
9.414990779E0,-1.895171404E0,-1.967430115E-2,-6.143027544E-2,1.896268812E0
9.423208241E0,-1.696440101E0,3.203830719E-1,2.380890548E-1,1.742768122E0
9.431421779E0,-1.601426840E0,6.509904861E-1,5.243903399E-1,1.806472188E0
9.439634587E0,-1.721573114E0,1.237860680E0,7.886602879E-1,2.262321396E0
9.447847856E0,-2.098860264E0,2.332608223E0,1.101009488E0,3.325431915E0
9.456061279E0,-2.660528183E0,3.899705887E0,7.618912458E-1,4.781902810E0
9.464278279E0,-3.066591024E0,5.333393097E0,3.932642937E-1,6.164715666E0
9.472493548E0,-3.232787132E0,6.640688896E0,6.367540359E-2,7.386048755E0
9.480705664E0,-3.210915804E0,6.732125282E0,3.254324198E-3,7.458652808E0
9.488918625E0,-2.998916864E0,4.803156853E0,1.183548570E-2,5.662504586E0
9.497131356E0,-2.015167475E0,1.765839577E0,1.208926439E-1,2.682108199E0
9.505346433E0,-9.309333563E-1,-8.118982315E-1,8.466878533E-2,1.238137495E0
9.513559010E0,-3.896330893E-1,-2.743491173E0,-9.119483829E-2,2.772521282E0
9.521771164E0,-2.641171217E-3,-4.065042496E0,-4.420950413E-1,4.089012777E0
9.529983818E0,2.160011828E-1,-4.647570133E0,-8.288023472E-1,4.725830931E0
9.538196548E0,1.154195368E-1,-4.603177547E0,-1.338359118E0,4.795181991E0
9.546410817E0,8.735124767E-2,-3.898322582E0,-1.605970502E0,4.217071312E0
9.554623240E0,2.161503434E-1,-2.815417290E0,-1.665453911E0,3.278266648E0
9.562837279E0,3.611098826E-1,-1.536285400E0,-1.677187204E0,2.302939447E0
9.571080048E0,3.810730577E-1,-2.067785263E-1,-1.529237986E0,1.589510255E0
9.579293894E0,5.179957151E-1,1.084777832E0,-1.165573955E0,1.674402923E0
9.587510279E0,5.320278406E-1,2.240459442E0,-7.865440845E-1,2.433385241E0
9.595722933E0,2.544016242E-1,2.743202209E0,-8.035738468E-1,2.869775161E0
9.603936240E0,-9.549261630E-2,2.827582359E0,-1.296404719E0,3.112074234E0
9.612161471E0,-3.898195326E-1,2.201472282E0,-2.034753084E0,3.023021600E0
9.620373356E0,-5.325952768E-1,1.302776337E0,-2.519709587E0,2.886142809E0
9.628588009E0,-6.039578319E-1,3.778276443E-1,-2.473737478E0,2.574275802E0
9.636802779E0,-4.863971770E-1,-4.585380554E-1,-2.060577869E0,2.166291882E0
9.645017394E0,-1.283071637E-1,-1.177498817E0,-1.598155975E0,1.989238225E0
9.653230125E0,-8.886055648E-2,-1.558710098E0,-1.230507135E0,1.987868501E0
9.661442740E0,-2.755027711E-1,-1.561352730E0,-1.336118221E0,2.073387572E0
9.669660740E0,-4.166698456E-1,-1.329287529E0,-1.547979712E0,2.082512974E0
9.677873163E0,-5.607453585E-1,-9.727029800E-1,-1.847670913E0,2.162053248E0
9.686084355E0,-6.225816011E-1,-4.701089859E-1,-2.097001553E0,2.237414986E0
9.694295894E0,-5.761629939E-1,8.029842377E-2,-2.085524082E0,2.165137947E0
9.702507586E0,-4.548777938E-1,6.091651917E-1,-1.751938820E0,1.909786812E0
9.710720625E0,-2.402017415E-1,9.536428452E-1,-1.266736388E0,1.603668491E0
9.718932201E0,-1.181991026E-2,1.063613892E0,-6.611130834E-1,1.252391604E0
9.727144817E0,-4.038609564E-3,1.035058022E0,-3.535950184E-2,1.035669693E0
9.735384471E0,-1.508599818E-1,8.610420227E-1,3.663343191E-1,9.478148196E-1
9.743596509E0,-4.620770514E-1,5.059032440E-1,6.629137397E-1,9.533666241E-1
9.751811586E0,-4.687641263E-1,1.229753494E-1,4.759067297E-1,6.792274715E-1
9.760023932E0,-3.105130792E-1,-2.402629852E-1,4.251163602E-1,5.786783166E-1
9.768238163E0,-2.287324071E-1,-4.356412888E-1,2.646744251E-2,4.927498067E-1
9.776451932E0,-3.144032359E-1,-3.296194077E-1,-4.877691269E-1,6.673957370E-1
9.784665240E0,-4.881408811E-1,-4.716682434E-2,-8.432928324E-1,9.755250024E-1
9.792877893E0,-7.226176858E-1,2.606115341E-1,-1.223509669E0,1.444669721E0
9.801091470E0,-8.166610003E-1,3.876142502E-1,-1.487836957E0,1.740930443E0
9.809304932E0,-7.391883135E-1,4.009809494E-1,-1.622950554E0,1.827882268E0
9.817519624E0,-4.888942838E-1,3.632822037E-1,-1.566296697E0,1.680558515E0
9.825736278E0,-6.693480015E-1,3.133497238E-1,-1.572585702E0,1.737596209E0
9.833956432E0,-6.457556486E-1,2.082738876E-1,-1.328850508E0,1.492052962E0
9.842172586E0,-5.098479986E-1,1.367835999E-1,-9.487570524E-1,1.085723114E0
9.850386662E0,-4.061472416E-1,2.968883514E-2,-4.857158661E-1,6.338429706E-1
9.858614701E0,-4.110371470E-1,-1.177167892E-1,-1.619040966E-1,4.571889273E-1
9.866830278E0,-5.205832720E-1,-1.905326843E-1,-1.018422842E-1,5.636324136E-1
9.875047932E0,-5.203715563E-1,-2.176599503E-1,-2.779345512E-1,6.288163685E-1
9.883263893E0,-5.173434019E-1,-1.395263672E-1,-6.535681486E-1,8.451408921E-1
9.891478355E0,-3.945188522E-1,-4.004573822E-2,-1.033105731E0,1.106596691E0
9.899692624E0,-2.811865807E-1,2.807140350E-2,-1.256269932E0,1.287659908E0
9.907906624E0,-2.018574774E-1,8.412647247E-2,-1.150063634E0,1.170670776E0
9.916122739E0,-3.504495621E-1,2.242078781E-1,-1.155883789E0,1.228475235E0
9.924336970E0,-6.552673578E-1,3.836688995E-1,-1.201933265E0,1.421696419E0
9.932550854E0,-8.676540852E-1,4.425678253E-1,-1.211047769E0,1.554132102E0
9.940764970E0,-9.814174175E-1,3.862752914E-1,-1.065297961E0,1.499082551E0
9.948979624E0,-1.055235982E0,2.651729584E-1,-7.860639095E-1,1.342287654E0
9.957194008E0,-1.110803366E0,1.441583633E-1,-7.089757919E-1,1.325636611E0
9.965408970E0,-1.114328384E0,-3.644847870E-2,-6.556801796E-1,1.293434474E0
9.973624662E0,-1.065283537E0,-2.191162109E-1,-8.200482130E-1,1.362101318E0
9.981839277E0,-1.048959494E0,-3.369884491E-1,-8.053715229E-1,1.364734598E0
9.990053393E0,-8.963478208E-1,-2.921476364E-1,-8.285835981E-1,1.255125666E0
9.998270316E0,-6.788858771E-1,-2.691831589E-1,-7.801387310E-1,1.068626243E0
1.000648309E1,-5.902603269E-1,-2.559471130E-1,-7.998008728E-1,1.026449032E0
1.001469666E1,-5.914468169E-1,-2.212619781E-1,-9.091612101E-1,1.106950905E0
1.002290835E1,-5.561932325E-1,-1.267738342E-1,-1.078393459E0,1.219981545E0
1.003112093E1,-4.255141616E-1,-6.831169128E-2,-1.323885918E0,1.392265317E0
1.003933470E1,-3.004617095E-1,-8.906650543E-2,-1.638670444E0,1.668367737E0
1.004754882E1,-1.050190926E-1,-2.729539871E-1,-1.742850780E0,1.767218643E0
1.005576216E1,1.891101599E-1,-5.434436798E-1,-1.648540139E0,1.746075106E0
1.006397620E1,4.421215057E-1,-7.495527267E-1,-1.372307420E0,1.624970268E0
1.007218955E1,6.584537029E-1,-8.122377396E-1,-1.490178108E0,1.820418144E0
1.008040697E1,8.796604276E-1,-8.849325180E-1,-1.461227179E0,1.921481953E0
1.008862105E1,1.093364835E0,-9.676923752E-1,-1.268786192E0,1.934345780E0
1.009683324E1,1.190111399E0,-1.026971817E0,-1.260618687E0,2.014992736E0
1.010505962E1,9.968904257E-1,-1.062899590E0,-1.145581245E0,1.853618744E0
1.011327278E1,1.063944697E0,-1.180912018E0,-1.116242170E0,1.942299693E0
1.012148720E1,9.076331258E-1,-1.211077690E0,-1.042203903E0,1.837578852E0
1.012970101E1,5.717526078E-1,-1.007431984E0,-9.788178205E-1,1.516543627E0
1.013791316E1,3.708100617E-1,-7.786169052E-1,-1.030576944E0,1.343812943E0
1.014612551E1,2.969965041E-1,-5.102090836E-1,-1.060216665E0,1.213498912E0
1.015433697E1,4.787275195E-1,-3.815135956E-1,-9.331897497E-1,1.116053659E0
1.016255312E1,6.277353168E-1,-2.914638519E-1,-9.136498570E-1,1.146193206E0
1.017076524E1,1.031527638E0,2.383708954E-2,-7.670973539E-1,1.285712186E0
1.017897812E1,1.031646490E0,8.521842957E-1,-7.231485248E-1,1.521005044E0
1.018719243E1,1.119528532E0,2.050071716E0,-5.227863789E-1,2.393625655E0
1.019540662E1,1.125184894E0,3.203290939E0,-2.081556320E-1,3.401535338E0
1.020362120E1,9.229016304E-1,3.895744324E0,4.252111912E-2,4.003795612E0
1.021183543E1,7.416679859E-1,4.096637726E0,3.833983839E-1,4.180849959E0
1.022004832E1,2.708320916E-1,3.791666031E0,9.633361101E-1,3.921491779E0
1.022829097E1,-1.252278686E-2,3.095878601E0,1.563785553E0,3.468435726E0
1.023650374E1,-2.872473001E-1,2.330190659E0,2.069851637E0,3.129949730E0
1.024471978E1,-6.361726522E-1,1.566432953E0,2.342678785E0,2.889043394E0
1.025293301E1,-5.710033774E-1,6.658229828E-1,2.108884335E0,2.284022381E0
1.026114582E1,-4.922598600E-1,-2.148723602E-2,1.351300836E0,1.438330775E0
1.026935835E1,-3.842604160E-2,-4.860143661E-1,4.711565673E-1,6.779933891E-1
1.027757097E1,8.128666282E-1,-6.278476715E-1,-1.399617195E-1,1.036597384E0
1.028578462E1,1.758019686E0,-3.455400467E-1,-4.248853922E-1,1.841346990E0
1.029399835E1,2.272427320E0,3.025264740E-1,-8.476138115E-3,2.292492102E0
1.030220966E1,2.065021992E0,9.769525528E-1,9.731526375E-1,2.483098502E0
1.031042174E1,1.507153749E0,1.528342247E0,2.404994011E0,3.223559933E0
1.031863439E1,5.806362629E-1,1.884010315E0,2.627501249E0,3.284873841E0
1.032684962E1,-4.889123738E-1,1.862761497E0,1.587571383E0,2.495856286E0
1.033506043E1,-1.063947439E0,1.696237564E0,-3.480510712E-1,2.032325165E0
1.034327158E1,-1.146305919E0,1.321563721E0,-1.457143426E0,2.276799265E0
1.035149578E1,-1.090863585E0,5.605335236E-1,-1.814121246E0,2.189798413E0
1.035970797E1,-1.172591925E0,-2.629632950E-1,-1.208285809E0,1.704135004E0
1.036792162E1,-1.209511042E0,-1.063017845E0,-4.121189117E-1,1.662157001E0
1.037613493E1,-1.464331985E0,-1.628218174E0,5.420161486E-1,2.255913138E0
1.038434978E1,-1.806065321E0,-1.956622601E0,1.270400763E0,2.950281689E0
1.039259281E1,-1.715755343E0,-2.091741085E0,1.700884819E0,3.195654289E0
1.040080554E1,-1.522528648E0,-2.015778065E0,1.950062990E0,3.191269396E0
1.040902139E1,-9.041236043E-1,-1.730146885E0,1.811847925E0,2.663388939E0
1.041723285E1,-2.168967724E-1,-1.146713257E0,1.350837469E0,1.785149117E0
1.042544351E1,1.234325767E-1,-4.768791199E-1,9.147535563E-1,1.038953014E0
1.043365524E1,3.722359538E-1,4.671287537E-2,6.476387978E-1,7.484502057E-1
1.044186624E1,6.814090610E-1,2.850074768E-1,6.079878807E-1,9.566592044E-1
1.045007943E1,7.912682891E-1,3.075675964E-1,6.379039288E-1,1.061896772E0
1.045829231E1,7.640259266E-1,2.533283234E-1,6.226459742E-1,1.017643781E0
1.046650520E1,5.509049892E-1,1.583337784E-1,4.115018845E-1,7.056200773E-1
1.047471816E1,3.578858972E-1,-4.233932495E-2,2.874853611E-1,4.610019161E-1
1.048293208E1,1.505585313E-1,-3.778190613E-1,3.709251881E-1,5.504549115E-1
1.049115039E1,1.177247763E-1,-7.117710114E-1,4.434254169E-1,8.468194589E-1
1.049936355E1,1.033644080E-1,-8.718757629E-1,4.831967354E-1,1.002162977E0
1.050757758E1,2.627750635E-1,-8.843879700E-1,3.899788857E-1,1.001636834E0
1.051579254E1,3.734557629E-1,-7.901058197E-1,2.473452091E-1,9.082489007E-1
1.052400720E1,5.145770311E-1,-7.187767029E-1,1.949155331E-1,9.052190534E-1
1.053225016E1,5.540338159E-1,-5.484304428E-1,1.531188488E-1,7.944651041E-1
1.054046412E1,6.865975261E-1,-3.913812637E-1,1.702299118E-1,8.084390387E-1
1.054867704E1,9.333438277E-1,-2.808389664E-1,2.137351036E-1,9.978396265E-1
1.055689081E1,1.191347122E0,-2.308025360E-1,1.628911495E-1,1.224382009E0
1.056510251E1,1.339187026E0,-1.807746887E-1,-2.103400230E-2,1.351496877E0
1.057331839E1,1.582423687E0,-9.183692932E-2,-2.813618183E-1,1.609864348E0
1.058153220E1,1.838432312E0,8.428668976E-2,-6.217153072E-1,1.942541514E0
1.058974704E1,2.208299160E0,4.456186295E-1,-9.523134232E-1,2.445825423E0
1.059797462E1,2.569535732E0,8.047018051E-1,-1.047530651E0,2.889183161E0
1.060618808E1,2.803231955E0,1.100499153E0,-7.350711823E-1,3.099925389E0
1.061440081E1,2.813488960E0,1.323151588E0,-3.179419041E-1,3.125305955E0
1.062261366E1,2.697685242E0,1.530601501E0,2.024903297E-1,3.108254969E0
1.063082658E1,2.134841442E0,1.634945869E0,5.083099604E-1,2.736599166E0
1.063903789E1,1.887169838E0,1.510413170E0,3.746564388E-1,2.446042802E0
1.064724904E1,2.052889109E0,1.164213181E0,-5.139589310E-2,2.360590511E0
1.065546358E1,2.235796928E0,6.841926575E-1,-5.170667171E-1,2.394632641E0
1.066367747E1,2.058167696E0,2.921342850E-1,-8.128225803E-1,2.232056731E0
1.067189131E1,1.718970537E0,1.260318756E-1,-9.111928940E-1,1.949619509E0
1.068010489E1,1.380241990E0,2.882566452E-1,-8.151359558E-1,1.628682434E0
1.068831943E1,9.030590057E-1,9.009904861E-1,-4.384908676E-1,1.348915737E0
1.069653351E1,3.965061307E-1,1.720677376E0,4.362320900E-2,1.766309918E0
1.070474712E1,-8.384847641E-2,2.619018555E0,5.078417063E-1,2.669118198E0
1.071296112E1,-4.228434563E-1,3.156142235E0,9.930591583E-1,3.335595432E0
1.072120400E1,-6.153564453E-1,2.841710091E0,1.346059322E0,3.204037374E0
1.072941566E1,-6.583043337E-1,1.663954735E0,1.528271675E0,2.353236977E0
1.073763116E1,-8.558187485E-1,4.631061554E-1,1.374825954E0,1.684351343E0
1.074584239E1,-1.081946492E0,-1.747531891E-1,9.740489125E-1,1.466259927E0
1.075405362E1,-1.374022603E0,-6.838178635E-1,5.765434504E-1,1.639496061E0
1.076226577E1,-1.466820002E0,-9.685907364E-1,3.329083920E-1,1.789010042E0
1.077047843E1,-1.540952563E0,-9.046201706E-1,2.109577656E-1,1.799270862E0
1.077869027E1,-1.544358850E0,-6.160459518E-1,2.477585077E-1,1.681053583E0
1.078690227E1,-1.360643029E0,-4.063892365E-1,5.708606243E-1,1.530484733E0
1.079511493E1,-1.095838308E0,-4.022130966E-1,9.957339168E-1,1.534315159E0
1.080332858E1,-9.010107517E-1,-5.095129013E-1,1.256658912E0,1.628071065E0
1.081154300E1,-8.291796446E-1,-4.720296860E-1,1.264547229E0,1.584118241E0
1.081975866E1,-8.096476197E-1,-4.168062210E-1,1.189596772E0,1.498131227E0
1.082797108E1,-9.974866509E-1,-6.637001038E-2,8.428004980E-1,1.307553929E0
1.083618270E1,-1.525518775E0,5.787420273E-1,4.702642560E-1,1.698027779E0
1.084440708E1,-2.486439705E0,1.243116379E0,1.049957514E0,2.971553721E0
1.085261770E1,-3.091879368E0,1.827706337E0,-1.084176302E-1,3.593324764E0
1.086082781E1,-3.367810249E0,1.897900581E0,-1.068577766E0,4.010739450E0
1.086903858E1,-2.897261620E0,1.615587234E0,-1.244163871E0,3.542907103E0
1.087724924E1,-2.157135248E0,9.755439758E-1,-8.415403366E-1,2.512590031E0
1.088549020E1,-1.104037642E0,1.870441437E-2,-7.556712627E-2,1.106778822E0
1.089370112E1,-3.836233318E-1,-7.804327011E-1,8.065363169E-1,1.186061926E0
1.090191820E1,-1.413682103E-1,-1.088421822E0,1.100871086E0,1.554530212E0
1.091013077E1,-6.682965755E-1,-8.807573318E-1,1.180169582E0,1.617143789E0
1.091834181E1,-1.177746892E0,-7.791557312E-1,6.688590050E-1,1.562544004E0
1.092655308E1,-1.372317553E0,-7.813653946E-1,2.560365200E-2,1.579380541E0
1.093476208E1,-1.872751594E0,-5.831651688E-1,-5.538069606E-1,2.038132060E0
1.094297135E1,-2.366322041E0,-4.166069031E-1,-1.449608803E0,2.806137379E0
1.095117981E1,-2.633927822E0,-2.724170685E-1,-2.162327528E0,3.418690856E0
1.095938916E1,-2.617195129E0,-3.666191101E-1,-2.678402901E0,3.762706741E0
1.096760066E1,-2.141597986E0,-6.231184006E-1,-2.637611628E0,3.454231257E0
1.097580962E1,-1.421881199E0,-1.030067444E0,-2.070689201E0,2.714873634E0
1.098402350E1,-7.092565298E-1,-1.287936211E0,-1.104204297E0,1.838774493E0
1.099223431E1,-9.315043688E-2,-1.470474243E0,-3.452848196E-1,1.513338399E0
1.100044593E1,2.084082216E-1,-1.363539696E0,5.358835459E-1,1.479812712E0
1.100865858E1,3.378821611E-1,-1.018912315E0,1.121764302E0,1.552643491E0
1.101687024E1,4.447654784E-1,-3.190412521E-1,2.313717365E0,2.377581060E0
1.102508350E1,5.432553887E-1,1.275517464E0,2.542768955E0,2.896160420E0
1.103329550E1,9.541374445E-1,1.341835976E0,1.000119209E0,1.926432060E0
1.104150697E1,1.474662304E0,8.306112289E-1,1.658256054E-1,1.700600499E0
1.104974581E1,1.777393103E0,1.074419022E-1,1.008685827E-1,1.783492213E0
1.105795666E1,1.536921740E0,-3.900604248E-1,-1.879298687E-2,1.585758098E0
1.106617158E1,1.179461956E0,-5.182838440E-1,-5.793499947E-1,1.412584534E0
1.107438289E1,7.402262688E-1,-3.317871094E-1,-1.623174548E0,1.814583486E0
1.108259381E1,6.051894426E-1,-1.025362015E-1,-2.075223207E0,2.164097802E0
1.109081989E1,1.140883088E0,-2.267475128E-1,-1.707153797E0,2.065769286E0
1.109903246E1,1.275199890E0,1.258115768E-1,-9.488793612E-1,1.594470243E0
1.110724600E1,1.300662041E0,3.173694611E-1,-2.423334122E-2,1.339041588E0
1.111545762E1,8.578883410E-1,2.301959991E-1,-9.073042870E-2,8.928575554E-1
1.112366920E1,4.208482504E-1,-4.006481171E-2,-5.540819168E-1,6.969398895E-1
1.113188035E1,3.197175264E-1,-8.462810516E-2,-8.176561594E-1,8.820106620E-1
1.114009050E1,7.168283463E-1,-4.244041443E-2,-8.791735172E-1,1.135160843E0
1.114830593E1,9.241394997E-1,-1.575756073E-2,-1.163186908E0,1.485693743E0
1.115651650E1,8.959155679E-1,1.136255264E-1,-1.643123269E0,1.874947877E0
1.116472785E1,8.977659941E-1,3.607358932E-1,-2.018635750E0,2.238527296E0
1.117293873E1,9.002640247E-1,7.713356018E-1,-2.092660904E0,2.405132758E0
1.118115100E1,7.673611641E-1,1.254698753E0,-1.748545885E0,2.284846785E0
1.118936408E1,5.733975768E-1,1.710054398E0,-1.222992301E0,2.179169794E0
1.119757462E1,5.542643070E-1,1.809216499E0,-5.977349281E-1,1.984379074E0
1.120578750E1,8.235495090E-1,1.429586411E0,-2.604997158E-2,1.650039303E0
1.121402670E1,1.131696463E0,8.748540878E-1,2.650268078E-1,1.454766568E0
1.122223639E1,1.460572958E0,3.793659210E-1,3.011368513E-1,1.538790197E0
1.123045097E1,1.487143397E0,2.949638367E-1,8.599776030E-2,1.518550218E0
1.123866320E1,1.263304114E0,3.077192307E-1,-2.408984303E-1,1.322369262E0
1.124687443E1,1.240171909E0,2.235441208E-1,-6.314790249E-1,1.409526196E0
1.125508577E1,1.379988551E0,-1.952075958E-2,-9.378808141E-1,1.668643126E0
1.126329693E1,1.269454479E0,-3.495397568E-1,-1.236343861E0,1.806166897E0
1.127150854E1,1.578933716E0,-7.711982727E-1,-1.477967978E0,2.296120162E0
1.127971973E1,1.658214688E0,-1.135609627E0,-1.519469023E0,2.519537912E0
1.128793120E1,1.675339460E0,-1.519185066E0,-1.765569568E0,2.869132529E0
1.129614300E1,1.791103125E0,-1.766359806E0,-2.058828115E0,3.250669251E0
1.130435473E1,1.757561088E0,-1.827019691E0,-2.186181545E0,3.347597897E0
1.131256981E1,1.528740287E0,-1.535874367E0,-2.280525446E0,3.145910559E0
1.132078273E1,1.329584122E0,-1.201748848E0,-2.401800632E0,2.996771681E0
1.132899535E1,1.130611777E0,-8.681335449E-1,-2.287256241E0,2.695084406E0
1.133722043E1,1.020548344E0,-4.558887482E-1,-1.964760542E0,2.260450720E0
1.134543293E1,9.253686666E-1,-4.827976227E-2,-1.428912401E0,1.703064519E0
1.135364489E1,1.026368022E0,3.699026108E-1,-7.413588762E-1,1.319042168E0
1.136185696E1,6.880724430E-1,5.575008392E-1,6.875014305E-2,8.882440288E-1
1.137006962E1,-1.172569841E-1,7.686300278E-1,5.785908699E-1,9.691794027E-1
1.137831346E1,-5.546094179E-1,1.063280106E0,9.055196047E-1,1.502704876E0
1.138652673E1,-1.022753477E0,1.419932365E0,1.178617954E0,2.109827689E0
1.139474504E1,-1.301898599E0,1.764521599E0,1.801093698E0,2.837677737E0
1.140295789E1,-1.554158926E0,2.351411819E0,2.554593086E0,3.804010167E0
1.141117035E1,-1.771695375E0,3.021056175E0,3.483486176E0,4.939672140E0
1.141938381E1,-2.263974667E0,4.239112854E0,3.797835112E0,6.125292696E0
1.142759735E1,-2.544799328E0,5.501520157E0,3.369664192E0,6.935226343E0
1.143580900E1,-2.317039013E0,6.065729141E0,2.755735397E0,7.053780361E0
1.144402016E1,-1.920356274E0,5.736389160E0,2.137105942E0,6.415695646E0
1.145223162E1,-1.705474377E0,4.888514519E0,1.299020052E0,5.337946248E0
1.146044323E1,-1.412717342E0,3.578020096E0,5.855513811E-1,3.891126895E0
1.146865420E1,-1.196704268E0,2.026470184E0,-1.133522987E-1,2.356168767E0
1.147686950E1,-6.056016684E-1,5.483207703E-1,-4.122383595E-1,9.150680373E-1
1.148508142E1,-1.177136898E-1,-7.648649216E-1,-5.173854828E-1,9.308934412E-1
1.149329373E1,-4.025387764E-2,-1.623985767E0,-5.285742283E-1,1.708315212E0
1.150150566E1,-3.677954674E-1,-2.030341625E0,-4.048442841E-2,2.063782840E0
1.150971808E1,-9.775507450E-1,-2.174554825E0,7.731121778E-1,2.506391148E0
1.151793112E1,-1.736636639E0,-2.185336590E0,2.030561924E0,3.451779911E0
1.152614489E1,-1.875108480E0,-1.927112103E0,3.604824305E0,4.497171459E0
1.153435650E1,-2.084695339E0,-1.485017776E0,5.373623371E0,5.952063557E0
1.154259781E1,-1.700995445E0,-9.936418533E-1,5.504298687E0,5.846196513E0
1.155080954E1,-1.450331092E0,-7.283515930E-1,3.967596769E0,4.286698082E0
1.155902408E1,-1.102030396E0,-6.576089859E-1,1.593609571E0,2.046096782E0
1.156723585E1,-6.200091243E-1,-7.477359772E-1,-1.122820377E-1,9.778178060E-1
1.157544666E1,1.228727102E-1,-1.007275581E0,-8.929615021E-1,1.351695988E0
1.158367062E1,2.616224289E-1,-1.104043961E0,-6.304323673E-1,1.298000128E0
1.159188119E1,-1.742005348E-3,-1.097819328E0,2.055919170E-1,1.116905703E0
1.160009285E1,-2.508317828E-1,-9.938526154E-1,9.342153072E-1,1.386873406E0
1.160830462E1,-3.885625005E-1,-9.215793610E-1,1.304073453E0,1.643440570E0
1.161651804E1,-5.279365778E-1,-9.878072739E-1,1.704230309E0,2.039333515E0
1.162473177E1,-7.746514082E-1,-8.727264404E-1,1.579775095E0,1.964032992E0
1.163294304E1,-1.199691653E0,-9.525375366E-1,1.653304458E0,2.253886300E0
1.164115677E1,-1.348598599E0,-1.063522339E0,1.542374372E0,2.308401320E0
1.164936812E1,-1.357436657E0,-1.033954620E0,1.043900013E0,2.000355886E0
1.165757908E1,-1.529647112E0,-9.685640335E-1,1.039506435E0,2.087704530E0
1.166579081E1,-1.442432642E0,-8.192691803E-1,1.215754867E0,2.056665703E0
1.167400169E1,-1.128414869E0,-6.483182907E-1,1.268781900E0,1.817537959E0
1.168221404E1,-8.877138495E-1,-4.652519226E-1,1.231820822E0,1.588042118E0
1.169042562E1,-6.209019423E-1,-2.987070084E-1,1.061623335E0,1.265618111E0
1.169863762E1,-3.598406017E-1,2.255058289E-2,5.439302921E-1,6.525748617E-1
1.170685073E1,-4.466039240E-1,6.481294632E-1,-2.941083908E-2,7.876495817E-1
1.171506492E1,-6.663876772E-1,1.273312569E0,-7.461235523E-1,1.619289285E0
1.172328227E1,-5.427718163E-1,1.610920906E0,-1.267169476E0,2.120232508E0
1.173149573E1,1.211291552E-1,1.640624046E0,-1.606176138E0,2.299156654E0
1.173970712E1,5.773333311E-1,1.529353142E0,-1.426163197E0,2.169372322E0
1.174791873E1,5.717102289E-1,1.453135490E0,-1.077592850E0,1.897277441E0
1.175612966E1,6.866184473E-1,1.265199661E0,-5.390841961E-1,1.537135923E0
1.176436246E1,1.712559462E0,1.082308769E0,-1.964378357E-1,2.035396768E0
1.177257408E1,3.171914577E0,1.041741371E0,-2.818965912E-2,3.338721586E0
1.178078635E1,4.573260784E0,1.062290192E0,4.724464417E-1,4.718726554E0
1.178899889E1,5.370169640E0,1.090948105E0,8.844466209E-1,5.550777923E0
1.179721150E1,5.800850868E0,1.053764343E0,1.004491925E0,5.980743609E0
1.180542696E1,5.983445644E0,8.207693100E-1,6.429772377E-1,6.073607146E0
1.181363900E1,5.476994991E0,4.693470001E-1,1.770901680E-1,5.499920151E0
1.182185289E1,4.103763580E0,1.295385361E-1,-3.624377251E-1,4.121773509E0
1.183007904E1,2.729191065E0,-1.735897064E-1,-6.967053413E-1,2.822058750E0
1.183829100E1,1.985327840E0,-4.265298843E-1,-6.496813297E-1,2.132027252E0
1.184650439E1,1.846199155E0,-3.877820969E-1,-3.026919365E-1,1.910614739E0
1.185471731E1,1.658412933E0,5.780754089E-1,6.730961800E-2,1.757565140E0
1.186292958E1,1.088141441E0,2.330048561E0,3.244215250E-1,2.591992944E0
1.187117346E1,7.733262777E-1,4.340172768E0,4.643746614E-1,4.432919694E0
1.187938638E1,3.245111704E-1,5.807049751E0,5.806815624E-1,5.845025696E0
1.188760112E1,-2.620964050E-1,5.668333054E0,8.829342127E-1,5.742670716E0
1.189581277E1,-7.721296549E-1,3.593869209E0,1.463956594E0,3.956671456E0
1.190402485E1,-1.464131474E0,1.293601036E0,1.864996076E0,2.700980373E0
1.191223488E1,-2.063259602E0,-1.764097214E-1,2.084796190E0,2.938458053E0
1.192044754E1,-2.420743942E0,-9.001789093E-1,2.195959330E0,3.390067946E0
1.192866204E1,-2.672581196E0,-8.349494934E-1,1.967203736E0,3.421947025E0
1.193687219E1,-2.958266258E0,-2.782554626E-1,1.703915000E0,3.425214108E0
1.194508312E1,-3.010006905E0,3.385334015E-1,1.751059890E0,3.498707928E0
1.195329446E1,-2.864661455E0,7.785482407E-1,2.049925566E0,3.607577780E0
1.196150635E1,-2.379349470E0,1.085104942E0,2.737049341E0,3.785524499E0
1.196972258E1,-1.846832752E0,1.193763733E0,2.915614128E0,3.651940417E0
1.197793231E1,-1.493871450E0,1.161441803E0,2.824551821E0,3.399807636E0
1.198614265E1,-1.112277389E0,8.154392242E-1,2.093473911E0,2.506937401E0
1.199435273E1,-9.945985079E-1,3.555040359E-1,4.905227423E-1,1.164569393E0
1.200256469E1,-1.958911180E0,-1.416664124E-1,-8.410992622E-1,2.136551042E0
1.201077635E1,-3.042861700E0,-2.823381424E-1,-2.252740622E0,3.796519783E0
1.201898831E1,-3.490508080E0,-5.031299591E-1,-2.576413155E0,4.367458203E0
1.202720212E1,-4.162174702E0,-8.155498505E-1,-2.397144794E0,4.871870582E0
1.203544173E1,-4.227380753E0,-1.222650528E0,-1.770345092E0,4.743389514E0
1.204365377E1,-3.731347561E0,-1.631657600E0,-4.334191084E-1,4.095499148E0
1.205186931E1,-3.259408474E0,-1.759773254E0,1.137686372E0,3.874903326E0
1.206008285E1,-2.035523176E0,-1.849147320E0,2.807673454E0,3.930105678E0
1.206829562E1,-1.441878557E0,-1.589569092E0,3.971450329E0,4.514217694E0
1.207652127E1,-1.999954939E0,-1.054242134E0,3.746121645E0,4.375462674E0
1.208473500E1,-2.318544865E0,-7.869453430E-1,2.753129959E0,3.684380251E0
1.209295135E1,-2.544938326E0,-4.149208069E-1,9.925119877E-1,2.762960442E0
1.210116673E1,-2.977771044E0,-2.363071442E-1,-8.871295452E-1,3.116080918E0
1.210938150E1,-3.311709404E0,-1.851835251E-1,-2.299721241E0,4.036140471E0
1.211759596E1,-3.386644840E0,-3.343029022E-1,-3.035354137E0,4.560098293E0
1.212581000E1,-2.904527187E0,-6.627035141E-1,-3.377161503E0,4.503406927E0
1.213402658E1,-1.761924863E0,-9.074115753E-1,-3.146472454E0,3.718610479E0
1.214224185E1,-7.020438313E-1,-1.004119873E0,-2.543089390E0,2.822840042E0
1.215045400E1,8.078955114E-2,-9.694414139E-1,-1.711554408E0,1.968695532E0
1.215866677E1,6.489278674E-1,-6.853551865E-1,-6.327958107E-1,1.136331662E0
1.216687969E1,9.842238426E-1,-3.164682388E-1,3.332445621E-1,1.086232322E0
1.217509315E1,1.322924256E0,4.169654846E-2,1.004215360E0,1.661419778E0
1.218330562E1,1.627781868E0,6.115732193E-1,2.123506308E0,2.744626505E0
1.219151796E1,2.059082270E0,1.393860817E0,2.953033924E0,3.860450379E0
1.219976027E1,2.336667299E0,1.642738342E0,2.677447557E0,3.915013250E0
1.220797350E1,3.070081711E0,1.338768005E0,1.428827405E0,3.641325203E0
1.221619115E1,4.206551552E0,8.405246735E-1,9.445774555E-2,4.290743520E0
1.222440512E1,4.412389755E0,2.823638916E-1,-8.509428501E-1,4.502556657E0
1.223261750E1,4.104408741E0,-3.850936890E-3,-1.807196498E0,4.484656634E0
1.224082969E1,3.544272900E0,-1.251668930E-1,-2.154176950E0,4.149459660E0
1.224904042E1,2.712350130E0,-1.317214966E-1,-1.932482600E0,3.332969064E0
1.225725169E1,1.647166491E0,1.794605255E-1,-6.406780481E-1,1.776466124E0
1.226546235E1,5.189598799E-1,1.850948334E-1,5.930542946E-1,8.095016063E-1
1.227367323E1,2.506220937E-1,-1.899070740E-1,8.541786671E-1,9.102182847E-1
1.228188496E1,3.083374500E-1,-4.124927521E-1,3.407206535E-1,6.175053177E-1
1.229009634E1,3.258135319E-1,-4.229364395E-1,-2.199544907E-1,5.774163726E-1
1.229831258E1,1.483572125E-1,-2.640933990E-1,-7.830723524E-1,8.396174695E-1
1.230652565E1,2.921390533E-2,-1.197853088E-1,-1.328376174E0,1.334085916E0
1.231473777E1,1.832156181E-1,-1.318931580E-2,-1.964383960E0,1.972953690E0
1.232296419E1,5.329141021E-1,-5.174732208E-2,-2.642300606E0,2.696002173E0
1.233117758E1,7.518491745E-1,-5.115509033E-2,-2.932474852E0,3.027755403E0
1.233939311E1,7.185407877E-1,3.407192230E-2,-2.799521923E0,2.890464454E0
1.234760642E1,4.784870744E-1,1.794652939E-1,-2.537138700E0,2.588093982E0
1.235581954E1,4.989841580E-1,2.428121567E-1,-1.636006117E0,1.727558667E0
1.236406108E1,7.324867249E-1,5.084877014E-1,-4.534256458E-2,8.928339671E-1
1.237227461E1,9.803507328E-1,7.895593643E-1,1.103392124E0,1.673907324E0
1.238049000E1,1.083201051E0,9.091091156E-1,1.078484893E0,1.778463822E0
1.238870192E1,1.235593438E0,7.834100723E-1,-1.800700426E-1,1.474058244E0
1.239691438E1,1.602703094E0,3.619060516E-1,-1.494186401E0,2.220861590E0
1.240512888E1,2.005441666E0,-2.743177414E-1,-2.300004482E0,3.063832097E0
1.241334204E1,2.343253613E0,-9.070005417E-1,-2.715177536E0,3.699415701E0
1.242155685E1,2.440489292E0,-1.377565384E0,-2.714444160E0,3.901522968E0
1.242977269E1,2.525775433E0,-1.642388344E0,-2.500513554E0,3.915296801E0
1.243798923E1,2.469740391E0,-1.531250000E0,-2.176240921E0,3.630477752E0
1.244620454E1,2.307373524E0,-1.230697632E0,-1.847392559E0,3.201788329E0
1.245441873E1,2.119982004E0,-8.939790726E-1,-1.676177263E0,2.846593139E0
1.246263592E1,1.972891212E0,-5.928945541E-1,-1.649888396E0,2.639309646E0
1.247084908E1,1.874570847E0,-2.194976807E-1,-1.544725657E0,2.438928544E0
1.247906204E1,1.621776462E0,3.409347534E-1,-1.431914568E0,2.190154042E0
1.248727446E1,1.374612927E0,7.770729065E-1,-1.058298826E0,1.900894371E0
1.249548692E1,7.072130442E-1,1.201662064E0,-3.863219023E-1,1.446854041E0
1.250370042E1,4.343731105E-1,1.397645950E0,6.611318588E-1,1.605985534E0
1.251191281E1,2.578349710E-1,1.471484184E0,1.007878900E0,1.802100012E0
1.252012734E1,-3.000365496E-1,1.724586487E0,1.206660986E0,2.126088243E0
1.252837088E1,-6.200149059E-1,2.219382286E0,1.782049656E0,2.913035735E0
1.253658561E1,-1.059109211E0,2.656956673E0,2.817077875E0,4.014605689E0
1.254480504E1,-2.424770832E0,3.119795799E0,4.433303833E0,5.938587567E0
1.255301865E1,-3.608222008E0,3.835181236E0,5.940700531E0,7.938501368E0
1.256123134E1,-3.943984985E0,4.291165352E0,5.974788189E0,8.346688657E0
1.256945646E1,-3.128662825E0,4.471632957E0,4.478730202E0,7.059961515E0
1.257766834E1,-1.877931595E0,4.362569809E0,2.577522993E0,5.403912212E0
1.258588138E1,-1.492373466E0,4.299683571E0,9.231050611E-1,4.643983239E0
1.259409381E1,-1.543006301E0,3.773620605E0,1.916480064E-2,4.076941036E0
1.260230696E1,-1.879185915E0,2.889155388E0,-3.893146515E-1,3.468446980E0
1.261052000E1,-2.018208265E0,1.567702293E0,-5.165314674E-1,2.607232218E0
1.261873254E1,-1.610522509E0,2.715711594E-1,-2.882738113E-1,1.658503975E0
1.262694969E1,-1.200353146E0,-6.553440094E-1,8.067703247E-2,1.369975266E0
1.263516308E1,-8.542801142E-1,-1.613719940E0,5.677664280E-1,1.912131082E0
1.264337669E1,-1.209038854E0,-2.163577557E0,1.113620400E0,2.717166390E0
1.265159015E1,-1.826354146E0,-2.312346458E0,1.587258101E0,3.346924542E0
1.265980142E1,-2.183182716E0,-2.207874775E0,2.153039694E0,3.778435882E0
1.266801377E1,-2.412248373E0,-1.925526142E0,2.870516062E0,4.215027354E0
1.267622527E1,-2.453002930E0,-1.589710712E0,3.449486494E0,4.521433467E0
1.268443723E1,-2.087441921E0,-1.118893623E0,3.878438473E0,4.544405539E0
1.269267708E1,-2.148239851E0,-7.823333740E-1,3.727858067E0,4.373088809E0
1.270088838E1,-2.149513483E0,-6.630506516E-1,2.949566364E0,3.709445527E0
1.270910430E1,-1.935325027E0,-8.284730911E-1,1.697216630E0,2.704144025E0
1.271731719E1,-1.451040983E0,-1.018228531E0,9.963641167E-1,2.033482414E0
1.272552977E1,-8.023282290E-1,-1.105340958E0,7.407524586E-1,1.553777148E0
1.273374227E1,-3.998463154E-1,-1.084574699E0,7.467634678E-1,1.376166789E0
1.274195604E1,-5.787061453E-1,-9.296026230E-1,1.010748148E0,1.490192490E0
1.275017000E1,-1.029291630E0,-7.377834320E-1,1.252903819E0,1.781441448E0
1.275838196E1,-1.289829493E0,-5.893535614E-1,1.328071594E0,1.942877222E0
1.276659292E1,-1.616341710E0,-4.938774109E-1,1.268522382E0,2.113202417E0
1.277480315E1,-1.737703919E0,-4.157199860E-1,1.147801876E0,2.123649492E0
1.278301473E1,-1.678021789E0,-3.722457886E-1,1.222471595E0,2.109208584E0
1.279123077E1,-1.469229937E0,-2.438564301E-1,1.388710737E0,2.036325140E0
1.279944154E1,-1.174129725E0,1.490993500E-1,1.459600329E0,1.879160543E0
1.280765538E1,-8.018084168E-1,6.717357635E-1,1.542848706E0,1.864003166E0
1.281588284E1,-4.349844456E-1,1.197194099E0,1.565923929E0,2.018564572E0
1.282409750E1,-6.790316105E-2,1.651223183E0,1.329225063E0,2.120846083E0
1.283231211E1,5.747890472E-2,1.995316505E0,9.004068375E-1,2.189822882E0
1.284052730E1,1.957567930E-1,2.147562981E0,5.438792706E-1,2.223994636E0
1.284874080E1,4.280152321E-1,2.036164284E0,3.092954159E-1,2.103526963E0
1.285695492E1,7.433248162E-1,1.577482224E0,3.620591164E-1,1.781030250E0
1.286516819E1,1.052572012E0,1.011137009E0,2.622504234E-1,1.482929929E0
1.287338265E1,1.550210476E0,4.930467606E-1,7.562375069E-2,1.628485978E0
1.288159554E1,2.028441906E0,1.112995148E-1,-1.502466202E-2,2.031548643E0
1.288980827E1,2.307589769E0,-7.964134216E-2,2.089765072E-1,2.318401274E0
1.289802130E1,2.724770546E0,-3.094358444E-1,5.816957951E-1,2.803300745E0
1.290623384E1,3.003114700E0,-4.315958023E-1,9.005680084E-1,3.164805772E0
1.291444619E1,3.039005041E0,-3.976001740E-1,9.252356291E-1,3.201515033E0
1.292265784E1,2.891818285E0,-1.976518631E-1,6.120597124E-1,2.962481450E0
1.293086792E1,2.455293179E0,-9.777069092E-3,1.237652302E-1,2.458429990E0
1.293907950E1,1.660430670E0,6.794929504E-2,-4.428701401E-1,1.719820071E0
1.294729146E1,1.220687628E0,-5.523681641E-3,-8.972904682E-1,1.515004614E0
1.295550704E1,1.148404121E0,-1.919517517E-1,-1.196277618E0,1.669358452E0
1.296371677E1,1.393619776E0,-2.376222610E-1,-1.336549044E0,1.945508613E0
1.297192761E1,1.731807470E0,4.962787628E-1,-1.464076281E0,2.321415318E0
1.298014000E1,2.096814156E0,2.100589752E0,-1.323927164E0,3.249906160E0
1.298835227E1,2.477184296E0,4.633801460E0,-8.618991375E-1,5.324605913E0
1.299656492E1,2.610967159E0,7.180724144E0,-2.915064096E-1,7.646235984E0
1.300477661E1,1.507934570E0,8.575810432E0,1.071717024E0,8.773082048E0
1.301298857E1,-2.818713784E-1,8.265402794E0,3.034176826E0,8.809231739E0
1.302123215E1,-1.408120275E0,6.390622139E0,3.927857399E0,7.632228887E0
1.302944384E1,-1.580272436E0,3.813427925E0,3.479972363E0,5.399046319E0
1.303766054E1,-1.557367325E0,1.024703026E0,2.370683670E0,3.015883011E0
1.304587504E1,-1.650813460E0,-1.147275925E0,1.691319346E0,2.627163539E0
1.305408869E1,-1.955352068E0,-2.737318039E0,1.367764831E0,3.631403639E0
1.306231642E1,-2.299985647E0,-3.763011456E0,1.267747760E0,4.588831395E0
1.307053161E1,-2.511742115E0,-4.240251064E0,1.383518338E0,5.118857346E0
1.307874627E1,-2.632049561E0,-4.210883141E0,1.964585423E0,5.340301265E0
1.308696034E1,-2.917400837E0,-3.224945068E0,2.546122313E0,5.039269507E0
1.309517350E1,-3.114465237E0,-2.184312820E0,2.736442089E0,4.686067809E0
1.310338865E1,-3.323853493E0,-8.186740875E-1,2.442903280E0,4.205473307E0
1.311160361E1,-3.946553946E0,7.077569962E-1,1.469630003E0,4.270365366E0
1.311982027E1,-4.081630707E0,2.146398544E0,-6.402461529E-1,4.655819055E0
1.312803630E1,-4.187958717E0,2.910533905E0,-1.737074375E0,5.387729876E0
1.313625200E1,-4.343561172E0,3.003789902E0,-2.002957106E0,5.648107170E0
1.314446784E1,-4.530243874E0,2.120038986E0,-1.134105206E0,5.128729811E0
1.315268357E1,-4.484848976E0,8.991746902E-1,4.139086008E-1,4.592788455E0
1.316089900E1,-3.540401936E0,-3.214492798E-1,1.807716489E0,3.988184350E0
1.316911396E1,-2.393375397E0,-1.520837784E0,2.708632231E0,3.921464257E0
1.317732842E1,-1.321743369E0,-2.217551231E0,2.877231121E0,3.865617405E0
1.318557311E1,-1.244820833E0,-2.121747971E0,1.956363440E0,3.143048085E0
1.319378773E1,-1.319307804E0,-1.636019230E0,8.748668432E-1,2.276515758E0
1.320200665E1,-1.880027056E0,-9.716577530E-1,2.954959869E-2,2.116481443E0
1.321021996E1,-2.209892750E0,-4.543313980E-1,-5.067193508E-1,2.312316476E0
1.321843273E1,-2.433542252E0,-5.991363525E-2,-8.412668705E-1,2.575547996E0
1.322664811E1,-2.614222765E0,2.213850021E-1,-9.983336926E-1,2.807105653E0
1.323486161E1,-2.633517265E0,4.040985107E-1,-1.001771450E0,2.846446000E0
1.324307642E1,-2.594914675E0,4.667091370E-1,-9.093178511E-1,2.788952947E0
1.325128996E1,-1.944340229E0,2.869434357E-1,-4.582914114E-1,2.018124495E0
1.325950373E1,-1.148165584E0,3.491401672E-3,9.339451790E-2,1.151963078E0
1.326771746E1,-4.933670163E-1,-1.946601868E-1,4.225487709E-1,6.781231930E-1
1.327593242E1,9.127032012E-2,-2.312803268E-1,5.228656530E-1,5.789726695E-1
1.328415119E1,6.977761984E-1,-1.692342758E-1,4.586423635E-1,8.519886624E-1
1.329236469E1,1.215473890E0,-2.408981323E-3,5.867018700E-1,1.349667242E0
1.330057903E1,1.617071152E0,2.607173920E-1,8.272976875E-1,1.835024286E0
1.330880557E1,2.019144535E0,4.237842560E-1,7.388762236E-1,2.191455184E0
1.331701873E1,2.234790802E0,3.950357437E-1,4.594134092E-1,2.315470546E0
1.332523296E1,2.480181217E0,2.262773514E-1,1.772416830E-1,2.496780912E0
1.333344480E1,2.367595911E0,1.258487701E-1,8.478569984E-2,2.372453777E0
1.334165923E1,2.091804028E0,1.194229126E-1,1.299000978E-1,2.099233183E0
1.334987465E1,1.612454295E0,1.054668427E-1,7.044672966E-2,1.617434651E0
1.335808992E1,9.566290975E-1,1.131696701E-1,9.851968288E-2,9.683247039E-1
1.336630857E1,5.305582285E-1,-4.683685303E-2,1.711752415E-1,5.594521319E-1
1.337452188E1,1.269001365E-1,-1.242160797E-1,2.026340961E-1,2.694324702E-1
1.338273442E1,-1.619115770E-1,-2.233028412E-2,9.218430519E-2,1.876484652E-1
1.339094819E1,-3.607058227E-1,1.400823593E-1,-4.025077820E-2,3.890396934E-1
1.339916176E1,-4.717923105E-1,3.505153656E-1,1.613872051E-1,6.095037619E-1
1.340737434E1,-6.662725806E-1,4.205875397E-1,4.270099401E-1,8.961866542E-1
1.341558750E1,-8.357658982E-1,2.317466736E-1,1.323726177E-1,8.773446685E-1
1.342380050E1,-8.385699391E-1,-1.914596558E-2,-4.997397661E-1,9.763738755E-1
1.343201400E1,-7.635961771E-1,-2.073945999E-1,-1.041464925E0,1.307952916E0
1.344022953E1,-5.982863903E-1,-3.637380600E-1,-1.511722445E0,1.666000220E0
1.344844730E1,-1.339417100E-1,-2.966222763E-1,-1.737247825E0,1.767471403E0
