"Time (s)","Linear Acceleration x (m/s^2)","Linear Acceleration y (m/s^2)","Linear Acceleration z (m/s^2)","Absolute acceleration (m/s^2)"
3.144309200E-2,-4.651486874E-2,3.904027939E-1,5.201137066E-2,3.965894063E-1
3.965620700E-2,1.377631426E-1,3.331403732E-1,3.331813812E-1,4.908879959E-1
4.786993800E-2,2.485630512E-1,2.869853973E-1,4.707607031E-1,6.047808267E-1
5.608316800E-2,2.840988636E-1,3.525943756E-1,4.504432678E-1,6.386971861E-1
6.433513000E-2,2.822725177E-1,4.993028641E-1,3.354314566E-1,6.644511919E-1
7.254851500E-2,2.740505934E-1,7.360248566E-1,2.146602869E-1,8.141961410E-1
8.077113000E-2,2.950487137E-1,1.077228546E0,1.389967203E-1,1.125519956E0
8.898328400E-2,2.820364833E-1,1.459982872E0,2.226853371E-1,1.503556891E0
9.719516800E-2,2.828089297E-1,1.985457420E0,4.849301577E-1,2.063293318E0
1.054446300E-1,2.507077456E-1,2.626113892E0,1.020792484E0,2.828665028E0
1.136564760E-1,4.045602083E-1,3.032853127E0,9.566329718E-1,3.205778173E0
1.218898990E-1,5.591140389E-1,3.299305916E0,5.277197361E-1,3.387700718E0
1.301277450E-1,8.386141658E-1,3.614873886E0,4.200130701E-1,3.734567968E0
1.383785530E-1,1.059859633E0,3.844129562E0,-3.562927246E-1,4.003445896E0
1.466162830E-1,1.593018055E0,3.871705055E0,-5.239461660E-1,4.219280287E0
1.548308220E-1,2.134846449E0,3.943445206E0,-8.363716602E-1,4.561561904E0
1.630768990E-1,2.411549091E0,3.410966873E0,-1.307465076E0,4.377182765E0
1.712912830E-1,2.805611134E0,2.167174339E0,-1.651896834E0,3.911120249E0
1.795055530E-1,2.785616875E0,4.869480133E-1,-9.737266302E-1,2.990806462E0
1.877598600E-1,1.788321257E0,-1.251051903E0,-1.622205973E-1,2.188501611E0
1.959725140E-1,9.309542179E-2,-3.017169952E0,-1.940078437E-1,3.024833933E0
2.041862450E-1,-1.316207170E0,-4.638196468E0,-4.923226237E-1,4.846405819E0
2.124260140E-1,-2.095158339E0,-5.838763237E0,-6.820067167E-1,6.240671259E0
2.206395910E-1,-2.344948292E0,-6.820157528E0,-5.505774021E-1,7.233012282E0
2.288784370E-1,-2.362833977E0,-7.287468910E0,-4.759204984E-1,7.675720672E0
2.370920520E-1,-2.052621365E0,-7.010026932E0,-2.399238646E-1,7.308303190E0
2.453062060E-1,-1.650936365E0,-5.707788944E0,3.152031302E-1,5.950109119E0
2.535203600E-1,-1.317091107E0,-4.317553043E0,1.043382049E0,4.632994644E0
2.617345520E-1,-8.451178670E-1,-2.960707664E0,1.715905666E0,3.524818625E0
2.699917450E-1,-3.096399307E-1,-1.745867252E0,2.069905519E0,2.725516136E0
2.782059750E-1,-2.984660268E-1,-1.270332336E-1,1.775633574E0,1.805019113E0
2.864184750E-1,-4.001694918E-1,1.566845894E0,1.010153294E0,1.906712184E0
2.946570520E-1,-8.678398132E-1,3.101675034E0,5.008556843E-1,3.259507689E0
3.028697060E-1,-1.166981697E0,4.182194710E0,-4.966205359E-1,4.370266677E0
3.111077060E-1,-1.352579832E0,4.544510841E0,-9.375022650E-1,4.833317855E0
3.193213600E-1,-1.523245573E0,4.052123070E0,-9.911264181E-1,4.440980750E0
3.275649370E-1,-1.965188265E0,3.132695198E0,-1.122163415E0,3.864582105E0
3.357797440E-1,-1.886912227E0,1.747439384E0,-1.183858514E0,2.831166391E0
3.439928600E-1,-1.049736738E0,6.356306076E-1,-9.716727138E-1,1.565286348E0
3.522469750E-1,7.030010223E-2,-4.268178940E-1,-7.410848737E-1,8.580923080E-1
3.604610900E-1,9.654638767E-1,-7.831974030E-1,-3.435282707E-1,1.289779183E0
3.686939750E-1,1.609131455E0,-6.747131348E-1,4.440212250E-2,1.745426425E0
3.769343980E-1,1.785009146E0,-1.617527008E-2,-1.524841785E-2,1.785147558E0
3.851480520E-1,1.787987232E0,5.828399658E-1,-1.325306892E-1,1.885249361E0
3.934048980E-1,1.689260721E0,1.371622086E0,-4.392981529E-2,2.176437171E0
4.016183210E-1,1.740337133E0,1.269540787E0,-5.846211910E-1,2.232104183E0
4.098308210E-1,1.743461132E0,5.355358124E-1,-8.507662416E-1,2.012525409E0
4.180703210E-1,1.915364861E0,5.973606110E-1,-2.568497658E-1,2.022729358E0
4.262835130E-1,1.988776922E0,7.712945938E-1,-1.756727695E-2,2.133175475E0
4.345013590E-1,2.035483837E0,8.083429337E-1,1.782568693E-1,2.197359384E0
4.427130130E-1,2.341713667E0,5.596141815E-1,3.848105669E-1,2.438210430E0
4.509392440E-1,2.666566372E0,2.634878159E-1,1.876611710E-1,2.686115925E0
4.591526280E-1,2.880424976E0,7.196807861E-2,6.824636459E-2,2.882132026E0
4.673656280E-1,3.209073544E0,-1.296777725E-1,5.253744125E-2,3.212122276E0
4.756118980E-1,3.303810120E0,-3.343200684E-1,-1.431221962E-1,3.323765211E0
4.838241670E-1,2.812005997E0,-1.772527695E-1,-3.228545189E-1,2.836023856E0
4.920356280E-1,3.146382570E0,-1.945104599E-1,-1.887526512E-1,3.158035016E0
5.002723590E-1,3.010275364E0,-1.547307968E-1,-3.474854231E-1,3.034212502E0
5.085112440E-1,2.896894455E0,-6.881904602E-2,-3.239378929E-1,2.915762216E0
5.167493970E-1,2.624848604E0,6.329441071E-2,-1.996060610E-1,2.633187984E0
5.249615900E-1,2.039994001E0,2.571096420E-1,-2.142734528E-1,2.067267280E0
5.331860900E-1,1.625443459E0,4.608163834E-1,-1.637187004E-1,1.697416269E0
5.413988970E-1,1.384290099E0,5.565652847E-1,4.277229309E-3,1.491992724E0
5.496108200E-1,1.193014860E0,6.632461548E-1,-6.674885750E-3,1.364999807E0
5.578570900E-1,1.097628951E0,6.403579712E-1,-1.522343159E-1,1.279852700E0
5.660724740E-1,1.073583722E0,6.034727097E-1,-2.776161432E-1,1.262470611E0
5.742867050E-1,8.640079498E-1,5.764751434E-1,-5.003879070E-1,1.152918638E0
5.825268970E-1,5.901907682E-1,6.154527664E-1,-4.622704983E-1,9.699491039E-1
5.907650510E-1,2.353831530E-1,5.957469940E-1,-2.893098593E-1,7.028654951E-1
5.990039740E-1,-1.922509670E-1,6.341972351E-1,-1.081323624E-1,6.714604792E-1
6.072162820E-1,-5.279884338E-1,5.821809769E-1,4.609513283E-2,7.872936157E-1
6.154479360E-1,-7.324123383E-1,5.107717514E-1,1.153186560E-1,9.003410508E-1
6.236602430E-1,-8.675669432E-1,3.832960129E-1,-6.690967083E-2,9.508234002E-1
6.318720890E-1,-7.809100151E-1,2.743730545E-1,-1.632480621E-1,8.436533379E-1
6.401176280E-1,-5.386855602E-1,1.555347443E-1,-3.062783480E-1,6.388893612E-1
6.483293200E-1,-1.182978153E-1,2.441692352E-2,-1.784667969E-1,2.155016400E-1
6.565423580E-1,2.720261216E-1,-7.067871094E-2,2.952301502E-2,2.826044930E-1
6.647814740E-1,2.944900393E-1,-9.153652191E-2,1.724905968E-1,3.533501438E-1
6.730223200E-1,1.136348248E-1,-1.924705505E-2,2.598305941E-1,2.842450706E-1
6.812635890E-1,-1.502646208E-1,7.418155670E-2,2.065690756E-1,2.659946289E-1
6.894768970E-1,-3.562049866E-1,1.334896088E-1,-4.057610035E-2,3.825544249E-1
6.977008970E-1,-4.543361664E-1,1.467447281E-1,-2.487721443E-1,5.383706410E-1
7.059145890E-1,-4.071844816E-1,1.836814880E-1,-3.243515491E-1,5.520344360E-1
7.141274350E-1,-2.988682985E-1,1.488885880E-1,-2.980815172E-1,4.475965398E-1
7.223746270E-1,-2.348471880E-1,1.382513046E-1,-2.209868431E-1,3.508586749E-1
7.305873580E-1,-1.834394932E-1,9.205245972E-2,-1.676796675E-1,2.650286284E-1
7.388024740E-1,-4.633617401E-2,1.276273727E-1,-1.549632549E-1,2.060325161E-1
7.470430500E-1,-5.793261528E-2,4.352378845E-2,-2.057729959E-1,2.181582773E-1
7.552829350E-1,-1.308382750E-1,1.498985291E-2,-3.353101015E-1,3.602446586E-1
7.635239730E-1,-1.895225048E-1,4.687404633E-2,-3.314893246E-1,3.847091477E-1
7.717390890E-1,-1.274099350E-1,5.766963959E-2,-2.542606592E-1,2.901853919E-1
7.799657810E-1,-1.313920021E-1,1.175699234E-1,-1.785837412E-1,2.509555692E-1
7.881793960E-1,-3.053975105E-2,1.875505447E-1,-9.372282028E-2,2.118769696E-1
7.963918580E-1,7.010364532E-2,1.740388870E-1,-7.259941101E-2,2.011833238E-1
8.046389350E-1,1.258086562E-1,1.153707504E-1,-1.364525557E-1,2.185349583E-1
8.128508960E-1,1.943573952E-1,1.454925537E-1,-2.149791718E-1,3.242821681E-1
8.210985500E-1,8.718323708E-2,1.496801376E-1,-3.686649799E-1,4.073314717E-1
8.293373580E-1,7.622134686E-2,2.068443298E-1,-4.635103941E-1,5.132603199E-1
8.375754730E-1,5.226612091E-3,2.547454834E-1,-5.381349325E-1,5.954089220E-1
8.458127810E-1,-1.376390457E-3,3.482780457E-1,-5.754106045E-1,6.726045311E-1
8.540251270E-1,9.889006615E-3,4.394721985E-1,-5.536872149E-1,7.069675647E-1
8.622577810E-1,3.147351742E-2,5.307874680E-1,-5.237100124E-1,7.463230504E-1
8.704704730E-1,1.270640492E-1,5.767927170E-1,-5.173251629E-1,7.851499444E-1
8.786848580E-1,2.536596656E-1,6.539440155E-1,-5.480558872E-1,8.901411444E-1
8.869339730E-1,3.001171350E-1,7.815294266E-1,-6.205399036E-1,1.042078841E0
8.951472420E-1,3.219550252E-1,8.493518829E-1,-7.318323851E-1,1.166461443E0
9.033617040E-1,3.736773133E-1,8.862295151E-1,-8.849515915E-1,1.306972382E0
9.116019340E-1,4.958422780E-1,9.305963516E-1,-9.463999271E-1,1.416877538E0
9.198420500E-1,7.049761415E-1,1.066612244E0,-9.058573246E-1,1.566917525E0
9.280820500E-1,8.338718414E-1,1.237174988E0,-8.674720526E-1,1.725819214E0
9.362954340E-1,9.083607197E-1,1.415997505E0,-9.453659058E-1,1.929736984E0
9.445211650E-1,9.248668551E-1,1.648889542E0,-1.135445237E0,2.205323402E0
9.527345500E-1,9.223058224E-1,1.943459511E0,-1.896317363E0,2.867699852E0
9.609483570E-1,9.053910375E-1,2.171474457E0,-3.181641579E0,3.957003586E0
9.691894730E-1,6.291380525E-1,2.283179283E0,-3.352394819E0,4.104543014E0
9.774040500E-1,6.557470560E-2,2.141799927E0,-2.165809393E0,3.046692845E0
9.856461260E-1,-2.932118177E-1,1.871222496E0,-5.269744396E-1,1.965998184E0
9.938856650E-1,-4.774698615E-1,1.495234489E0,4.066033363E-1,1.621428358E0
1.002125896E0,-5.470167994E-1,9.948768616E-1,1.246135235E-1,1.142162807E0
1.010343473E0,-7.061407566E-1,5.797328949E-1,-1.145695686E0,1.465381726E0
1.018556319E0,-8.722066283E-1,4.344940186E-1,-2.414407492E0,2.603630732E0
1.026771896E0,-9.790403843E-1,3.927011490E-1,-3.046968222E0,3.224399108E0
1.034984357E0,-1.037367940E0,4.768180847E-1,-3.102881908E0,3.306261312E0
1.043198972E0,-1.004086256E0,5.665721893E-1,-2.962297678E0,3.178742013E0
1.051438319E0,-9.204238653E-1,6.024799347E-1,-2.686761856E0,2.903248428E0
1.059651472E0,-8.000780940E-1,6.783304214E-1,-2.403156281E0,2.622101681E0
1.067866088E0,-6.049910188E-1,7.583999634E-1,-2.127088070E0,2.337881155E0
1.076106626E0,-4.104518890E-1,1.024822235E0,-1.685247660E0,2.014644148E0
1.084347934E0,-2.741900086E-1,1.439235687E0,-1.068388343E0,1.813293461E0
1.092583318E0,-3.264937401E-1,1.893261909E0,-5.298167467E-1,1.992923633E0
1.100800703E0,-5.744995475E-1,2.319120407E0,-2.003833055E-1,2.397607696E0
1.109036511E0,-9.980177879E-1,2.711149216E0,-2.105590105E-1,2.896671309E0
1.117252895E0,-1.335233450E0,2.894566536E0,-3.603795767E-1,3.207995829E0
1.125470011E0,-1.617691517E0,2.879049301E0,-5.363179445E-1,3.345666998E0
1.133706203E0,-1.677979708E0,2.516189575E0,-4.872436523E-1,3.063369428E0
1.141922241E0,-1.505475044E0,1.673930168E0,-2.970458269E-1,2.270844235E0
1.150156087E0,-1.302245378E0,6.121816635E-1,-9.018921852E-2,1.441784835E0
1.158396357E0,-1.008926392E0,-4.738082886E-1,2.447379827E-1,1.141193865E0
1.166639395E0,-9.700871110E-1,-1.441509247E0,1.130142212E-1,1.741203643E0
1.174866126E0,-1.106400013E0,-2.308120251E0,-1.093124866E0,2.783246675E0
1.183082164E0,-1.296850204E0,-2.318781853E0,-2.599169254E0,3.716752688E0
1.191331703E0,-1.152734399E0,-1.721471310E0,-3.593026161E0,4.147541086E0
1.199545856E0,-1.028473139E0,-2.448520660E-1,-4.620814800E0,4.740215074E0
1.207759856E0,-4.432432652E-1,1.456010818E0,-4.863732815E0,5.096305425E0
1.215993202E0,1.810942292E-1,2.402437210E0,-3.083714485E0,3.913284387E0
1.224207433E0,9.029027820E-1,2.483017921E0,-7.530713081E-1,2.747312837E0
1.232421049E0,8.367667198E-1,2.213547707E0,1.179994345E0,2.644306837E0
1.240661356E0,2.839940786E-1,2.016512871E0,2.752910614E0,3.424250815E0
1.248902087E0,-7.447206974E-2,2.022068977E0,3.192886114E0,3.780056981E0
1.257128510E0,3.498828411E-2,1.860137939E0,3.342607975E0,3.825488911E0
1.265344087E0,4.425581694E-1,1.529709816E0,3.245757818E0,3.615358028E0
1.273562818E0,9.593803883E-1,1.045209885E0,3.600456953E0,3.869904999E0
1.281779895E0,1.714005828E0,3.831176758E-1,4.058078289E0,4.421831581E0
1.289995433E0,2.180338860E0,-3.460788727E-2,4.421581268E0,4.930056405E0
1.298238125E0,2.160526037E0,-1.112880707E-1,4.412627220E0,4.914421306E0
1.306450971E0,2.043503761E0,-3.285083771E-1,4.223869801E0,4.703711457E0
1.314692087E0,2.050151587E0,-5.048475266E-1,3.454978228E0,4.049057558E0
1.322967894E0,2.588739634E0,-6.651287079E-1,1.472260952E0,3.051478560E0
1.331208664E0,3.015952349E0,-8.264999390E-1,2.220806479E-1,3.135026401E0
1.339449010E0,3.157280445E0,-1.112296104E0,-4.505598545E-1,3.377665853E0
1.347661817E0,2.656805038E0,-1.183093071E0,-1.681510448E0,3.359434419E0
1.355893971E0,2.025067806E0,-1.123779297E0,-2.119798422E0,3.139637698E0
1.364131779E0,1.709368467E0,-1.182808876E0,-1.137727261E0,2.369683674E0
1.372369856E0,1.487712860E0,-1.233901978E0,3.758415282E-1,1.969025266E0
1.380600163E0,1.159922242E0,-1.316852570E0,1.554893374E0,2.344613764E0
1.388813548E0,9.614564180E-1,-1.295010567E0,1.969387293E0,2.545572062E0
1.397029625E0,8.514842987E-1,-1.235087395E0,1.744342804E0,2.300695156E0
1.405241009E0,9.186284542E-1,-1.091913223E0,1.276125908E0,1.914327573E0
1.413452394E0,1.184212685E0,-1.021415710E0,9.475572109E-1,1.828527934E0
1.421691240E0,1.477818012E0,-1.126651764E0,8.786725402E-1,2.055567004E0
1.429904202E0,1.727916241E0,-1.309121132E0,5.869434476E-1,2.245884076E0
1.438116009E0,1.888228059E0,-1.492300510E0,3.734125495E-1,2.435529295E0
1.446355240E0,1.979157209E0,-1.659798145E0,6.113548875E-1,2.654382780E0
1.454594971E0,2.083742619E0,-1.771086216E0,9.258103371E-1,2.887187986E0
1.462820394E0,2.127065897E0,-1.495296955E0,1.135300040E0,2.837116229E0
1.471034317E0,2.073064327E0,-9.497680664E-1,9.123742580E-1,2.456029697E0
1.479255894E0,1.950978637E0,-2.491378784E-1,1.920642257E-1,1.976177115E0
1.487471048E0,1.853154182E0,4.029455185E-1,-3.390759230E-1,1.926530040E0
1.495686701E0,1.329590082E0,1.163071632E0,-1.000996590E0,2.030403798E0
1.503920278E0,8.902227879E-1,1.729025841E0,-2.037385225E0,2.816552063E0
1.512132855E0,3.039035797E-1,1.941352844E0,-2.599509716E0,3.258628395E0
1.520345509E0,-3.452219963E-1,1.813860893E0,-3.057335377E0,3.571633964E0
1.528585355E0,-9.288995266E-1,1.045454979E0,-3.332215071E0,3.613791322E0
1.536824701E0,-1.492352247E0,1.803731918E-1,-3.340989590E0,3.663585833E0
1.545056278E0,-1.782280445E0,-5.058069229E-1,-2.881598949E0,3.425781186E0
1.553269740E0,-1.833519697E0,-8.137807846E-1,-1.878555655E0,2.748273093E0
1.561486278E0,-1.580140829E0,-8.349218369E-1,-5.711868405E-1,1.876217983E0
1.569699624E0,-9.301187992E-1,-6.018209457E-1,6.627750397E-1,1.290960954E0
1.577912086E0,-1.569938660E-1,-4.039297104E-1,1.330670476E0,1.399460682E0
1.586135778E0,4.017074108E-1,-2.719049454E-1,1.453790426E0,1.532582052E0
1.594349355E0,8.643406630E-1,-2.006244659E-1,1.124991417E0,1.432808657E0
1.602582778E0,1.114241242E0,-1.513738632E-1,6.047771573E-1,1.276794033E0
1.610821932E0,1.073567510E0,3.218650818E-3,1.856296062E-1,1.089502597E0
1.619061470E0,7.503449917E-1,2.276916504E-1,-4.258739948E-2,7.852864323E-1
1.627291278E0,3.804595470E-1,4.144315720E-1,-2.024482489E-1,5.979032432E-1
1.635504124E0,1.065864563E-1,4.891080856E-1,-5.025904775E-1,7.093550452E-1
1.643756470E0,-3.713488579E-2,4.706726074E-1,-1.013446808E0,1.118027788E0
1.651970162E0,1.617026329E-2,3.680677414E-1,-1.652415037E0,1.692988717E0
1.660183932E0,3.024864197E-1,1.279497147E-1,-2.216238499E0,2.240442422E0
1.668425239E0,7.482134104E-1,-1.785726547E-1,-2.523756266E0,2.638381547E0
1.676639085E0,1.100150585E0,-5.371131897E-1,-2.414687872E0,2.707312211E0
1.684852470E0,1.349565268E0,-9.332294464E-1,-1.971343994E0,2.564847121E0
1.693094085E0,1.468799472E0,-1.330774307E0,-1.253633738E0,2.345192890E0
1.701337124E0,1.525299788E0,-1.731873989E0,-5.488859415E-1,2.372172577E0
1.709569508E0,1.566436291E0,-2.172297955E0,2.620273829E-1,2.690958826E0
1.717782239E0,1.547998905E0,-2.385520935E0,1.012049913E0,3.018485675E0
1.725995816E0,1.475004196E0,-2.374230862E0,1.684008598E0,3.263203108E0
1.734209047E0,1.128982306E0,-1.305227280E0,2.427784443E0,2.978650130E0
1.742424008E0,5.161212683E-1,1.424033165E0,3.620935440E0,3.924974532E0
1.750659393E0,-1.081631184E-1,4.566118240E0,4.741895199E0,6.583821468E0
1.758874508E0,-3.088150024E-1,6.792772293E0,4.929224491E0,8.398474636E0
1.767088970E0,2.955129147E-1,8.165381432E0,4.403159618E0,9.281626820E0
1.775330200E0,1.268612623E0,8.809738159E0,3.441111565E0,9.542647076E0
1.783571739E0,2.892282724E0,8.790726662E0,1.816327214E0,9.430865239E0
1.791798546E0,4.816946983E0,7.036201477E0,-6.369547844E-1,8.550837436E0
1.800013200E0,8.232905388E0,4.025007248E0,-1.256600285E1,1.555267958E1
1.808259123E0,5.782154083E0,4.349231720E-1,-1.889599228E1,1.976565173E1
1.816474354E0,4.008959770E0,-2.686628342E0,-8.202168465E0,9.516580153E0
1.824688969E0,3.772149801E0,-3.071873188E0,1.402196527E0,5.062773361E0
1.832922162E0,2.995786667E0,-2.624945641E0,7.335515499E0,8.347147118E0
1.841138085E0,1.051536202E0,-2.632050514E0,1.022602558E1,1.061155113E1
1.849372315E0,-2.726495266E-1,-3.300279617E0,9.013162613E0,9.602254090E0
1.857616046E0,-1.113809228E0,-4.040153503E0,6.406782627E0,7.655734776E0
1.865858508E0,-1.758930087E0,-4.187569141E0,3.346573114E0,5.641730406E0
1.874083469E0,-2.171136856E0,-3.503509521E0,1.915109158E0,4.544893541E0
1.882297546E0,-2.060712337E0,-2.402346134E0,7.952131033E-1,3.263459233E0
1.890512700E0,-1.178783059E0,-1.008290291E0,3.793646693E-1,1.596902115E0
1.898725854E0,2.442439795E-1,4.312210083E-1,3.922645748E-1,6.320428594E-1
1.906939084E0,1.587603450E0,1.781949997E0,4.307315350E-1,2.425151575E0
1.915171315E0,2.046175718E0,2.315259933E0,3.942413330E-1,3.114914101E0
1.923384815E0,2.381896496E0,2.391221046E0,5.613230467E-1,3.421469359E0
1.931597815E0,2.745131731E0,1.765539169E0,5.470347404E-1,3.309399309E0
1.939837546E0,2.616804123E0,5.816907883E-1,7.417981625E-1,2.781419153E0
1.948077892E0,2.086959839E0,-3.340740204E-1,1.335333347E0,2.500024394E0
1.956329354E0,1.068291426E0,-7.280473709E-1,2.211285591E0,2.561461206E0
1.964543430E0,1.332200170E-1,-9.118452072E-1,2.914111614E0,3.056346799E0
1.972794700E0,-5.746139884E-1,-8.332748413E-1,3.221570492E0,3.376839444E0
1.981008700E0,-1.010495901E0,-6.606845856E-1,3.056242466E0,3.286065139E0
1.989221661E0,-1.028814793E0,-5.217971802E-1,2.365333557E0,2.631641125E0
1.997463084E0,-6.441021562E-1,-4.671850204E-1,1.515658259E0,1.711826332E0
2.005678623E0,-1.720261574E-2,-4.846906662E-1,6.391299963E-1,8.023142302E-1
2.013892392E0,5.261012316E-1,-5.282335281E-1,2.834269404E-2,7.460673391E-1
2.022132469E0,7.668228149E-1,-6.116189957E-1,-2.961668968E-1,1.024602292E0
2.030373546E0,6.601561308E-1,-5.907068253E-1,-3.791540861E-1,9.635862657E-1
2.038607122E0,4.232755899E-1,-4.509716034E-1,-1.638163328E-1,6.398229466E-1
2.046821122E0,6.608062983E-2,-2.956075668E-1,1.712701917E-1,3.479712082E-1
2.055036853E0,-2.465573549E-1,-8.427333832E-2,4.517785907E-1,5.215327601E-1
2.063249622E0,-4.882593155E-1,4.354858398E-2,5.627217293E-1,7.462904146E-1
2.071460968E0,-5.352003574E-1,1.998329163E-1,4.074559212E-1,7.017071645E-1
2.079707353E0,-5.273402333E-1,2.693738937E-1,3.170108795E-2,5.930050382E-1
2.087919430E0,-2.772033215E-1,1.493883133E-1,-3.917955756E-1,5.026552722E-1
2.096151853E0,-1.805549860E-2,5.521774292E-3,-7.154259086E-1,7.156750112E-1
2.104393161E0,2.581936717E-1,-1.927709579E-1,-9.488377571E-1,1.002056737E0
2.112634468E0,2.923080623E-1,-3.132667542E-1,-1.027692318E0,1.113432334E0
2.120874007E0,2.939580977E-1,-2.621612549E-1,-8.746463060E-1,9.592424341E-1
2.129086276E0,2.435603142E-1,-1.426372528E-1,-6.074822545E-1,6.698520001E-1
2.137306391E0,3.042134643E-1,6.183528900E-2,-3.641881943E-1,4.785420312E-1
2.145518930E0,3.931764662E-1,2.381658554E-1,-2.519625425E-1,5.242097205E-1
2.153731084E0,5.142221451E-1,5.198822021E-1,-3.688914776E-1,8.190133337E-1
2.161976584E0,6.616423130E-1,7.249231339E-1,-8.588240147E-1,1.304171303E0
2.170189045E0,8.939696550E-1,9.275484085E-1,-1.483280540E0,1.964598929E0
2.178401891E0,1.004644871E0,1.011222839E0,-1.674076438E0,2.198730285E0
2.186662083E0,1.019473672E0,1.110412598E0,-1.305895090E0,1.994418384E0
2.194901930E0,8.798428774E-1,1.140649796E0,-7.315976620E-1,1.615685794E0
2.203145429E0,6.775592566E-1,9.230728149E-1,-2.429819107E-1,1.170551228E0
2.211361545E0,-7.900297642E-2,8.077182770E-1,-9.339237213E-2,8.169286508E-1
2.219580545E0,-4.041647315E-1,9.204053879E-1,-2.462286949E-1,1.034951100E0
2.227795929E0,-3.786636889E-1,1.165250778E0,-6.634306908E-1,1.393318286E0
2.236011160E0,-3.108165860E-1,1.454878807E0,-1.270707488E0,1.956521611E0
2.244253814E0,-2.534990013E-1,1.732738495E0,-1.865633726E0,2.558756267E0
2.252468352E0,-2.835270464E-1,1.842712402E0,-2.019888878E0,2.748804770E0
2.260694814E0,-3.720308840E-1,1.802490234E0,-1.821179628E0,2.589222521E0
2.268934929E0,-6.195728779E-1,1.614388466E0,-1.439328194E0,2.249841399E0
2.277176237E0,-8.746675253E-1,1.275488853E0,-1.270012975E0,2.001211646E0
2.285409545E0,-9.418990612E-1,1.087130547E0,-1.372256279E0,1.987992445E0
2.293623160E0,-9.277603626E-1,1.025589943E0,-1.553488493E0,2.079879929E0
2.301845660E0,-8.198473454E-1,1.093526840E0,-1.719257474E0,2.196314386E0
2.310062237E0,-7.324382067E-1,1.171535492E0,-1.686291456E0,2.180032112E0
2.318278891E0,-7.468165755E-1,1.187709808E0,-1.441940308E0,2.011860193E0
2.326531275E0,-7.031807899E-1,1.297057152E0,-9.164247513E-1,1.736851981E0
2.334747967E0,-5.712164640E-1,1.637221336E0,-3.701486588E-1,1.773074162E0
2.342983121E0,-6.845084429E-1,2.116096497E0,-1.236751080E-1,2.227490005E0
2.351226044E0,-1.221506238E0,2.371546745E0,-3.151164055E-1,2.686188713E0
2.359469275E0,-1.992243767E0,2.487537384E0,-7.242994308E-1,3.268254447E0
2.367697198E0,-2.510926723E0,2.498161316E0,-8.383828402E-1,3.639841859E0
2.375913506E0,-2.727552652E0,2.490358353E0,-7.918914557E-1,3.777369491E0
2.384130890E0,-2.691596985E0,2.562412262E0,-7.326352596E-1,3.787796900E0
2.392347275E0,-2.971911192E0,2.484130859E0,-1.145275593E0,4.039160611E0
2.400563544E0,-3.185877800E0,2.172378540E0,-1.835987449E0,4.270819101E0
2.408800083E0,-2.962879181E0,9.143838882E-1,-2.031648397E0,3.707067055E0
2.417016698E0,-2.686628580E0,-7.218799591E-1,-1.457067132E0,3.140402590E0
2.425232736E0,-2.944480419E0,-2.102817059E0,-2.615670204E0,4.464698773E0
2.433474506E0,-3.219963551E0,-2.004950047E0,-4.015053272E0,5.523462930E0
2.441716544E0,-2.562793255E0,-1.030038834E0,-4.828663826E0,5.562812563E0
2.449949621E0,-3.564033508E-1,8.019618988E-1,-4.538468838E0,4.622538872E0
2.458166044E0,1.426665068E0,2.392521858E0,-2.867020607E0,3.997416818E0
2.466413275E0,1.302109003E0,3.109221458E0,-5.414558649E-1,3.414076799E0
2.474668005E0,4.061088562E-1,3.377379417E0,1.752718449E0,3.826700680E0
2.482882544E0,1.010800600E-1,3.654623985E0,3.288136005E0,4.917146738E0
2.491115621E0,3.582704067E-1,3.848296165E0,3.897154093E0,5.488674802E0
2.499331159E0,7.718474269E-1,4.091199875E0,4.135023594E0,5.867885905E0
2.507548313E0,1.163152814E0,4.114724159E0,3.898336172E0,5.786268598E0
2.515791198E0,1.696774364E0,3.630160332E0,3.937090874E0,5.617632226E0
2.524035159E0,2.660515785E0,2.857024193E0,4.246579647E0,5.768394073E0
2.532265890E0,3.925436497E0,1.628243446E0,4.553891182E0,6.228816365E0
2.540483351E0,4.851072311E0,5.908718109E-1,4.349666595E0,6.542295588E0
2.548701044E0,5.232404709E0,-1.988515854E-1,3.580360651E0,6.343231304E0
2.556918390E0,4.722764969E0,-5.705127716E-1,2.933141708E0,5.588677308E0
2.565135928E0,3.688537359E0,-6.797771454E-1,1.961785555E0,4.232730488E0
2.573376620E0,2.766840219E0,-7.399053574E-1,1.056275487E0,3.052635360E0
2.581594197E0,3.012189865E0,-8.081789017E-1,-3.270876408E-2,3.118895764E0
2.589830851E0,3.370079041E0,-1.048544884E0,-6.707254648E-1,3.592596799E0
2.598072582E0,3.668653965E0,-1.325827599E0,-5.960892439E-1,3.946158020E0
2.606314274E0,3.678397417E0,-1.441035271E0,5.637120605E-1,3.990609164E0
2.614549428E0,3.245417356E0,-1.468126297E0,2.034960747E0,4.102340050E0
2.622768889E0,2.444271088E0,-1.497911930E0,2.430976391E0,3.758702903E0
2.631023466E0,2.030264616E0,-1.630048752E0,2.082027912E0,3.333747677E0
2.639239582E0,2.001207352E0,-1.853437424E0,1.519940734E0,3.122543992E0
2.647455466E0,2.172988892E0,-2.039411545E0,9.862436652E-1,3.139069407E0
2.655689428E0,2.423171520E0,-2.054498196E0,8.322755694E-1,3.284114139E0
2.663905966E0,2.833188534E0,-1.980111599E0,1.185140610E0,3.654087776E0
2.672122697E0,3.164169312E0,-1.894391537E0,1.769876003E0,4.090617043E0
2.680367235E0,3.362392902E0,-2.014062881E0,2.039009333E0,4.418109820E0
2.688609966E0,3.807394028E0,-2.408889771E0,2.138513803E0,4.987207685E0
2.696835389E0,4.267431736E0,-2.865607738E0,2.056484222E0,5.536407562E0
2.705052081E0,4.402611732E0,-3.194347858E0,1.847715616E0,5.744641095E0
2.713313851E0,4.156919956E0,-3.296858311E0,1.736407757E0,5.582505722E0
2.721529812E0,3.897214413E0,-3.221653938E0,1.589125156E0,5.300250281E0
2.729745197E0,3.616784811E0,-2.813507080E0,1.329257488E0,4.771150797E0
2.737979120E0,3.312796831E0,-2.144654274E0,9.635484815E-1,4.062338055E0
2.746194197E0,3.199627161E0,-1.167195320E0,2.824605703E-1,3.417563878E0
2.754409389E0,2.705749035E0,8.159351349E-2,-5.023764372E-1,2.753201305E0
2.762652350E0,1.453179359E0,1.460124016E0,-1.760665417E0,2.709914224E0
2.770876235E0,2.421348095E-1,2.611420631E0,-3.310731411E0,4.223634626E0
2.779102889E0,-7.324151993E-1,3.546196938E0,-4.381641388E0,5.684252457E0
2.787317889E0,-1.324842453E0,3.829748154E0,-4.820880890E0,6.297862415E0
2.795562235E0,-1.738690138E0,3.431645393E0,-4.707829475E0,6.079711496E0
2.803775812E0,-1.913662195E0,2.446173668E0,-3.863387108E0,4.956977764E0
2.811988927E0,-2.083128452E0,1.426623344E0,-2.883864880E0,3.832930336E0
2.820243158E0,-2.399609089E0,3.448915482E-1,-1.714171648E0,2.969083764E0
2.828458850E0,-2.516460657E0,-2.727556229E-1,-5.816656351E-1,2.597172459E0
2.836695119E0,-2.559702158E0,-2.999811172E-1,2.475022376E-1,2.589077281E0
2.844937966E0,-2.443460941E0,-5.121612549E-2,7.012407780E-1,2.542609504E0
2.853161389E0,-2.340288162E0,4.849138260E-1,8.241895437E-1,2.528117581E0
2.861395350E0,-2.220277786E0,1.248244286E0,2.537539303E-1,2.559714496E0
2.869611312E0,-2.326472282E0,1.568905830E0,-8.300135732E-1,2.926236716E0
2.877827350E0,-2.249937534E0,1.269038200E0,-1.709287405E0,3.097473211E0
2.886043427E0,-1.849171400E0,4.505748749E-1,-1.963158846E0,2.734308914E0
2.894259235E0,-1.199294567E0,-8.104858398E-1,-1.827881336E0,2.331597078E0
2.902495811E0,-5.092413425E-1,-2.101411343E0,-1.455813527E0,2.606654830E0
2.910711273E0,1.474597454E-1,-2.959940434E0,-8.664692640E-1,3.087678858E0
2.918928465E0,4.681550264E-1,-2.156456947E0,1.345084906E-1,2.210784528E0
2.927171696E0,8.575054407E-1,-1.654939651E-1,1.636438012E0,1.854894391E0
2.935394657E0,9.587407112E-1,2.218586922E0,3.184833765E0,3.998059253E0
2.943621581E0,1.099171162E0,4.847469330E0,4.051831722E0,6.412758880E0
2.951836619E0,1.365893602E0,7.430553436E0,3.712512732E0,8.417929703E0
2.960084350E0,1.910893083E0,9.736041069E0,2.624999285E0,1.026316858E1
2.968300196E0,3.515887737E0,9.683574677E0,6.851906180E-1,1.032485212E1
2.976515811E0,5.082515717E0,5.889960289E0,-9.642264247E-1,7.839217487E0
2.984749773E0,5.426726818E0,2.299455643E0,-1.793539286E0,6.160652837E0
2.992965273E0,4.957865238E0,-2.496662140E-1,-3.706251621E0,6.195083697E0
3.001181311E0,2.875206947E0,-2.138476372E0,-5.417893410E0,6.495649712E0
3.009423849E0,2.043926001E0,-2.874813080E0,-1.630326390E0,3.885890873E0
3.017648849E0,1.874448776E0,-3.118163586E0,2.451259613E0,4.386932419E0
3.025878580E0,1.656820536E0,-3.289979935E0,4.942207813E0,6.163963037E0
3.034095580E0,1.253506660E0,-3.696400166E0,5.355638027E0,6.627028883E0
3.042313311E0,1.136885405E0,-3.957593441E0,4.921666145E0,6.416997110E0
3.050529772E0,1.160045147E0,-3.524998665E0,4.075137138E0,5.511629798E0
3.058746503E0,9.760084152E-1,-2.292757511E0,3.213239431E0,4.066231311E0
3.066989003E0,9.515010118E-1,-7.690935135E-1,2.616947651E0,2.888818792E0
3.075205926E0,9.458333254E-1,5.172128677E-1,1.966407776E0,2.242514074E0
3.083443042E0,1.256878376E0,1.629280090E0,1.174529552E0,2.369349391E0
3.091685349E0,1.794441223E0,2.450847626E0,4.223412275E-1,3.066764663E0
3.099909080E0,2.431457043E0,2.646005630E0,-1.859272569E-1,3.598318787E0
3.108135234E0,2.811817169E0,1.878108025E0,-4.569772780E-1,3.412101080E0
3.116349772E0,2.847912788E0,8.368225098E-1,-3.805857301E-1,2.992611679E0
3.124597080E0,2.466577530E0,3.214168549E-2,-1.801225841E-1,2.473354391E0
3.132813387E0,1.744147062E0,-3.613243103E-1,1.553202271E-1,1.787939766E0
3.141030464E0,8.753799796E-1,-3.966331482E-1,6.173437834E-1,1.142243980E0
3.149272234E0,1.317317486E-1,-4.022922516E-1,1.216036797E0,1.287609335E0
3.157489041E0,-5.638781786E-1,-4.816894531E-1,1.895635843E0,2.035538892E0
3.165705464E0,-1.050775766E0,-5.515403748E-1,2.302103043E0,2.589981644E0
3.173947695E0,-1.224818468E0,-7.249631882E-1,2.304032087E0,2.708194189E0
3.182171541E0,-1.138721228E0,-8.850879669E-1,2.052913904E0,2.508888647E0
3.190404118E0,-7.343686223E-1,-1.063058853E0,1.484452248E0,1.967991330E0
3.198620080E0,-1.537739635E-1,-1.148240089E0,7.824126482E-1,1.397952534E0
3.206838810E0,1.877884865E-1,-9.030017853E-1,3.198498487E-1,9.762072862E-1
3.215055156E0,3.363381028E-1,-5.013456345E-1,9.650671482E-2,6.113790237E-1
3.223273656E0,2.533447146E-1,-1.080999374E-1,-1.469826698E-2,2.758354219E-1
3.231518426E0,-1.801854372E-2,1.452245712E-1,5.904412270E-2,1.578006731E-1
3.239736041E0,-3.515884280E-1,2.657089233E-1,2.744672298E-1,5.191800409E-1
3.247952695E0,-6.157064438E-1,2.196035385E-1,4.442939162E-1,7.903905510E-1
3.256197541E0,-6.769864559E-1,2.082633972E-2,6.173029542E-1,9.164100257E-1
3.264423733E0,-5.556824207E-1,-2.400150299E-1,6.700648665E-1,9.029823324E-1
3.272668964E0,-2.760248184E-1,-4.267530441E-1,4.805796146E-1,6.994745364E-1
3.280887425E0,-3.762513399E-2,-5.442705154E-1,1.171778440E-1,5.580113725E-1
3.289113579E0,7.449799776E-2,-4.534215927E-1,-2.431622744E-1,5.198740079E-1
3.297330348E0,1.353967190E-1,-2.687406540E-1,-4.816127419E-1,5.678949232E-1
3.305546502E0,1.207547784E-1,1.247978210E-2,-5.435503721E-1,5.569420692E-1
3.313795694E0,9.713995457E-2,2.680158615E-1,-4.696130157E-1,5.493678706E-1
3.322011618E0,1.110481024E-1,4.280996323E-1,-2.664811611E-1,5.163459939E-1
3.330246348E0,9.212857485E-2,5.476284027E-1,-6.749820709E-2,5.594108952E-1
3.338488271E0,1.323873401E-1,5.811395645E-1,9.297895432E-2,6.032368417E-1
3.346711887E0,2.424294353E-1,5.246887207E-1,2.855223417E-1,6.446652560E-1
3.354955156E0,2.718172073E-1,4.653539658E-1,2.152161598E-1,5.803075935E-1
3.363170002E0,2.237959802E-1,4.194698334E-1,-4.850637913E-2,4.779042275E-1
3.371396656E0,9.093731642E-2,3.319711685E-1,-4.250463247E-1,5.469358558E-1
3.379611963E0,-5.719470978E-2,2.964687347E-1,-7.749698758E-1,8.317110399E-1
3.387826002E0,-1.089127660E-1,3.085050583E-1,-1.069609165E0,1.118526320E0
3.396074848E0,-3.338927031E-2,3.804588318E-1,-1.184512138E0,1.244561277E0
3.404290310E0,4.400610924E-2,4.694404602E-1,-1.091541767E0,1.189022419E0
3.412504886E0,7.903087139E-2,5.252189636E-1,-8.384956121E-1,9.925601896E-1
3.420746502E0,4.565253854E-2,5.618686676E-1,-5.841903687E-1,8.118244519E-1
3.428970963E0,-4.678630829E-2,6.507844925E-1,-3.601088524E-1,7.452434501E-1
3.437214963E0,-2.014579177E-1,7.602367401E-1,-3.144015074E-1,8.469908509E-1
3.445432386E0,-3.013453186E-1,8.539638519E-1,-4.145191908E-1,9.959364543E-1
3.453653617E0,-3.490148187E-1,9.271488190E-1,-6.581420898E-1,1.189355828E0
3.461868732E0,-3.145985901E-1,1.027910233E0,-9.626078606E-1,1.442978036E0
3.470083540E0,-3.182823360E-1,1.099252701E0,-1.279706478E0,1.716772791E0
3.478330732E0,-4.180870950E-1,1.110635757E0,-1.636132717E0,2.021197386E0
3.486544002E0,-5.781111717E-1,1.115237236E0,-1.914776683E0,2.290051607E0
3.494757155E0,-7.316009998E-1,1.046435356E0,-2.153760433E0,2.503787327E0
3.502997809E0,-8.158959150E-1,9.834766388E-1,-2.411964893E0,2.729558039E0
3.511218578E0,-8.312151432E-1,9.384431839E-1,-2.450774670E0,2.752796888E0
3.519452078E0,-8.697278500E-1,9.350547791E-1,-2.151794434E0,2.502193689E0
3.527666732E0,-9.987685680E-1,1.097056389E0,-1.535232782E0,2.134949898E0
3.535894232E0,-1.183633685E0,1.691206932E0,-8.314003944E-1,2.225397988E0
3.544108347E0,-1.538273931E0,2.384984016E0,-5.879335403E-1,2.898292824E0
3.552321232E0,-2.059836388E0,2.927431107E0,-6.826554537E-1,3.644008411E0
3.560555770E0,-2.440837383E0,3.060106277E0,-7.990144491E-1,3.995042134E0
3.568769886E0,-2.514854908E0,2.633783340E0,4.081691504E-1,3.664411542E0
3.577003847E0,-2.511050701E0,2.093931198E0,9.904090166E-1,3.416260164E0
3.585243732E0,-2.580693007E0,2.136288643E0,-2.308259010E-1,3.358122415E0
3.593463501E0,-3.036354303E0,2.475040436E0,-3.145357609E0,5.023798075E0
3.601688001E0,-3.892511606E0,2.432276726E0,-6.656100750E0,8.085251627E0
3.609901155E0,-2.609603405E0,1.757567406E0,-6.202339649E0,6.954717122E0
3.618151693E0,-7.325273156E-1,7.320909500E-1,-3.176242352E0,3.340818598E0
3.626365078E0,3.942891359E-1,3.413200378E-1,-1.785375476E-1,5.512158804E-1
3.634578001E0,4.115547538E-1,2.894830704E-1,1.504102707E0,1.586033643E0
3.642823193E0,1.651357412E-1,8.521499634E-1,1.713259459E0,1.920595570E0
3.651035693E0,-3.826681972E-1,1.762689590E0,1.425168514E0,2.298829014E0
3.659247847E0,-4.563356042E-1,2.334797859E0,1.658380032E0,2.899956475E0
3.667487732E0,-2.486898303E-1,2.766847610E0,2.186683655E0,3.535375190E0
3.675707347E0,8.523482084E-2,2.940675735E0,2.854507923E0,4.099152868E0
3.683931770E0,4.584311545E-1,2.934496880E0,4.044050694E0,5.017546918E0
3.692145270E0,9.791683555E-1,2.606555939E0,4.965402603E0,5.692813675E0
3.700358578E0,1.555019855E0,2.007687569E0,5.165706158E0,5.756163326E0
3.708571655E0,1.914199591E0,1.159466743E0,5.140032768E0,5.606109173E0
3.716785039E0,2.290619612E0,1.621055603E-2,5.022774696E0,5.520458916E0
3.725018347E0,2.379293919E0,-9.480514526E-1,4.559376717E0,5.229508309E0
3.733232116E0,1.900105238E0,-1.411049843E0,3.624761820E0,4.329013724E0
3.741447385E0,1.515901446E0,-1.805893421E0,3.264243603E0,4.026722556E0
3.749686501E0,1.253388166E0,-1.854388237E0,3.376440048E0,4.050936315E0
3.757907847E0,1.100681305E0,-1.858229160E0,3.439031601E0,4.060967040E0
3.766133116E0,9.686956406E-1,-1.684360981E0,3.434586048E0,3.946115112E0
3.774346462E0,1.110216260E0,-1.533152580E0,3.509597778E0,3.987532262E0
3.782565347E0,1.502854466E0,-1.524333954E0,3.485373020E0,4.090231123E0
3.790779193E0,2.015980721E0,-1.535223961E0,3.003800631E0,3.929873930E0
3.798992693E0,2.268984318E0,-1.522451401E0,2.282836437E0,3.560546349E0
3.807232846E0,2.334050179E0,-1.498130798E0,1.432311177E0,3.121490258E0
3.815444923E0,2.526835442E0,-1.327423096E0,-5.046986341E-1,2.898563461E0
3.823676500E0,2.971120358E0,-8.178215027E-1,-4.116801739E0,5.142416236E0
3.831913462E0,3.487399101E0,-4.153652191E-1,-4.271297455E0,5.529779625E0
3.840133923E0,3.730514288E0,-2.009668350E-1,-2.339003563E0,4.407727554E0
3.848364269E0,3.574579239E0,4.987430573E-2,-3.343911171E-1,3.590532217E0
3.856576654E0,3.121020079E0,3.260173798E-1,1.506183386E0,3.480753087E0
3.864790654E0,2.583872318E0,5.457916260E-1,3.208357811E0,4.155459601E0
3.873001000E0,2.012765646E0,5.071401596E-1,3.708437920E0,4.249815113E0
3.881212346E0,1.803368807E0,1.926059723E-1,2.947331905E0,3.460635993E0
3.889448885E0,2.015854836E0,-4.115867615E-2,1.732568145E0,2.658412521E0
3.897661346E0,2.121305466E0,-2.175073624E-1,8.145412207E-1,2.282700973E0
3.905874846E0,1.889209628E0,-1.436433792E-1,2.256264687E-1,1.908049722E0
3.914112808E0,1.461589694E0,-5.971145630E-2,1.300615072E-1,1.468579548E0
3.922332808E0,7.691144347E-1,6.717777252E-2,1.595621109E-1,7.883590134E-1
3.930561808E0,2.095695734E-1,7.480716705E-2,3.918988109E-1,4.506663914E-1
3.938775115E0,-5.753062963E-1,1.560163498E-1,8.228272796E-1,1.016052739E0
3.947028577E0,-1.359589815E0,4.206161499E-1,7.263287306E-1,1.597797182E0
3.955242500E0,-2.165959835E0,8.636569977E-1,-3.322858810E-1,2.355355456E0
3.963456730E0,-2.929703474E0,1.277297974E0,-1.528880835E0,3.542898413E0
3.971691038E0,-3.529990673E0,1.475728989E0,-2.394518137E0,4.513571458E0
3.979906884E0,-4.252617359E0,1.299097061E0,-2.829021454E0,5.270272286E0
3.988124615E0,-4.977088928E0,8.317222595E-1,-2.668025017E0,5.708023617E0
3.996367923E0,-5.240660191E0,-5.779266357E-2,-1.799424767E0,5.541280422E0
4.004593269E0,-4.699562073E0,-1.175049782E0,-2.853674889E-1,4.852634364E0
4.012845115E0,-3.628936768E0,-2.071931362E0,1.711606741E0,4.515714702E0
4.021060346E0,-2.591160774E0,-2.437698364E0,3.025675058E0,4.670245928E0
4.029275115E0,-1.490002394E0,-2.522358894E0,3.520149708E0,4.579722207E0
4.037488807E0,-5.769752264E-1,-2.420102596E0,3.595100164E0,4.372018090E0
4.045704807E0,4.464149475E-3,-2.244449615E0,3.353298426E0,4.035118875E0
4.053941153E0,5.438950062E-1,-1.862786293E0,2.732152939E0,3.351186989E0
4.062156115E0,9.704083800E-1,-1.408464432E0,2.097967625E0,2.706830736E0
4.070388615E0,1.397359133E0,-9.101810455E-1,1.447136045E0,2.207995655E0
4.078627461E0,1.832950830E0,-3.248119354E-1,6.784490347E-1,1.981288629E0
4.086848345E0,2.091883898E0,3.499927521E-1,-2.402703762E-1,2.134526416E0
4.095071422E0,2.322449923E0,1.001500130E0,-1.089181423E0,2.753741514E0
4.103286922E0,1.862993479E0,1.392921448E0,-1.385516882E0,2.707513969E0
4.111537499E0,6.879189014E-1,1.178121567E0,-1.396803617E0,1.952501776E0
4.119752345E0,6.467068195E-2,6.664009094E-1,-1.751502633E0,1.875109048E0
4.127966499E0,-1.351990700E-1,1.009035110E-1,-1.623917580E0,1.632656918E0
4.136205845E0,6.003803015E-2,-3.759174347E-1,-7.011712193E-1,7.978468284E-1
4.144420307E0,3.944664001E-1,-6.925659180E-1,4.382809997E-1,9.095831607E-1
4.152635422E0,7.586533427E-1,-8.678846359E-1,1.358809114E0,1.781892489E0
4.160876922E0,1.005011201E0,-6.981248856E-1,1.932925701E0,2.287712315E0
4.169097076E0,8.426997066E-1,-3.006563187E-1,2.518213511E0,2.672440140E0
4.177327730E0,6.720823646E-1,2.069091797E-1,3.319396019E0,3.393065877E0
4.185540653E0,5.512447357E-1,5.755844116E-1,4.010289192E0,4.088714661E0
4.193752499E0,3.837742805E-1,1.001766205E0,4.656911850E0,4.778874994E0
4.201964960E0,3.778352737E-1,1.435678482E0,4.719051361E0,4.947057504E0
4.210176960E0,7.330658436E-1,1.664186478E0,4.537998199E0,4.888796357E0
4.218409691E0,1.075406075E0,1.840430260E0,4.513296127E0,4.991344879E0
4.226622806E0,1.071909428E0,2.306943893E0,4.357215405E0,5.045424267E0
4.234835383E0,1.026165605E0,2.526817322E0,4.056179047E0,4.887781714E0
4.243075845E0,1.035202026E0,2.322559357E0,3.451973438E0,4.287428812E0
4.251297268E0,1.193272591E0,1.739363670E0,2.791467667E0,3.498796534E0
4.259538383E0,1.418714404E0,9.900484085E-1,2.181570053E0,2.784276263E0
4.267752499E0,1.667278051E0,3.762474060E-1,1.627353191E0,2.360011996E0
4.275996883E0,1.804961205E0,5.385017395E-2,9.540490508E-1,2.042301247E0
4.284209498E0,1.875257373E0,5.361938477E-2,3.047150970E-1,1.900609519E0
4.292422152E0,1.898848534E0,2.295627594E-1,-2.583299875E-1,1.930041242E0
4.300659960E0,1.714756727E0,4.837036133E-1,-8.541533947E-1,1.975838516E0
4.308872421E0,1.119544744E0,7.038526535E-1,-1.589372039E0,2.067581309E0
4.317106652E0,3.610404730E-1,5.811948776E-1,-1.755196452E0,1.883839774E0
4.325346806E0,-9.919279814E-2,2.275657654E-2,-9.655731916E-1,9.709215526E-1
4.333568191E0,-2.208519280E-1,-5.179510117E-1,2.506459057E-1,6.163377277E-1
4.341800152E0,-3.771194816E-1,-1.006326675E0,1.856616259E0,2.145212440E0
4.350013575E0,-8.756328821E-1,-1.145023346E0,2.917650461E0,3.254304168E0
4.358227267E0,-1.322586894E0,-1.011152267E0,3.198324680E0,3.605682427E0
4.366440844E0,-1.632553816E0,-6.248216629E-1,3.074021339E0,3.536275055E0
4.374654075E0,-1.785919666E0,-2.995395660E-2,2.440535784E0,3.024338143E0
4.382896421E0,-1.979668617E0,5.454511642E-1,1.306591272E0,2.433882816E0
4.391109190E0,-2.111039400E0,1.005512238E0,8.709582686E-2,2.339899120E0
4.399322537E0,-2.215371847E0,1.257140160E0,-6.415402889E-1,2.626756126E0
4.407562460E0,-2.314244747E0,1.338961601E0,-9.245131612E-1,2.829005391E0
4.415781652E0,-2.352026224E0,1.232001305E0,-7.428811789E-1,2.757122961E0
4.424011690E0,-2.413288593E0,1.008015633E0,-4.829840362E-1,2.659573449E0
4.432225421E0,-2.558784246E0,6.380853653E-1,-1.718368530E-1,2.642736774E0
4.440474767E0,-2.714092493E0,1.818828583E-1,1.232551932E-1,2.722971039E0
4.448687459E0,-2.933059931E0,-1.454010010E-1,2.576028705E-1,2.947938474E0
4.456901882E0,-3.031231880E0,-2.864274979E-1,1.509004831E-1,3.048471482E0
4.465150998E0,-2.714918613E0,-1.932907104E-1,-2.557367086E-2,2.721910797E0
4.473363882E0,-2.024541378E0,-1.908588409E-2,-8.540859818E-2,2.026432010E0
4.481576575E0,-1.849229574E0,2.459888458E-1,-6.267479062E-2,1.866571365E0
4.489813228E0,-2.072682142E0,5.302467346E-1,1.573842764E-1,2.145213899E0
4.498033498E0,-2.352994204E0,6.445264816E-1,4.996677339E-1,2.490314027E0
4.506271959E0,-2.528934479E0,5.863533020E-1,9.135065675E-1,2.752056330E0
4.514483305E0,-2.367214918E0,4.274473190E-1,1.417966485E0,2.792319221E0
4.522698459E0,-2.174139738E0,2.419881821E-1,1.709916592E0,2.776554813E0
4.530910882E0,-1.756875873E0,1.299858093E-3,1.849451780E0,2.550899137E0
4.539124305E0,-1.324780822E0,-2.801017761E-1,2.003455877E0,2.418126689E0
4.547363882E0,-1.135800958E0,-3.411350250E-1,2.101619720E0,2.413135382E0
4.555576882E0,-1.225967407E0,-2.703323364E-1,2.248834133E0,2.575525308E0
4.563811228E0,-1.440281272E0,-1.204185486E-1,2.438822746E0,2.834919251E0
4.572052267E0,-1.624603510E0,8.217716217E-2,2.585261583E0,3.054450377E0
4.580273420E0,-1.647700548E0,1.482791901E-1,2.749819517E0,3.209113770E0
4.588512690E0,-1.706831336E0,1.951961517E-1,2.891179800E0,3.363078260E0
4.596724767E0,-1.830526710E0,3.259229660E-1,2.897324324E0,3.442606868E0
4.604944497E0,-2.159391403E0,4.734859467E-1,2.901518345E0,3.647734760E0
4.613155882E0,-2.559006691E0,5.349950790E-1,2.861864805E0,3.876210152E0
4.621368151E0,-2.822544575E0,5.703754425E-1,2.720670700E0,3.961582396E0
4.629615113E0,-3.073470354E0,5.150165558E-1,2.618062973E0,4.070100220E0
4.637827266E0,-3.293346643E0,4.790325165E-1,2.696858883E0,4.283532666E0
4.646039536E0,-3.362884998E0,4.192657471E-1,2.873437881E0,4.443132289E0
4.654279189E0,-3.341518164E0,3.476142883E-1,3.154797554E0,4.608614427E0
4.662502420E0,-3.171352386E0,2.712059021E-1,3.450546741E0,4.694390420E0
4.670743920E0,-2.870296001E0,2.929525375E-1,3.757996559E0,4.737822122E0
4.678958882E0,-2.599694490E0,4.295959473E-1,3.807244778E0,4.630127095E0
4.687184535E0,-2.081441402E0,4.153804779E-1,3.562596083E0,4.146930202E0
4.695399420E0,-1.762207270E0,3.221225739E-1,3.300933123E0,3.755701918E0
4.703614612E0,-1.549809337E0,2.910614014E-1,2.970521688E0,3.363127238E0
4.711864381E0,-1.493402243E0,2.072868347E-1,2.862514734E0,3.235306584E0
4.720080305E0,-1.433191895E0,7.558059692E-2,2.872149944E0,3.210762641E0
4.728295574E0,-1.366909981E0,-8.008480072E-2,2.929810047E0,3.233982589E0
4.736535228E0,-1.253758073E0,-2.860078812E-1,3.106370211E0,3.362029997E0
4.744756766E0,-9.685507417E-1,-5.230045319E-1,3.204731703E0,3.388499604E0
4.752995651E0,-5.694675446E-1,-8.030357361E-1,3.266258717E0,3.411393510E0
4.761209920E0,-1.861924380E-1,-1.018339157E0,3.507855177E0,3.657421251E0
4.769429689E0,3.106359839E-1,-1.279008865E0,3.799665451E0,4.021170965E0
4.777642727E0,8.175684214E-1,-1.460487366E0,3.875582933E0,4.221561861E0
4.785855073E0,1.250759721E0,-1.390335083E0,3.643441439E0,4.095375079E0
4.794093035E0,1.351386309E0,-1.022892952E0,2.941821575E0,3.395124317E0
4.802306189E0,1.315151215E0,-3.726234436E-1,2.318929911E0,2.691822223E0
4.810537304E0,1.181864381E0,3.879041672E-1,1.973977804E0,2.333208398E0
4.818777804E0,9.527961016E-1,1.502798080E0,1.543297291E0,2.355416950E0
4.827054458E0,7.518012524E-1,2.794921875E0,1.155624866E0,3.116450263E0
4.835286881E0,6.770046353E-1,3.919374466E0,5.642892718E-1,4.017244561E0
4.843500112E0,6.902121902E-1,4.681657791E0,1.128733158E-3,4.732263075E0
4.851712766E0,5.947311521E-1,4.925852776E0,-9.279314876E-1,5.047651687E0
4.859926342E0,3.377639353E-1,4.058215141E0,-2.421319962E0,4.737719384E0
4.868139573E0,-1.690557152E-1,2.468768120E0,-5.286010742E0,5.836549103E0
4.876373573E0,-6.120897532E-1,1.081608772E0,-5.738558769E0,5.871591620E0
4.884587150E0,-7.468692064E-1,2.400407791E-1,-5.779243708E-1,9.743868664E-1
4.892800727E0,-1.342172384E0,3.210449219E-2,2.376191378E0,2.729238515E0
4.901040612E0,-2.818391562E0,1.974678040E-1,1.144530654E0,3.048323301E0
4.909260804E0,-3.207351685E0,3.090076447E-1,1.138218999E0,3.417328349E0
4.917495458E0,-2.199005365E0,2.712707520E-1,1.209586859E0,2.524344031E0
4.925708804E0,-1.099613070E0,2.159681320E-1,1.564445972E0,1.924391421E0
4.933956996E0,-3.108898103E-1,2.077093124E-1,1.972746849E0,2.007865972E0
4.942170304E0,2.046552896E-1,2.365379333E-1,2.067843914E0,2.091366165E0
4.950381496E0,4.039560556E-1,4.094934464E-1,2.038504362E0,2.118104202E0
4.958620265E0,-1.320578158E-3,8.018903732E-1,2.692037106E0,2.808931059E0
4.966833880E0,-1.708816141E-1,9.628591537E-1,3.260115385E0,3.403623158E0
4.975048650E0,2.307926267E-1,7.582788467E-1,3.352485180E0,3.444910583E0
4.983289880E0,5.115703344E-1,4.106740952E-1,3.173839331E0,3.240927879E0
4.991509803E0,6.950129271E-1,-2.185764313E-1,2.276620388E0,2.390359600E0
4.999750188E0,5.733730793E-1,-6.454868317E-1,1.812587738E0,2.007706215E0
5.007964303E0,4.631460607E-1,-8.409242630E-1,1.742860794E0,1.989779294E0
5.016189303E0,1.730617285E-1,-6.145591736E-1,1.866617441E0,1.972788385E0
5.024403073E0,-2.035881877E-1,-2.549810410E-1,1.672712326E0,1.704238835E0
5.032616726E0,-4.120976925E-1,3.215379715E-1,1.620229244E0,1.702455280E0
5.040866880E0,-2.363165617E-1,5.782814026E-1,1.421425104E0,1.552644269E0
5.049079034E0,2.819048166E-1,6.149969101E-1,1.321316481E0,1.484442241E0
5.057311149E0,8.729928136E-1,4.957218170E-1,1.382878304E0,1.708861895E0
5.065553226E0,1.652520180E0,1.362457275E-1,1.571160316E0,2.284279007E0
5.073775226E0,2.188715935E0,-1.041269302E-1,1.802061081E0,2.837030842E0
5.082015957E0,2.631089926E0,-2.996225357E-1,2.098981380E0,3.379072461E0
5.090228995E0,2.887788773E0,-4.570770264E-1,1.701303601E0,3.382702669E0
5.098479418E0,3.145914078E0,-4.446554184E-1,8.813585043E-1,3.297163423E0
5.106693649E0,3.403114796E0,-4.802370071E-1,1.658341289E-1,3.440831128E0
5.114907418E0,3.684734583E0,-5.496263504E-1,-2.453331947E-1,3.733570201E0
5.123148072E0,3.680038929E0,-5.664672852E-1,-4.230728149E-1,3.747340699E0
5.131359995E0,3.485704422E0,-5.760183334E-1,-4.114665985E-1,3.556857771E0
5.139573303E0,3.189251184E0,-5.159416199E-1,-4.171066284E-1,3.257529250E0
5.147812264E0,2.814680099E0,-4.580221176E-1,-5.493512154E-1,2.904134136E0
5.156031380E0,2.412295341E0,-4.191389084E-1,-8.138725162E-1,2.580161761E0
5.164262418E0,2.020565510E0,-3.874950409E-1,-9.126285911E-1,2.250717293E0
5.172473995E0,1.754853606E0,-4.565753937E-1,-9.633389115E-1,2.053288613E0
5.180700110E0,1.408363819E0,-4.754018784E-1,-9.867565632E-1,1.784148006E0
5.188912341E0,8.936440945E-1,-5.034341812E-1,-1.240239739E0,1.609422366E0
5.197125072E0,3.781441450E-1,-5.907611847E-1,-1.590172529E0,1.737998977E0
5.205363457E0,-9.293711185E-2,-7.301054001E-1,-1.851981163E0,1.992868643E0
5.213576418E0,-7.288827896E-1,-6.604299545E-1,-1.941281915E0,2.176238341E0
5.221789380E0,-1.498710871E0,-3.482942581E-1,-1.732708335E0,2.317265919E0
5.230027879E0,-1.726543903E0,-2.032527924E-1,-1.511295557E0,2.303536370E0
5.238249264E0,-2.052368402E0,6.860733032E-3,-1.121654272E0,2.338882518E0
5.246479533E0,-2.630563021E0,4.572000504E-1,-6.272533536E-1,2.742688546E0
5.254691995E0,-3.033643246E0,8.409385681E-1,-7.226853371E-1,3.229929274E0
5.262942610E0,-2.908722878E0,6.946239471E-1,-1.722889543E-1,2.995472365E0
5.271154572E0,-2.101963520E0,1.082553864E-1,8.218442202E-1,2.259512733E0
5.279368264E0,-8.791224957E-1,-6.786174774E-1,1.851098537E0,2.158690306E0
5.287600841E0,2.697292566E-1,-1.322942734E0,1.948060751E0,2.370205062E0
5.295812225E0,7.434012890E-1,-1.639698029E0,1.063771486E0,2.091139612E0
5.304043841E0,8.777135611E-1,-1.743589401E0,2.442149818E-1,1.967263595E0
5.312283071E0,9.823246002E-1,-1.689898491E0,-2.929021716E-1,1.976489365E0
5.320503571E0,9.464008808E-1,-1.291728973E0,-6.444622278E-1,1.726143080E0
5.328732687E0,8.307613134E-1,-6.062870026E-1,-8.925275207E-1,1.361746549E0
5.336943033E0,5.678103566E-1,1.031370163E-1,-1.145125151E0,1.282325020E0
5.345154225E0,3.344022036E-1,6.183853149E-1,-1.315339565E0,1.491423281E0
5.353364571E0,3.306211233E-1,8.529634476E-1,-1.504203320E0,1.760535315E0
5.361575110E0,5.699216127E-1,8.163928986E-1,-1.641589403E0,1.919928066E0
5.369812379E0,1.019139528E0,4.604234695E-1,-1.543467999E0,1.906024295E0
5.378024379E0,1.639825463E0,-1.549568176E-1,-1.144382715E0,2.005654747E0
5.386237956E0,2.099247217E0,-8.260335922E-1,-5.149129629E-1,2.313937280E0
5.394478302E0,2.145539284E0,-1.358345985E0,1.925701499E-1,2.546669570E0
5.402700263E0,1.973965168E0,-1.756400585E0,9.470903277E-1,2.806859738E0
5.410932417E0,1.697877884E0,-1.840537071E0,1.467249990E0,2.902272997E0
5.419143302E0,1.465608358E0,-1.421619415E0,1.791609287E0,2.716408191E0
5.427393071E0,1.127109051E0,-2.317800522E-1,2.140904903E0,2.430549446E0
5.435603994E0,9.065296054E-1,1.776618004E0,2.305477619E0,3.048506931E0
5.443815417E0,1.069854379E0,3.925942421E0,2.202407360E0,4.626900741E0
5.452044379E0,1.538164139E0,5.826612473E0,9.651146531E-1,6.103016313E0
5.460255379E0,2.430156708E0,7.002036095E0,-1.663973689E0,7.596247727E0
5.468465725E0,3.313498497E0,6.334615707E0,-4.133565903E0,8.257905032E0
5.476702879E0,2.504944324E0,3.006527901E0,-4.720215797E0,6.131426690E0
5.484922302E0,1.217646003E0,4.612255096E-1,-4.438580036E0,4.625622498E0
5.493145032E0,3.815495670E-1,-1.648513794E0,-3.307958364E0,3.715611167E0
5.501357032E0,1.223329008E-1,-2.909091473E0,-1.165014744E0,3.136086397E0
5.509569148E0,-2.806224823E-1,-3.128125191E0,1.149595618E0,3.344471000E0
5.517780148E0,-6.264945865E-1,-2.800172806E0,2.864130974E0,4.054221188E0
5.525991417E0,-5.591475964E-1,-2.028635979E0,3.694310665E0,4.251581031E0
5.534225455E0,-6.468451023E-1,-1.510395050E0,3.895930767E0,4.228235842E0
5.542436648E0,-5.719437599E-1,-1.070582390E0,3.471785784E0,3.677847583E0
5.550666147E0,-5.990475416E-1,-6.846046448E-1,2.345576525E0,2.515804188E0
5.558903378E0,-7.369431257E-1,-7.624340057E-2,1.113383293E0,1.337355818E0
5.567123340E0,-6.781933308E-1,4.751148224E-1,1.705821753E-1,8.454457800E-1
5.575351878E0,-4.671030641E-1,1.055953026E0,-4.287170172E-1,1.231673799E0
5.583564570E0,-1.981294155E-1,1.635212898E0,-7.890683413E-1,1.826418718E0
5.591814224E0,1.121659577E-1,1.875263214E0,-6.924088597E-1,2.002154678E0
5.600025070E0,2.410696149E-1,1.847959518E0,-6.410375834E-1,1.970786169E0
5.608236186E0,9.340177476E-2,9.643316269E-1,-3.033154309E-1,1.015214080E0
5.616473455E0,7.287971675E-2,3.592329025E-1,1.691775918E-1,4.037087922E-1
5.624686609E0,4.725041240E-2,-6.077480316E-2,5.521603823E-1,5.575009111E-1
5.632898955E0,-1.969159245E-1,-4.608564377E-1,1.117398262E0,1.224640116E0
5.641139647E0,-5.398645997E-1,-5.395021439E-1,1.621978045E0,1.792576114E0
5.649361570E0,-8.539178371E-1,-4.764776230E-1,1.910302401E0,2.146033984E0
5.657593186E0,-1.125250220E0,-2.529878616E-1,1.906319976E0,2.228058968E0
5.665807532E0,-1.265753150E0,-1.638307571E-1,1.753944635E0,2.169168813E0
5.674024762E0,-1.274796963E0,3.744888306E-2,1.352538109E0,1.858996786E0
5.682239416E0,-1.227134943E0,1.809005737E-1,9.369161129E-1,1.554476436E0
5.690453378E0,-1.213925481E0,2.069101334E-1,5.625707507E-1,1.353851072E0
5.698695147E0,-1.179998398E0,2.115373611E-1,3.927881718E-1,1.261517666E0
5.706906224E0,-1.104353428E0,1.136322021E-1,1.393961906E-1,1.118901278E0
5.715117801E0,-1.039108038E0,-8.905601501E-2,-1.245534420E-1,1.050328543E0
5.723356339E0,-1.091576695E0,-4.033975601E-1,-9.298866987E-2,1.167440005E0
5.731574339E0,-1.177342534E0,-7.095460892E-1,1.000192761E-1,1.378257941E0
5.739812070E0,-1.241424084E0,-8.688488007E-1,3.591682911E-1,1.557252020E0
5.748022416E0,-1.278113246E0,-9.200258255E-1,4.950140715E-1,1.650775551E0
5.756240416E0,-1.280557394E0,-8.035345078E-1,5.798889399E-1,1.619186872E0
5.764452493E0,-1.221845508E0,-6.273965836E-1,5.825800896E-1,1.491955924E0
5.772664262E0,-1.102490783E0,-3.822612762E-1,4.713133574E-1,1.258469662E0
5.780909993E0,-9.705224633E-1,-1.280136108E-1,2.318161726E-1,1.006002025E0
5.789122108E0,-9.913312197E-1,1.522254944E-1,-8.425819874E-2,1.006483796E0
5.797353685E0,-1.046816111E0,4.059333801E-1,-4.208569527E-1,1.199052315E0
5.805590839E0,-9.400472641E-1,4.347190857E-1,-7.498744130E-1,1.278663825E0
5.813807646E0,-8.421506286E-1,4.256372452E-1,-9.732038975E-1,1.355548071E0
5.822036570E0,-6.621339917E-1,3.623790741E-1,-1.038725853E0,1.284013790E0
5.830244877E0,-4.481474161E-1,2.714328766E-1,-9.638012648E-1,1.097007197E0
5.838469223E0,-2.835640013E-1,1.864767075E-1,-8.493945003E-1,9.146874452E-1
5.846679916E0,-2.666805387E-1,2.342844009E-1,-6.127250195E-1,7.081240285E-1
5.854891146E0,-2.599419951E-1,3.450222015E-1,-3.972316980E-1,5.868587414E-1
5.863137377E0,-2.619865835E-1,4.370546341E-1,-1.895726919E-1,5.436832981E-1
5.871348262E0,-2.482323647E-1,5.625648499E-1,-4.964113235E-2,6.168976894E-1
5.879559339E0,-1.763667762E-1,6.423320770E-1,5.930554867E-2,6.687397738E-1
5.887797146E0,-6.445115805E-2,6.999988556E-1,7.606089115E-2,7.070626625E-1
5.896017685E0,3.205305338E-2,7.139596939E-1,1.736152172E-2,7.148896874E-1
5.904253646E0,1.158731282E-1,8.133640289E-1,-1.856728792E-1,8.422956984E-1
5.912461838E0,2.360710204E-1,8.759737015E-1,-4.102642536E-1,9.956787685E-1
5.920677569E0,3.103749156E-1,1.024212837E0,-6.985744238E-1,1.278026115E0
5.928885915E0,3.861061633E-1,1.129096985E0,-1.001608729E0,1.557933894E0
5.937094761E0,3.903412223E-1,1.272361755E0,-1.308813572E0,1.866618245E0
5.945338377E0,3.063163757E-1,1.442513466E0,-1.514664531E0,2.113973383E0
5.953549492E0,1.652521640E-1,1.484217644E0,-1.538946271E0,2.144426710E0
5.961762031E0,8.988261223E-3,1.351963043E0,-1.391079187E0,1.939841789E0
5.969998300E0,-1.312128305E-1,1.187596321E0,-1.197315335E0,1.691498105E0
5.978217107E0,-2.484191954E-1,1.068384171E0,-1.070725441E0,1.532843698E0
5.986459569E0,-4.256779850E-1,9.839477539E-1,-1.015250087E0,1.476511994E0
5.994673607E0,-5.590933561E-1,8.976497650E-1,-1.059223175E0,1.496767923E0
6.002900069E0,-6.530908942E-1,8.502445221E-1,-1.200709701E0,1.609704087E0
6.011111838E0,-7.539177537E-1,8.195514679E-1,-1.389563322E0,1.780714130E0
6.019324376E0,-8.838183880E-1,7.990379333E-1,-1.527804613E0,1.937468322E0
6.027570646E0,-1.183427334E0,7.818155289E-1,-1.573693037E0,2.118547982E0
6.035783069E0,-1.584942698E0,7.942600250E-1,-1.611266851E0,2.395636285E0
6.044014569E0,-1.944582939E0,8.006019592E-1,-1.717716336E0,2.715311348E0
6.052252069E0,-2.230374336E0,8.201417923E-1,-1.826477289E0,2.997202283E0
6.060472453E0,-2.383802652E0,8.363990784E-1,-2.075052738E0,3.269238806E0
6.068720222E0,-2.525737286E0,8.785963058E-1,-2.340887308E0,3.554016558E0
6.076930992E0,-2.549225807E0,8.778085709E-1,-2.482382059E0,3.664876641E0
6.085149222E0,-2.380492449E0,1.061722755E0,-2.502950191E0,3.613690519E0
6.093360761E0,-1.974788904E0,1.538122177E0,-2.409973383E0,3.474706139E0
6.101573338E0,-1.649870157E0,2.024100304E0,-2.216225147E0,3.425012041E0
6.109800953E0,-1.604336143E0,2.310007095E0,-1.915865183E0,3.403023162E0
6.118013991E0,-1.812709212E0,2.267955780E0,-1.518575549E0,3.276524043E0
6.126227568E0,-2.025873184E0,2.241513252E0,-1.032502413E0,3.192899161E0
6.134466761E0,-2.243752718E0,2.162500381E0,-6.013303995E-1,3.173709566E0
6.142688530E0,-2.437304258E0,2.201119423E0,-7.853758335E-1,3.376713485E0
6.150916338E0,-2.703102112E0,2.009861946E0,-1.646772981E0,3.749422265E0
6.159128491E0,-2.956717730E0,1.274897575E0,-2.937624693E0,4.358575730E0
6.167340722E0,-2.874972582E0,-9.702777863E-2,-3.262433529E0,4.349523453E0
6.175552030E0,-2.679448128E0,-1.023697853E0,-2.979200602E0,4.135581675E0
6.183763876E0,-1.788979292E0,-5.602226257E-1,-2.231163979E0,2.914170379E0
6.192006184E0,-3.077419400E-1,1.047906876E-1,-1.236169100E0,1.278201953E0
6.200218953E0,6.592968702E-1,8.843107224E-1,-3.717494905E-1,1.163991194E0
6.208431722E0,1.404938698E0,1.584653854E0,1.219758630E0,2.443929561E0
6.216668953E0,8.617638350E-1,2.337261200E0,3.181317806E0,4.040570481E0
6.224887337E0,1.001319885E-1,2.902683258E0,4.310869217E0,5.197998645E0
6.233157337E0,-5.079952478E-1,3.575453758E0,3.882307529E0,5.302286347E0
6.241367491E0,-6.297617555E-1,4.042349815E0,3.699611664E0,5.515824359E0
6.249596453E0,1.625920534E-1,3.831892967E0,3.506989956E0,5.197000908E0
6.257807222E0,1.363149643E0,3.265446663E0,3.608764172E0,5.054156478E0
6.266018837E0,2.507361174E0,2.559410095E0,3.719501972E0,5.164507238E0
6.274245799E0,3.400529146E0,1.346620560E0,3.858341217E0,5.316369283E0
6.282482991E0,3.897465229E0,1.131296158E-1,3.777229071E0,5.428673224E0
6.290714260E0,3.183263540E0,-8.849258423E-1,3.358261108E0,4.711069750E0
6.298953760E0,1.849897623E0,-1.338516235E0,2.464790821E0,3.359901891E0
6.307165106E0,6.255482435E-1,-1.491147041E0,9.652765393E-1,1.883238939E0
6.315390491E0,1.069750786E-1,-1.508223534E0,1.278016567E-1,1.517404085E0
6.323600029E0,3.149789572E-1,-1.368885994E0,1.895523071E-1,1.417388685E0
6.331811106E0,8.967390060E-1,-1.331146240E0,7.443675399E-1,1.769229830E0
6.340023068E0,1.280954599E0,-1.219254494E0,1.345423222E0,2.222068822E0
6.348232760E0,1.316530228E0,-1.002421379E0,1.949571133E0,2.557132782E0
6.356463606E0,7.152898312E-1,-8.662900925E-1,2.432149887E0,2.679076546E0
6.364701798E0,-1.989125013E-1,-8.746013641E-1,2.476353168E0,2.633784111E0
6.372945952E0,-8.870161772E-1,-1.021007538E0,2.017805815E0,2.429155079E0
6.381184875E0,-8.281843662E-1,-1.145734787E0,1.707206130E0,2.216562726E0
6.389395644E0,-1.746773720E-3,-1.301134109E0,1.605208158E0,2.066312235E0
6.397640683E0,8.495305181E-1,-1.312579155E0,1.632906914E0,2.260741278E0
6.405852683E0,1.623723507E0,-1.177421570E0,1.671320558E0,2.610768467E0
6.414100413E0,2.118887186E0,-1.041590691E0,1.542547464E0,2.820291963E0
6.422309836E0,2.471182823E0,-1.101321220E0,1.328633428E0,3.014120064E0
6.430520990E0,2.825491905E0,-1.430891037E0,1.391630411E0,3.459405855E0
6.438753836E0,3.206685781E0,-1.750197887E0,1.531305313E0,3.961176884E0
6.446991413E0,3.121572971E0,-1.979536057E0,1.308446407E0,3.921072916E0
6.455235452E0,3.237751484E0,-2.092872143E0,1.716701627E0,4.220214799E0
6.463472298E0,3.430549145E0,-2.008716106E0,2.336872578E0,4.611353519E0
6.471680375E0,3.498980761E0,-1.860291004E0,2.470118046E0,4.669585864E0
6.479922721E0,3.389504910E0,-1.618466854E0,2.433855534E0,4.475693382E0
6.488132605E0,3.275667667E0,-1.333326340E0,2.027902365E0,4.076781303E0
6.496343567E0,2.964661360E0,-9.855937958E-1,1.286902666E0,3.378865280E0
6.504555798E0,2.601385117E0,-5.033569336E-1,2.768558264E-1,2.664061162E0
6.512768259E0,1.967230558E0,2.022190094E-1,-9.996324182E-1,2.215886633E0
6.521000221E0,1.105439901E0,1.013740540E0,-2.101762295E0,2.582067389E0
6.529238182E0,3.346600533E-1,1.779294014E0,-2.833113909E0,3.362204479E0
6.537502413E0,-2.772790194E-1,2.336687088E0,-3.468818903E0,4.191621975E0
6.545774913E0,-8.358508348E-1,2.575070381E0,-3.562516451E0,4.474500816E0
6.554011413E0,-1.347856164E0,2.327483177E0,-3.529645920E0,4.437600083E0
6.562239567E0,-1.714766741E0,1.746811867E0,-3.524602652E0,4.291223663E0
6.570452105E0,-1.729693651E0,7.965316772E-1,-3.553376913E0,4.031474957E0
6.578693528E0,-1.670437813E0,4.808139801E-2,-3.373276472E0,3.764527655E0
6.586903836E0,-1.389973402E0,-2.357339859E-1,-2.863659382E0,3.191886844E0
6.595114374E0,-1.024922848E0,-1.581430435E-1,-2.122265100E0,2.362093398E0
6.603346528E0,-9.626919031E-1,2.382383347E-1,-1.405143261E0,1.719872317E0
6.611584067E0,-1.136077404E0,5.776996613E-1,-6.168032885E-1,1.415929046E0
6.619829451E0,-1.249765754E0,8.312673569E-1,-2.323418856E-2,1.501152785E0
6.628066643E0,-1.285779715E0,9.603137970E-1,1.179853439E0,1.991854965E0
6.636276182E0,-1.495953918E0,9.985332489E-1,2.417677402E0,3.013322219E0
6.644516720E0,-1.825642467E0,7.499809265E-1,2.607193947E0,3.270000318E0
6.652728066E0,-2.166389465E0,2.144384384E-1,1.409454823E0,2.593412820E0
6.660939682E0,-2.245921850E0,-4.315586090E-1,6.790447235E-2,2.288016348E0
6.669152836E0,-2.029070854E0,-1.095379829E0,-1.004198074E0,2.515034647E0
6.677366143E0,-1.603312254E0,-1.727457047E0,-1.683014035E0,2.896075668E0
6.685598989E0,-1.022699594E0,-2.217882156E0,-1.964444399E0,3.134319307E0
6.693837335E0,-4.440641403E-1,-2.586766243E0,-2.083096981E0,3.350797754E0
6.702083912E0,4.089283943E-2,-2.772252560E0,-2.110505581E0,3.484435433E0
6.710325720E0,3.845701218E-1,-2.809794903E0,-2.002424717E0,3.471677739E0
6.718539451E0,5.969159603E-1,-2.636461258E0,-1.566348672E0,3.124209466E0
6.726777489E0,8.343013525E-1,-2.406886101E0,-7.661451101E-1,2.660101084E0
6.734989797E0,1.077308416E0,-2.149046421E0,2.290489823E-1,2.414841067E0
6.743232181E0,1.357235909E0,-1.965631485E0,1.117750287E0,2.637264141E0
6.751443104E0,1.455122232E0,-1.774741650E0,1.624606133E0,2.811838139E0
6.759654528E0,1.164412975E0,-9.942073822E-1,1.792902827E0,2.357712121E0
6.767886335E0,5.075434446E-1,1.826514244E0,2.672430754E0,3.276528768E0
6.776124758E0,9.683918953E-2,5.769472122E0,4.572551250E0,7.362364521E0
6.784357604E0,-4.303891659E-1,8.739077568E0,5.287905693E0,1.022343671E1
6.792628989E0,5.315712094E-1,1.068196678E1,3.891256332E0,1.138107456E1
6.800840412E0,2.996436119E0,1.138620472E1,-6.639660001E-1,1.179258827E1
6.809079681E0,6.033096790E0,1.042085838E1,-4.988301277E0,1.303363710E1
6.817294758E0,6.044297218E0,6.059311867E0,-5.850907803E0,1.036734832E1
6.825508950E0,2.925122499E0,1.329115868E0,-5.403444290E0,6.286501477E0
6.833721796E0,9.504144192E-1,-1.938130856E0,-6.137412071E0,6.505956172E0
6.841935335E0,1.340238094E0,-4.330605030E0,-2.445794106E0,5.150950095E0
6.850163104E0,1.860325098E0,-4.856503487E0,2.708248854E0,5.863535404E0
6.858403143E0,1.493936896E0,-4.633320808E0,5.587790489E0,7.410999374E0
6.866615950E0,8.632333875E-1,-4.156340599E0,7.271224022E0,8.419681576E0
6.874855142E0,4.455518723E-1,-3.463637829E0,6.671257973E0,7.530005738E0
6.883066181E0,-6.565641761E-1,-2.722600937E0,4.903433323E0,5.646883276E0
6.891304642E0,-1.350719571E0,-1.999033451E0,2.650746584E0,3.584276154E0
6.899516681E0,-1.360155821E0,-1.297905922E0,7.317518592E-1,2.017435110E0
6.907765988E0,-7.907276750E-1,-4.376001358E-1,1.065267622E-1,9.099956516E-1
6.915979565E0,4.876884818E-1,3.077583313E-1,-9.104278684E-2,5.838184947E-1
6.924192988E0,2.041498184E0,9.728546143E-1,-7.324469090E-2,2.262636896E0
6.932417604E0,3.087349892E0,1.266418457E0,-1.153027862E-1,3.338987840E0
6.940656450E0,3.115382671E0,8.849735260E-1,4.040448368E-2,3.238891763E0
6.948868334E0,3.015713692E0,8.693275452E-1,2.034977823E-1,3.145102669E0
6.957108373E0,2.308584690E0,8.243684769E-1,2.841840386E-1,2.467773739E0
6.965320604E0,1.344807625E0,7.067136765E-1,5.600467920E-1,1.619136862E0
6.973553796E0,6.332615614E-1,4.321651459E-1,1.051418066E0,1.301255881E0
6.981765988E0,2.844476700E-2,1.225929260E-1,1.570217013E0,1.575252234E0
6.989978450E0,-3.601421118E-1,-1.671733856E-1,2.096186638E0,2.133459093E0
6.998190796E0,-8.080300689E-1,-4.350290298E-1,2.435683012E0,2.602828189E0
7.006404373E0,-9.951432347E-1,-7.412900925E-1,2.441572666E0,2.738813273E0
7.014639219E0,-9.925412536E-1,-1.057576180E0,1.963379860E0,2.440996925E0
7.022879950E0,-8.635531664E-1,-1.178041458E0,1.202175617E0,1.891753674E0
7.031146257E0,-6.798504591E-1,-1.267786026E0,5.089479089E-1,1.525944307E0
7.039418257E0,-4.256066382E-1,-1.146828651E0,-2.203583717E-4,1.223256725E0
7.047628719E0,-2.414940298E-1,-9.272451401E-1,-3.319920599E-1,1.014061953E0
7.055872873E0,-2.504157424E-1,-6.923570633E-1,-3.914385438E-1,8.338408006E-1
7.064085219E0,-5.078781843E-1,-2.695093155E-1,-3.137310445E-1,6.549829689E-1
7.072334257E0,-7.919330597E-1,1.690282822E-1,-1.683189273E-1,8.270790727E-1
7.080547757E0,-1.010915041E0,3.454771042E-1,-7.564586401E-2,1.070992972E0
7.088760488E0,-1.252540112E0,4.344387054E-1,1.034457684E-1,1.329772442E0
7.097001642E0,-1.349419117E0,2.513742447E-1,2.581698895E-1,1.396700632E0
7.105240565E0,-1.234931231E0,1.856136322E-2,3.060808182E-1,1.272432763E0
7.113453565E0,-1.139477968E0,-1.349287033E-1,7.377016544E-2,1.149807737E0
7.121692949E0,-9.427967072E-1,-1.063413620E-1,-3.058295250E-1,9.968479396E-1
7.129904295E0,-6.890072823E-1,-1.035976410E-2,-7.938625813E-1,1.051216513E0
7.138144795E0,-4.245397449E-1,2.180786133E-1,-1.160795689E0,1.255085219E0
7.146356488E0,-2.371580601E-1,5.074596405E-1,-1.518375754E0,1.618401731E0
7.154566526E0,-6.777414680E-2,7.123880386E-1,-1.872716427E0,2.004783497E0
7.162777488E0,-6.983503699E-2,9.436578751E-1,-1.695105314E0,1.941326645E0
7.170988103E0,-2.785878181E-1,1.172549248E0,-9.269682169E-1,1.520444996E0
7.179272411E0,-4.548757970E-1,1.199544907E0,-1.212520599E-1,1.288612446E0
7.187509718E0,-6.140146255E-1,1.000910759E0,1.463117599E-1,1.183318824E0
7.195721564E0,-8.801309466E-1,6.681928635E-1,-2.413591146E-1,1.131090805E0
7.203961026E0,-1.145295382E0,3.968324661E-1,-9.539864063E-1,1.542487465E0
7.212171564E0,-1.178128958E0,2.135353088E-1,-1.384204626E0,1.830193328E0
7.220417257E0,-9.553558826E-1,9.702968597E-2,-1.399751067E0,1.697475382E0
7.228628833E0,-6.800092459E-1,1.093692780E-1,-1.227421284E0,1.407457716E0
7.236852103E0,-3.419054151E-1,2.908830643E-1,-1.241749048E0,1.320398792E0
7.245060987E0,-2.627949119E-1,8.048887253E-1,-1.536176205E0,1.754065095E0
7.253270641E0,-4.914470911E-1,1.458106995E0,-1.565211773E0,2.194876795E0
7.261508872E0,-8.367079496E-1,1.925995827E0,-1.316794634E0,2.478606105E0
7.269743987E0,-1.051575899E0,2.108438492E0,-1.080391765E0,2.592020662E0
7.277972795E0,-9.723657370E-1,1.978896141E0,-1.077956080E0,2.454284901E0
7.286241372E0,-6.738653183E-1,1.714613914E0,-1.173281670E0,2.184166939E0
7.294450218E0,-3.124458194E-1,1.505189896E0,-1.255590439E0,1.984874395E0
7.302700256E0,-1.456621289E-1,1.360816956E0,-1.341765404E0,1.916604978E0
7.310910141E0,-5.569253564E-1,1.313091278E0,-1.486593604E0,2.060178415E0
7.319122179E0,-9.780676961E-1,1.213690758E0,-1.523185730E0,2.179393595E0
7.327333487E0,-1.105161428E0,1.041159630E0,-1.478478551E0,2.119267322E0
7.335544179E0,-1.063135028E0,9.100732803E-1,-1.441893458E0,2.009364628E0
7.343782256E0,-1.100741506E0,1.006531715E0,-1.362477779E0,2.020169215E0
7.352019410E0,-1.184129715E0,1.392066002E0,-1.229683280E0,2.202755525E0
7.360264756E0,-1.434795618E0,1.838325500E0,-1.147044182E0,2.598805392E0
7.368501717E0,-1.775591135E0,2.177125931E0,-1.257670164E0,3.078040844E0
7.376712025E0,-1.978899717E0,2.254755974E0,-1.350513339E0,3.289962746E0
7.384948564E0,-2.302352190E0,2.281689644E0,-1.315884471E0,3.498354639E0
7.393159871E0,-2.647118330E0,2.337165833E0,-1.265995026E0,3.751309503E0
7.401401179E0,-2.976238966E0,2.250077248E0,-1.671380758E0,4.088319905E0
7.409610217E0,-3.369324684E0,1.783700943E0,-2.615098476E0,4.623059368E0
7.417820371E0,-3.738128185E0,7.743511200E-1,-4.010326385E0,5.536780626E0
7.426053025E0,-3.949037552E0,-1.941518784E-1,-4.321597099E0,5.857370914E0
7.434290986E0,-4.484774590E0,-9.887170792E-1,-4.965045452E0,6.763315823E0
7.442535602E0,-3.656946421E0,-6.551370621E-1,-4.562374115E0,5.883682457E0
7.450772833E0,-1.796057463E0,-4.891738892E-1,-3.847270489E0,4.273944749E0
7.458984563E0,2.384406626E-1,1.094951630E-1,-2.698075294E0,2.710803098E0
7.467236140E0,8.760982156E-1,1.168396950E0,-1.036902666E0,1.791051829E0
7.475447025E0,1.181430221E-1,2.108000755E0,1.403420210E0,2.535194912E0
7.483658179E0,-6.500536203E-1,2.804937363E0,3.945318937E0,4.884238409E0
7.491869986E0,-6.731028557E-1,3.418108940E0,4.680034161E0,5.834317092E0
7.500082371E0,-5.794974566E-1,4.102138519E0,4.270705223E0,5.949981583E0
7.508307525E0,-3.050565720E-2,4.518212318E0,4.010510445E0,6.041470614E0
7.516544602E0,1.076561332E0,4.211759567E0,3.802269459E0,5.775392280E0
7.524775332E0,2.290639877E0,3.535860062E0,3.916375160E0,5.752158883E0
7.533047909E0,3.467432499E0,2.582420349E0,4.641832829E0,6.343389867E0
7.541259794E0,4.318896770E0,1.442944527E0,4.719403267E0,6.558027555E0
7.549494909E0,4.658236504E0,2.134513855E-2,4.241123676E0,6.299742294E0
7.557706524E0,3.993546963E0,-7.563390732E-1,3.466168165E0,5.341796316E0
7.565949794E0,2.706448555E0,-1.085709572E0,2.750160217E0,4.008367533E0
7.574161678E0,1.806191087E0,-1.187854767E0,2.244986534E0,3.116615107E0
7.582376178E0,1.453853488E0,-1.439163208E0,1.996666670E0,2.858593797E0
7.590605447E0,1.244124174E0,-1.492741585E0,1.300724983E0,2.338377190E0
7.598843640E0,1.257749677E0,-1.495666504E0,2.508510351E-1,1.970248406E0
7.607053370E0,1.550867438E0,-1.411694527E0,-7.521978617E-1,2.227975061E0
7.615289755E0,1.851129770E0,-1.337203026E0,-1.677520275E-1,2.289745423E0
7.623501678E0,1.908311486E0,-1.410858154E0,2.092715740E0,3.164116406E0
7.631744524E0,1.280994654E0,-1.499998093E0,1.700998545E0,2.604676108E0
7.639956640E0,4.487658739E-1,-1.624083996E0,8.442974091E-1,1.884642605E0
7.648166755E0,2.038750648E-1,-1.571163177E0,1.892992258E-1,1.595604265E0
7.656376563E0,5.836206675E-1,-1.658527374E0,4.962348938E-2,1.758916890E0
7.664587216E0,1.196431637E0,-1.623895168E0,3.303366899E-1,2.043919399E0
7.672819255E0,1.856036782E0,-1.521748543E0,1.062586546E0,2.624820248E0
7.681057255E0,2.435702085E0,-1.589737415E0,1.501842499E0,3.273444759E0
7.689301870E0,2.967430353E0,-1.820338726E0,1.780541420E0,3.910192288E0
7.697539485E0,3.403720140E0,-2.219888687E0,2.144155979E0,4.594629630E0
7.705749524E0,3.576600075E0,-2.402074814E0,1.853389740E0,4.690105013E0
7.713986255E0,3.666549683E0,-2.517594814E0,1.714279413E0,4.766615585E0
7.722198601E0,3.636465788E0,-2.492427349E0,1.765508652E0,4.749010246E0
7.730442678E0,3.382487297E0,-2.381626129E0,1.386304140E0,4.362935079E0
7.738657139E0,3.137457371E0,-2.099355698E0,8.520727158E-1,3.870007883E0
7.746870716E0,2.987240791E0,-1.509737968E0,4.111188054E-1,3.372229967E0
7.755111908E0,3.063912392E0,-7.852706909E-1,-1.618804932E-1,3.167082963E0
7.763350178E0,3.124162197E0,7.040405273E-2,-9.683324099E-1,3.271546090E0
7.771581562E0,2.481359005E0,1.013143539E0,-2.186806679E0,3.459151022E0
7.779852601E0,1.239434481E0,1.775435448E0,-3.381631136E0,4.015444932E0
7.788062947E0,8.862555027E-2,2.320279121E0,-4.025408268E0,4.647091716E0
7.796297947E0,-6.588462591E-1,2.470813751E0,-3.909216404E0,4.671292314E0
7.804509447E0,-1.194418788E0,2.412446976E0,-3.363849401E0,4.308366216E0
7.812721139E0,-1.670125008E0,2.101541519E0,-2.641944170E0,3.766385973E0
7.820934023E0,-1.903549552E0,1.362970352E0,-2.035153389E0,3.102102254E0
7.829145023E0,-2.097620487E0,5.845718384E-1,-1.349258423E0,2.561685819E0
7.837358370E0,-2.073929787E0,-1.212024689E-1,-7.062404156E-1,2.194231146E0
7.845596370E0,-2.218249559E0,-4.524393082E-1,-2.302022576E-1,2.275593442E0
7.853840600E0,-2.372469425E0,-4.690370560E-1,1.811313629E-2,2.418457157E0
7.862079485E0,-2.502079010E0,-1.689052582E-1,-9.038054943E-2,2.509401722E0
7.870290908E0,-2.425521851E0,2.628631592E-1,-4.877834916E-1,2.488008445E0
7.878536254E0,-1.956156373E0,5.309028625E-1,-6.826935410E-1,2.138802486E0
7.886750292E0,-1.246906519E0,6.179141998E-1,-3.618354499E-1,1.437886893E0
7.895011139E0,-8.199882507E-1,4.981632233E-1,2.929389477E-2,9.598986721E-1
7.903225100E0,-7.118873596E-1,1.870384216E-1,2.050122768E-1,7.640661081E-1
7.911436138E0,-8.070298433E-1,-1.905241013E-1,6.669336557E-2,8.318921842E-1
7.919677715E0,-9.383955002E-1,-5.652618408E-1,-3.222042620E-1,1.141894325E0
7.927917985E0,-1.017282844E0,-9.922657013E-1,-7.804102898E-1,1.621263651E0
7.936164985E0,-1.025232077E0,-1.531460762E0,-1.301940680E0,2.256440207E0
7.944406638E0,-9.176625013E-1,-1.769169331E0,-1.834652424E0,2.708876908E0
7.952619946E0,-3.360279799E-1,-7.434768677E-1,-1.625681043E0,1.818931419E0
7.960868138E0,6.157773733E-1,1.186306000E0,-7.475039363E-2,1.338690151E0
7.969080869E0,1.211369276E0,2.746470451E0,1.488441706E0,3.350518493E0
7.977295138E0,1.332370877E0,4.617513657E0,2.953982592E0,5.641157477E0
7.985510100E0,1.188964725E0,6.498263359E0,3.354137421E0,7.408866420E0
7.993723061E0,1.541634083E0,7.820977211E0,2.321142197E0,8.302531016E0
8.001950523E0,2.628418684E0,7.503140450E0,3.870283067E-1,7.959616341E0
8.010190407E0,3.816209316E0,4.274087906E0,-1.475546002E0,5.916799555E0
8.018424138E0,4.568331718E0,1.062438965E0,-2.876539230E0,5.502082259E0
8.026663253E0,3.551047325E0,-1.111031532E0,-4.125659943E0,5.555663609E0
8.034876830E0,1.999331594E0,-2.097533226E0,-2.146684170E0,3.606275832E0
8.043118023E0,1.660326719E0,-2.320809364E0,1.096645474E0,3.057036509E0
8.051334061E0,1.354916573E0,-2.386896133E0,4.161298752E0,4.984925212E0
8.059581907E0,6.231174469E-1,-2.437880516E0,5.555220127E0,6.098525020E0
8.067795176E0,1.151164770E-1,-2.750378609E0,4.890718460E0,5.612215369E0
8.076008138E0,4.322998524E-1,-2.705475330E0,3.067915916E0,4.113221122E0
8.084235946E0,4.269216061E-1,-2.169283390E0,1.412727475E0,2.623709474E0
8.092474676E0,5.447636843E-1,-1.069474220E0,7.790812254E-1,1.430912344E0
8.100687830E0,1.036553979E0,1.536893845E-1,7.935498953E-1,1.314452743E0
8.108925907E0,1.279023409E0,1.072310448E0,1.006362557E0,1.948978238E0
8.117137868E0,1.398488045E0,1.457090378E0,1.089486241E0,2.294746489E0
8.125369215E0,1.521268845E0,1.325149536E0,6.919125915E-1,2.132843929E0
8.133581599E0,1.621848345E0,8.756427765E-1,6.751660705E-1,1.962903856E0
8.141795638E0,1.593112707E0,3.768854141E-1,7.514648438E-1,1.801318996E0
8.150009368E0,1.099946022E0,5.888366699E-2,8.610317111E-1,1.398114496E0
8.158223407E0,5.594975948E-1,-1.096067429E-1,9.599737525E-1,1.116512786E0
8.166463291E0,7.748532295E-2,-1.239957809E-1,1.009046197E0,1.019584796E0
8.174702599E0,-2.577774227E-1,-1.041812897E-1,1.026713252E0,1.063693115E0
8.182915214E0,-5.965279937E-1,-7.175636292E-2,1.141995549E0,1.290406315E0
8.191155714E0,-8.792408705E-1,-2.952575684E-3,1.187124729E0,1.477273959E0
8.199368984E0,-1.223261714E0,-5.113410950E-2,1.235164404E0,1.739142036E0
8.207612753E0,-1.410974741E0,-1.422252655E-1,1.188650370E0,1.850396565E0
8.215825676E0,-1.475449204E0,-2.859344482E-1,1.053357601E0,1.835285019E0
8.224050522E0,-1.316909313E0,-4.655256271E-1,8.268167973E-1,1.623142096E0
8.232264330E0,-9.666421413E-1,-6.091413498E-1,5.708575249E-1,1.277234719E0
8.240478637E0,-6.766552925E-1,-7.214498520E-1,3.380494118E-1,1.045289280E0
8.248721945E0,-4.735913575E-1,-6.968488693E-1,1.768792272E-1,8.609142707E-1
8.256964253E0,-3.151902854E-1,-6.382207870E-1,1.356207728E-1,7.246127815E-1
8.265199560E0,-2.843613625E-1,-5.287017822E-1,1.756084561E-1,6.254800467E-1
8.273442176E0,-3.713096380E-1,-3.588142395E-1,2.649083138E-1,5.803403488E-1
8.281684714E0,-4.799038768E-1,-2.101020813E-1,3.140940666E-1,6.108237865E-1
8.289928022E0,-6.316283941E-1,-2.526855469E-2,2.576071024E-1,6.826084876E-1
8.298141945E0,-7.429687977E-1,1.259727478E-1,7.113981247E-2,7.569231404E-1
8.306356560E0,-8.268897533E-1,2.004852295E-1,-1.524199247E-1,8.643915923E-1
8.314570637E0,-8.957911134E-1,2.055273056E-1,-3.376741409E-1,9.791358525E-1
8.322782983E0,-9.331696033E-1,1.938352585E-1,-5.357576013E-1,1.093349817E0
8.331025675E0,-8.653031588E-1,1.966819763E-1,-7.504998446E-1,1.162189044E0
8.339266137E0,-7.957175970E-1,1.782646179E-1,-9.948568940E-1,1.286345602E0
8.347513983E0,-6.216939688E-1,2.586898804E-1,-1.111229897E0,1.299328953E0
8.355755252E0,-4.985260069E-1,3.686399460E-1,-1.188547492E0,1.340547922E0
8.363967406E0,-3.541112542E-1,4.916524887E-1,-1.101387143E0,1.257048364E0
8.372221521E0,-2.982105911E-1,4.674530029E-1,-8.235680461E-1,9.928273733E-1
8.380434098E0,-2.514887154E-1,3.435802460E-1,-4.144861698E-1,5.942160755E-1
8.388694791E0,-3.006133437E-1,2.248754501E-1,-6.483459473E-2,3.809735885E-1
8.396908752E0,-3.651633561E-1,2.038917542E-1,6.937682629E-2,4.239448880E-1
8.405122944E0,-3.754345477E-1,2.487382889E-1,-1.828466654E-1,4.860604273E-1
8.413358444E0,-3.107545376E-1,2.946729660E-1,-5.824328661E-1,7.229305520E-1
8.421598560E0,-2.207832038E-1,3.754634857E-1,-1.006680012E0,1.096869499E0
8.429811175E0,-1.823484749E-1,4.055652618E-1,-1.124122739E0,1.208878025E0
8.438052906E0,-2.571504116E-1,4.402046204E-1,-1.000274181E0,1.122699817E0
8.446266636E0,-3.306833208E-1,5.367136002E-1,-7.639210224E-1,9.904485225E-1
8.454521098E0,-4.366987348E-1,6.874961853E-1,-4.945323467E-1,9.528478534E-1
8.462735790E0,-5.086847544E-1,8.010692596E-1,-3.095481396E-1,9.981443727E-1
8.470948906E0,-5.014113188E-1,9.130535126E-1,-2.867547274E-1,1.080420428E0
8.479163406E0,-4.929623604E-1,9.466161728E-1,-4.035393000E-1,1.141024993E0
8.487376482E0,-4.966893792E-1,9.930591583E-1,-5.584229231E-1,1.242860810E0
8.495620982E0,-4.575901031E-1,1.031393051E0,-7.516887188E-1,1.355800966E0
8.503860829E0,-3.840637505E-1,1.004701614E0,-9.523328543E-1,1.436616916E0
8.512126444E0,-3.321984708E-1,8.703908920E-1,-1.086157441E0,1.430969642E0
8.520366598E0,-3.609191179E-1,6.694965363E-1,-1.109389782E0,1.345077659E0
8.528605713E0,-4.775056839E-1,5.099563599E-1,-1.013534784E0,1.230983317E0
8.536847713E0,-5.513743162E-1,4.204044342E-1,-9.179302454E-1,1.150369271E0
8.545061251E0,-5.568655133E-1,4.460954666E-1,-9.818711877E-1,1.213742722E0
8.553322751E0,-6.405788064E-1,5.988359451E-1,-1.139930487E0,1.438188865E0
8.561536828E0,-7.988234162E-1,7.183971405E-1,-1.285307527E0,1.675180211E0
8.569749482E0,-8.719058633E-1,9.820756912E-1,-1.310884476E0,1.855562073E0
8.577990097E0,-9.700908065E-1,1.281969070E0,-1.127239466E0,1.963463695E0
8.586229251E0,-1.111614704E0,1.725484848E0,-9.386042356E-1,2.256980975E0
8.594441905E0,-1.290735006E0,2.077319145E0,-9.499281645E-1,2.623664461E0
8.602681097E0,-1.523203135E0,2.224293709E0,-1.141209364E0,2.927454373E0
8.610892982E0,-1.714585900E0,2.300134659E0,-1.072495341E0,3.062788030E0
8.619121597E0,-1.790011048E0,2.385851860E0,-6.434096098E-1,3.051295557E0
8.627334905E0,-1.972029805E0,2.461483955E0,-4.119341373E-1,3.180800929E0
8.635547520E0,-2.304929495E0,2.578853607E0,-7.960059643E-1,3.549198698E0
8.643760136E0,-2.931313515E0,2.798308372E0,-1.910639644E0,4.480365221E0
8.651974674E0,-3.419611454E0,2.628241539E0,-3.402620792E0,5.493562081E0
8.660192674E0,-3.510027885E0,1.504101753E0,-4.009836197E0,5.537274074E0
8.668434097E0,-2.950254679E0,-3.031368256E-1,-3.371624947E0,4.490406372E0
8.676648559E0,-1.993385434E0,-1.613980293E0,-2.612927437E0,3.661407880E0
8.684890828E0,-5.574009418E-1,-2.134893894E0,-2.087193966E0,3.037243224E0
8.693106520E0,6.025294662E-1,-1.481987953E0,-1.824515581E0,2.426558707E0
8.701338212E0,1.681009769E0,-5.688638687E-1,-1.510830045E0,2.330666722E0
8.709551251E0,1.997792959E0,5.412845612E-1,-8.075146675E-1,2.221766329E0
8.717796674E0,8.381103277E-1,1.845993996E0,7.652168870E-1,2.166951692E0
8.726010251E0,-3.995125890E-1,2.721509933E0,2.434776306E0,3.673467339E0
8.734224443E0,-7.213991284E-1,3.318771362E0,3.675588846E0,5.004459354E0
8.742451828E0,-5.340837240E-1,3.957027435E0,3.859139442E0,5.553041399E0
8.750692443E0,1.274822354E-1,4.249071121E0,3.994150877E0,5.833017945E0
8.758926943E0,1.198193431E0,3.844726562E0,4.064144135E0,5.721438402E0
8.767200097E0,2.542744875E0,3.025742531E0,4.187300682E0,5.757964603E0
8.775411751E0,3.905191422E0,1.787502289E0,3.775969267E0,5.718708628E0
8.783647020E0,5.203758240E0,6.562395096E-1,2.845793247E0,5.967268162E0
8.791859674E0,6.475200653E0,-8.002738953E-1,1.927190900E0,6.803140934E0
8.800072097E0,6.071568012E0,-1.733886242E0,5.935112238E-1,6.342125448E0
8.808285250E0,3.580255985E0,-1.712045193E0,-1.140320301E-1,3.970180722E0
8.816497366E0,2.092193127E0,-1.589392662E0,1.332662106E-1,2.630817553E0
8.824724712E0,1.868708968E0,-1.509783745E0,7.736701965E-1,2.523902878E0
8.832963250E0,1.605123043E0,-1.334855080E0,1.488424897E0,2.563916290E0
8.841208520E0,1.382334948E0,-1.227391243E0,1.945409298E0,2.683646122E0
8.849446827E0,1.332369566E0,-1.117518425E0,2.063668489E0,2.698663322E0
8.857661443E0,9.631922245E-1,-1.050066948E0,1.848143101E0,2.333669380E0
8.865907789E0,2.561266422E-1,-9.769487381E-1,2.002255201E0,2.242555592E0
8.874121289E0,-6.332445145E-2,-8.435821533E-1,2.161175728E0,2.320844967E0
8.882373366E0,2.059459686E-3,-7.193746567E-1,1.700030565E0,1.845970764E0
8.890587173E0,-1.565587521E-2,-7.938451767E-1,1.353871942E0,1.569523655E0
8.898799981E0,2.135097980E-1,-9.675130844E-1,1.114236116E0,1.491036594E0
8.907043058E0,5.615421534E-1,-1.212382317E0,8.996446133E-1,1.610764074E0
8.915284519E0,1.217720985E0,-1.526339531E0,9.304313660E-1,2.162928406E0
8.923530058E0,1.889432669E0,-1.854239941E0,7.407026291E-1,2.748963796E0
8.931769558E0,2.386725187E0,-1.982833862E0,5.525876880E-1,3.151736093E0
8.939983058E0,2.771737576E0,-1.880585670E0,5.428232551E-1,3.393197421E0
8.948220904E0,3.021783590E0,-1.664532661E0,6.083878875E-1,3.503138717E0
8.956434596E0,3.239979267E0,-1.477624893E0,7.725731134E-1,3.643859244E0
8.964648365E0,3.366633892E0,-1.199672699E0,9.518558979E-1,3.698576483E0
8.972861788E0,3.532797337E0,-1.007359505E0,1.025882125E0,3.814166269E0
8.981076711E0,3.478118896E0,-6.753377914E-1,1.103384495E0,3.710909529E0
8.989319327E0,3.194095135E0,-4.142494202E-1,9.246037602E-1,3.350930979E0
8.997560019E0,2.777081966E0,-2.264862061E-1,5.086965561E-1,2.832358105E0
9.005793288E0,2.414128065E0,-2.655029297E-3,1.201443672E-1,2.417117298E0
9.014035173E0,1.876087427E0,2.639856339E-1,-4.004407525E-1,1.936425895E0
9.022249788E0,1.102156281E0,4.418134689E-1,-8.309668899E-1,1.449294167E0
9.030494134E0,3.558419943E-1,5.811576843E-1,-9.392401576E-1,1.160405038E0
9.038708096E0,-2.921198606E-1,7.373695374E-1,-8.247388005E-1,1.144221105E0
9.046957942E0,-7.437512875E-1,7.502012253E-1,-7.812608480E-1,1.313901202E0
9.055170788E0,-9.089686871E-1,5.529918671E-1,-9.363403916E-1,1.417306392E0
9.063385019E0,-1.095645547E0,2.611989975E-1,-1.309882045E0,1.727557539E0
9.071618942E0,-1.164277315E0,-3.183364868E-2,-1.809990168E0,2.152352075E0
9.079861442E0,-1.103398085E0,-1.225681305E-1,-2.161214828E0,2.429683069E0
9.088107596E0,-1.086935997E0,-1.188774109E-1,-2.252673149E0,2.504016377E0
9.096348942E0,-9.996263981E-1,2.996444702E-3,-2.053112030E0,2.283534743E0
9.104589749E0,-8.787299395E-1,1.877527237E-1,-1.784152508E0,1.997653014E0
9.112831442E0,-9.741039276E-1,4.978189468E-1,-1.551941276E0,1.898742713E0
9.121044788E0,-1.203880787E0,7.055377960E-1,-1.494949222E0,2.044990393E0
9.129258018E0,-1.273254514E0,6.379451752E-1,-1.474182963E0,2.049723521E0
9.137471903E0,-9.691001177E-1,2.656459808E-1,-1.107301950E0,1.495272696E0
9.145685595E0,-5.159504414E-1,-1.746225357E-1,-2.846352458E-1,6.145853163E-1
9.153915826E0,-1.501274109E-1,-4.864540100E-1,6.128484011E-1,7.967175824E-1
9.162154211E0,6.715714931E-2,-8.707818985E-1,1.303534746E0,1.569067886E0
9.170367749E0,1.353267431E-1,-1.140649796E0,1.333420634E0,1.759944849E0
9.178609134E0,-3.192567825E-2,-1.219135284E0,8.837497830E-1,1.506095538E0
9.186821403E0,-3.950513601E-1,-1.187509537E0,3.547463417E-1,1.300803384E0
9.195051903E0,-7.458057404E-1,-1.136766434E0,-1.025801003E-1,1.363446663E0
9.203264518E0,-1.034795284E0,-1.050193787E0,-5.962824821E-1,1.590365074E0
9.211515210E0,-1.222574592E0,-1.025990486E0,-1.299018741E0,2.057861705E0
9.219729480E0,-1.371153712E0,-8.269977570E-1,-2.041206598E0,2.594323066E0
9.227942210E0,-1.485723257E0,-6.263065338E-2,-2.370073795E0,2.797953894E0
9.236174057E0,-1.413274050E0,1.861114502E0,-2.130830288E0,3.162519319E0
9.244412864E0,-1.335050821E0,4.607869148E0,-9.764882326E-1,4.895747956E0
9.252677172E0,-1.474080324E0,7.404210091E0,5.625409484E-1,7.570448612E0
9.260949133E0,-1.833618879E0,1.016370964E1,1.497138858E0,1.043573556E1
9.269189787E0,-1.582391620E0,1.099895763E1,7.644500136E-1,1.113846561E1
9.277414749E0,-2.026746273E-1,8.959542274E0,-8.958318233E-1,9.006497068E0
9.285626826E0,1.725225925E0,4.518920898E0,-1.196761250E0,4.982899565E0
9.293838787E0,2.687291861E0,1.061940193E0,-2.990034223E-1,2.904936757E0
9.302051749E0,3.182617664E0,-1.106760025E0,1.358849764E0,3.633241752E0
9.310264325E0,3.165146351E0,-2.406223774E0,2.702602863E0,4.807507307E0
9.318488595E0,2.763296843E0,-3.413863659E0,3.892600060E0,5.868782646E0
9.326728748E0,1.977364779E0,-4.015606403E0,3.826935053E0,5.889015041E0
9.334941287E0,1.191016793E0,-4.166954517E0,3.223620892E0,5.401274165E0
9.343180171E0,9.160010219E-1,-4.083921909E0,2.467226028E0,4.858464810E0
9.351391325E0,9.743326902E-1,-3.582515717E0,1.904390454E0,4.172582660E0
9.359613133E0,1.178014398E0,-2.720894814E0,1.595404029E0,3.366942311E0
9.367825479E0,1.933072805E0,-1.779922962E0,1.435890913E0,2.994441340E0
9.376069325E0,3.102049589E0,-1.185922623E0,1.387103796E0,3.599052801E0
9.384279825E0,3.989639282E0,-4.810953140E-1,1.138869524E0,4.176804771E0
9.392489748E0,4.939640999E0,1.917190552E-1,8.387761116E-1,5.014015832E0
9.400712171E0,5.574925423E0,8.638887405E-1,1.017544985E0,5.732494659E0
9.408949902E0,5.923528671E0,1.327647209E0,1.587927938E0,6.274739370E0
9.417194325E0,6.047485828E0,1.608072281E0,2.403425455E0,6.703315241E0
9.425433094E0,5.717046261E0,1.935502052E0,2.836145878E0,6.668921171E0
9.433642017E0,4.333744526E0,1.746938705E0,2.506955385E0,5.302637246E0
9.441875056E0,3.260432959E0,8.835477829E-1,1.801650286E0,3.828449231E0
9.450086017E0,2.718242645E0,2.593936920E-1,1.341032386E0,3.042120317E0
9.458297325E0,2.310978651E0,-1.639099121E-1,1.069277048E0,2.551635199E0
9.466508209E0,1.873595357E0,-2.760162354E-1,8.716104031E-1,2.084765986E0
9.474720402E0,1.414175749E0,-2.468338013E-1,6.226794720E-1,1.564784234E0
9.482948440E0,1.007171154E0,-9.787654877E-2,5.201672316E-1,1.137781834E0
9.491184632E0,6.598378420E-1,1.062574387E-1,5.914064050E-1,8.924338389E-1
9.499414479E0,3.420446515E-1,4.039926529E-1,8.218799233E-1,9.775946070E-1
9.507685286E0,-2.614951134E-2,5.464811325E-1,1.184517264E0,1.304763034E0
9.515896055E0,-4.137501121E-1,6.414813995E-1,1.746052742E0,1.905620035E0
9.524134632E0,-8.085045815E-1,6.409721375E-1,2.296324730E0,2.517465433E0
9.532347440E0,-9.834560156E-1,4.226341248E-1,2.893596172E0,3.085239723E0
9.540564786E0,-8.750648499E-1,2.947235107E-2,3.309247971E0,3.423116890E0
9.548741171E0,-5.774245858E-1,-4.045696259E-1,3.366754293E0,3.439786361E0
9.556953594E0,-4.797524214E-2,-7.477502823E-1,2.915695190E0,3.010433615E0
9.565166478E0,4.528909922E-1,-7.892389297E-1,2.388403893E0,2.555871963E0
9.573378863E0,6.992149353E-1,-4.784698486E-1,1.902517557E0,2.082644467E0
9.581592824E0,5.954965353E-1,7.213401794E-2,1.556602240E0,1.668181637E0
9.589837555E0,3.713132739E-1,5.322132111E-1,1.472474337E0,1.609131791E0
9.598048671E0,1.202467531E-1,8.968791962E-1,1.595053196E0,1.833861029E0
9.606278017E0,-9.550118446E-2,1.003212929E0,1.778923988E0,2.044535941E0
9.614489747E0,-1.495893598E-1,9.826765060E-1,1.878089428E0,2.124911761E0
9.622700863E0,-1.295835078E-1,7.920427322E-1,1.843718410E0,2.010825987E0
9.630910863E0,-2.122616768E-2,5.437536240E-1,1.710564733E0,1.795034890E0
9.639122017E0,2.038913965E-2,3.551168442E-1,1.478857994E0,1.521034075E0
9.647359132E0,5.603393912E-2,2.214088440E-1,1.205225706E0,1.226674644E0
9.655571170E0,4.275679588E-3,1.977977753E-1,9.355694056E-1,9.562595641E-1
9.663782863E0,-8.968904614E-2,2.532405853E-1,7.925679088E-1,8.368624792E-1
9.672027555E0,-1.760922074E-1,3.471240997E-1,6.498510242E-1,7.575024487E-1
9.680272670E0,-2.174412906E-1,3.669118881E-1,6.699135303E-1,7.941594214E-1
9.688511478E0,-2.641208768E-1,2.312717438E-1,8.108557463E-1,8.835912507E-1
9.696725401E0,-3.376093507E-1,6.227207184E-2,1.066317558E0,1.120219184E0
9.704951247E0,-4.600542486E-1,-1.162443161E-1,1.358825207E0,1.439294478E0
9.713164939E0,-5.671867132E-1,-3.379297256E-1,1.470094681E0,1.611544488E0
9.721377016E0,-6.760912538E-1,-5.812978745E-1,1.487001657E0,1.733834055E0
9.729615247E0,-7.373260260E-1,-6.189308167E-1,1.481351018E0,1.766670842E0
9.737826862E0,-7.629765272E-1,-4.604005814E-1,1.376280069E0,1.639587968E0
9.746057747E0,-8.369348645E-1,-5.062770844E-2,1.241014719E0,1.497711810E0
9.754302247E0,-9.222811460E-1,4.787425995E-1,1.152276754E0,1.551624538E0
9.762545285E0,-1.073697209E0,1.041567802E0,1.207706928E0,1.922562147E0
9.770781631E0,-1.300634384E0,1.443941116E0,1.347280741E0,2.364694725E0
9.778996131E0,-1.445964217E0,1.613882065E0,1.352550864E0,2.554373050E0
9.787210016E0,-1.572255135E0,1.501092911E0,1.266845465E0,2.515981631E0
9.795423131E0,-1.693733454E0,1.203822136E0,1.031733155E0,2.319998718E0
9.803635093E0,-1.793186903E0,9.089384079E-1,7.799293399E-1,2.156380781E0
9.811871016E0,-1.649883747E0,5.256519318E-1,7.892319560E-1,1.902974885E0
9.820082247E0,-1.424150229E0,5.406761169E-2,1.075842977E0,1.785655423E0
9.828296054E0,-1.117993116E0,-3.694381714E-1,1.438180447E0,1.858697438E0
9.836542400E0,-9.330033064E-1,-8.265151978E-1,1.633678675E0,2.054879207E0
9.844753747E0,-9.604396224E-1,-1.104358673E0,1.558360457E0,2.137882051E0
9.852983708E0,-1.149082661E0,-1.133565903E0,1.351767063E0,2.105382818E0
9.861197554E0,-1.138189197E0,-6.674776077E-1,1.156577110E0,1.754614378E0
9.869457131E0,-8.231701851E-1,5.934143066E-2,1.153937340E0,1.418697270E0
9.877671477E0,-5.926452875E-1,6.471300125E-1,1.276494741E0,1.549014046E0
9.885885862E0,-6.984153986E-1,1.296977997E0,1.358075857E0,2.003573315E0
9.894112054E0,-8.783096671E-1,1.692811012E0,1.080889702E0,2.192113031E0
9.902324592E0,-8.236211538E-1,1.746184349E0,6.324906349E-1,2.031638745E0
9.910538015E0,-4.290884733E-1,1.385360718E0,2.257616818E-1,1.467756646E0
9.918783362E0,7.397797704E-2,7.637243271E-1,2.212882042E-2,7.676179216E-1
9.926995708E0,7.150120139E-1,2.019596100E-2,3.303074837E-2,7.160594160E-1
9.935218785E0,1.278373957E0,-6.202020645E-1,2.546732724E-1,1.443519674E0
9.943432323E0,1.804152012E0,-1.056988716E0,5.199614763E-1,2.154657644E0
9.951645054E0,2.267147303E0,-1.254356384E0,7.419856787E-1,2.695164110E0
9.959858169E0,2.881140471E0,-1.327297211E0,8.080635667E-1,3.273477512E0
9.968069977E0,3.350777388E0,-1.163236618E0,8.445196152E-1,3.646099548E0
9.976299208E0,3.561911106E0,-8.411016464E-1,8.678116202E-1,3.761350783E0
9.984512515E0,3.486686707E0,-3.297481537E-1,5.135773420E-1,3.539700513E0
9.992781092E0,3.255944252E0,1.218309402E-1,1.098486185E-1,3.260073998E0
1.000099378E1,3.080542564E0,4.490451813E-1,-1.992956698E-1,3.119471563E0
1.000920640E1,2.791242361E0,8.027544022E-1,-4.397042692E-1,2.937479939E0
1.001743805E1,2.434248447E0,9.842691422E-1,-3.701719642E-2,2.625970586E0
1.002565025E1,2.224364758E0,9.695959091E-1,4.343880415E-1,2.465077640E0
1.003387394E1,2.160672188E0,9.453859329E-1,7.507376671E-1,2.475048668E0
1.004208752E1,1.551433086E0,9.235935211E-1,8.186100721E-1,1.982445980E0
1.005030102E1,5.213610530E-1,6.145629883E-1,1.252331734E0,1.489241346E0
1.005853225E1,3.356096745E-1,2.696847916E-1,1.978277445E0,2.024585239E0
1.006674298E1,9.024813771E-2,1.114778519E-1,2.126044750E0,2.130877359E0
1.007495594E1,-4.807955623E-1,1.446485519E-1,1.771573067E0,1.841346982E0
1.008320409E1,-1.433169365E0,2.471342087E-1,1.268626451E0,1.929886737E0
1.009141778E1,-2.271726131E0,2.969446182E-1,1.045793176E0,2.518451725E0
1.009964936E1,-2.988343239E0,2.295284271E-1,8.994506001E-1,3.129199577E0
1.010786344E1,-3.602473021E0,8.563137054E-2,9.677063227E-1,3.731166054E0
1.011607709E1,-4.051220894E0,-1.706514359E-1,1.163392305E0,4.218411348E0
1.012429128E1,-4.253218651E0,-4.675350189E-1,1.164317369E0,4.434421363E0
1.013250694E1,-4.547477722E0,-6.757640839E-1,9.183034897E-1,4.688229093E0
1.014073882E1,-4.620850086E0,-6.995840073E-1,4.498021603E-1,4.695103331E0
1.014895190E1,-4.513565063E0,-5.917243958E-1,-4.496730864E-3,4.552189315E0
1.015719913E1,-3.315329552E0,-3.067302704E-1,-4.515337944E-1,3.359966706E0
1.016544452E1,-1.894180179E0,-1.318969727E-1,-7.684198022E-1,2.048361382E0
1.017365655E1,-7.101953030E-1,1.866378784E-1,-1.123402596E0,1.342104488E0
1.018189067E1,-2.466857433E-2,4.789295197E-1,-1.445479155E0,1.522955026E0
1.019010586E1,2.824172974E-1,5.629968643E-1,-1.306970835E0,1.450826579E0
1.019835971E1,3.185442686E-1,2.448616028E-1,-6.092442274E-1,7.297987286E-1
1.020657644E1,9.551116824E-2,-2.504529953E-1,3.375578821E-1,4.310387568E-1
1.021479021E1,-1.454518437E-1,-7.098712921E-1,1.014602900E0,1.246792899E0
1.022302128E1,-2.114966810E-1,-1.016146660E0,1.345363021E0,1.699201736E0
1.023123563E1,-1.840098351E-1,-1.066317558E0,1.409446239E0,1.776916277E0
1.023950259E1,-8.430586755E-2,-1.015985489E0,1.245258451E0,1.609348502E0
1.024774840E1,1.374582052E-1,-9.106464386E-1,8.520715833E-1,1.254670346E0
1.025599551E1,3.540872931E-1,-6.688699722E-1,3.307245374E-1,8.259198330E-1
1.026422705E1,6.140335202E-1,-1.997022629E-1,-2.827429175E-1,7.048841856E-1
1.027244144E1,9.616990089E-1,3.747167587E-1,-7.469503284E-1,1.274053541E0
1.028065621E1,1.507611156E0,8.269195557E-1,-1.208276391E0,2.101575405E0
1.028887121E1,2.030519009E0,1.063547134E0,-1.466064215E0,2.720934441E0
1.029708801E1,2.276715279E0,1.051171303E0,-1.206430078E0,2.782780462E0
1.030531901E1,2.168730974E0,7.779417038E-1,-6.508786082E-1,2.394207655E0
1.031353248E1,1.888403535E0,2.607650757E-1,-3.009025455E-1,1.929924526E0
1.032177913E1,1.450712919E0,-2.967796326E-1,-1.260585934E-1,1.486114697E0
1.033002586E1,9.860367179E-1,-7.822275162E-1,-7.952407002E-3,1.258654654E0
1.033823971E1,4.598889649E-1,-1.145341873E0,2.896307409E-1,1.267750698E0
1.034648005E1,-3.034808487E-2,-1.302479744E0,6.886973381E-1,1.473661601E0
1.035469425E1,-3.009191751E-1,-1.337562561E0,9.923727512E-1,1.692462594E0
1.036294878E1,-3.576204181E-1,-1.212335587E0,9.752771258E-1,1.596500990E0
1.037116198E1,-2.721241713E-1,-1.101633072E0,6.721925735E-1,1.318897208E0
1.037937524E1,-7.852438092E-2,-1.034335136E0,2.422688454E-1,1.065227415E0
1.038761421E1,3.178483993E-2,-8.597745895E-1,-6.004312634E-2,8.624545193E-1
1.039582817E1,-5.634206347E-3,-4.272260666E-1,-1.615777612E-1,4.567945152E-1
1.040407644E1,-2.665206492E-1,2.059974670E-1,4.203405082E-1,5.386597773E-1
1.041232436E1,-1.124280810E0,5.515651703E-1,1.403002501E0,1.880597643E0
1.042057344E1,-1.884866834E0,3.513174057E-1,2.128890514E0,2.865016880E0
1.042880794E1,-2.442246199E0,-5.683994293E-2,2.468794346E0,3.473145951E0
1.043702336E1,-2.912528038E0,-7.756633759E-1,2.285537243E0,3.782612025E0
1.044523882E1,-3.335417271E0,-1.342966080E0,1.962319255E0,4.096249885E0
1.045345305E1,-3.960276365E0,-1.519254684E0,1.603331447E0,4.534599807E0
1.046166840E1,-4.432594299E0,-1.108180046E0,1.166857481E0,4.715666614E0
1.046990040E1,-4.936962128E0,4.481353760E-1,4.178847969E-1,4.974841512E0
1.047811613E1,-5.295295238E0,2.634887695E0,-4.111025631E-1,5.928894513E0
1.048638378E1,-4.977938652E0,4.413448334E0,-3.944562972E-1,6.664382581E0
1.049459998E1,-4.111099720E0,5.413100243E0,-9.669894576E-1,6.865701986E0
1.050281528E1,-3.579280853E0,5.375121117E0,-3.215955734E0,7.214260165E0
1.051104105E1,-2.759429455E0,3.162829399E0,-4.904391766E0,6.455307840E0
1.051925424E1,-3.674371839E-1,9.363365173E-2,-4.421544552E0,4.437773492E0
1.052749871E1,1.441470504E0,-1.829410553E0,-3.280318260E0,4.023066998E0
1.053571340E1,2.407976151E0,-2.484308243E0,-2.124028444E0,4.059757803E0
1.054392801E1,2.241014719E0,-2.582897663E0,-9.973653555E-1,3.562056283E0
1.055215378E1,9.534916878E-1,-2.228285313E0,-6.818685532E-1,2.517805901E0
1.056036940E1,-2.443944514E-1,-1.212704659E0,-6.061801910E-1,1.377619563E0
1.056858409E1,-8.555799127E-1,1.239681244E-1,-2.283072472E-1,8.941528292E-1
1.057679794E1,-1.024370551E0,1.334282875E0,3.736065626E-1,1.723144707E0
1.058504559E1,-8.562207818E-1,2.153455734E0,8.488684893E-1,2.468007970E0
1.059327513E1,-2.237532288E-1,2.344454765E0,1.092918038E0,2.596344255E0
1.060149147E1,5.578855276E-1,1.821234703E0,1.000969410E0,2.151760178E0
1.060970824E1,1.032447457E0,1.208911896E0,7.868134975E-1,1.773835168E0
1.061792309E1,1.325629354E0,4.770107269E-1,6.874043941E-1,1.567595999E0
1.062613820E1,1.350676656E0,-1.946516037E-1,6.264429092E-1,1.501548332E0
1.063436232E1,9.647010565E-1,-5.832185745E-1,9.134476185E-1,1.450923356E0
1.064257594E1,4.087722301E-1,-7.461137772E-1,1.366061449E0,1.609317988E0
1.065082432E1,-1.320724189E-1,-6.597614288E-1,1.836395621E0,1.955780444E0
1.065907178E1,-6.278407574E-1,-3.077793121E-1,2.250942230E0,2.357043285E0
1.066728513E1,-8.133777380E-1,1.273765564E-1,2.479883671E0,2.612973623E0
1.067551778E1,-7.371838093E-1,3.365468979E-1,2.267848492E0,2.408285814E0
1.068373140E1,-6.172431707E-1,3.797979355E-1,1.793451786E0,1.934348705E0
1.069198586E1,-5.964610577E-1,3.031616211E-1,1.069239497E0,1.261327025E0
1.070020171E1,-4.909667969E-1,1.598501205E-1,4.731630087E-1,7.003454073E-1
1.070841740E1,-4.073719978E-1,-1.361274719E-2,1.153237224E-1,4.235998258E-1
1.071665217E1,-5.165747404E-1,-1.451597214E-1,-1.566858292E-1,5.589912845E-1
1.072486497E1,-6.296949387E-1,-8.617973328E-2,-1.569522619E-1,6.546576775E-1
1.073313255E1,-5.643866062E-1,-5.212020874E-2,9.169250727E-2,5.741570110E-1
1.074138144E1,-3.682309687E-1,-5.265045166E-2,6.358469725E-1,7.366596831E-1
1.074962963E1,-8.277590573E-2,-1.378917694E-2,1.182362795E0,1.185336986E0
1.075786447E1,1.278863698E-1,9.281158447E-2,1.562043667E0,1.570015710E0
1.076607890E1,2.237099707E-1,1.732816696E-1,1.819208384E0,1.841084417E0
1.077429467E1,2.434223890E-1,1.650924683E-1,1.758035660E0,1.782470018E0
1.078250990E1,1.776872128E-1,1.469383240E-1,1.374160767E0,1.393370528E0
1.079072559E1,-8.429330587E-2,7.333850861E-2,6.286069155E-1,6.384595151E-1
1.079895982E1,-4.143440723E-1,3.559780121E-2,-1.709323525E-1,4.496288279E-1
1.080717513E1,-6.719697714E-1,1.131448746E-1,-7.511001825E-1,1.014148224E0
1.081539140E1,-7.219015360E-1,3.519515991E-1,-1.034617424E0,1.309749965E0
1.082363797E1,-6.794170141E-1,6.445350647E-1,-1.056435943E0,1.411768334E0
1.083188390E1,-6.500346661E-1,7.276487350E-1,-9.286174178E-1,1.346977378E0
1.084011605E1,-7.479904890E-1,6.946039200E-1,-7.185849547E-1,1.248330371E0
1.084833067E1,-9.278280139E-1,5.305528641E-1,-5.079702139E-1,1.183378597E0
1.085658451E1,-1.169204473E0,3.501853943E-1,-3.834128380E-1,1.279325727E0
1.086479763E1,-1.449235678E0,2.656641006E-1,-3.568590879E-1,1.515984786E0
1.087301113E1,-1.873089433E0,2.190608978E-1,-5.548861027E-1,1.965795078E0
1.088124901E1,-2.600320101E0,3.347997665E-1,-1.614616275E0,3.079081231E0
1.088946182E1,-3.965452194E0,7.141408920E-1,-3.842664242E0,5.567843101E0
1.089770886E1,-4.359935284E0,9.938936234E-1,-3.803134441E0,5.870322972E0
1.090595578E1,-3.465685368E0,8.966560364E-1,-1.642909884E0,3.938796771E0
1.091417040E1,-2.531741858E0,6.848888397E-1,3.388257027E-1,2.644540114E0
1.092240132E1,-2.377536297E0,4.477891922E-1,8.953207731E-1,2.579688603E0
1.093061390E1,-2.865977287E0,-7.536888123E-2,8.172681332E-1,2.981179881E0
1.093882766E1,-2.461526871E0,-1.201353073E-1,7.560985088E-1,2.577834747E0
1.094704113E1,-2.158475637E0,-1.159267426E-1,2.203445435E-1,2.172788026E0
1.095525370E1,-1.917773366E0,-2.439498901E-2,-7.553776503E-1,2.061321225E0
1.096348290E1,-1.848686457E0,1.821613312E-1,-1.736488223E0,2.542875482E0
1.097169532E1,-1.843900561E0,4.224872589E-1,-2.340905428E0,3.009701478E0
1.097992851E1,-1.850320578E0,6.983575821E-1,-2.542511463E0,3.221141737E0
1.098817251E1,-1.889863610E0,9.919595718E-1,-2.503006935E0,3.289469862E0
1.099638613E1,-1.942689657E0,1.346706390E0,-2.202644110E0,3.230990913E0
1.100461774E1,-2.020168543E0,1.676554680E0,-1.867860556E0,3.221927931E0
1.101283370E1,-1.788558483E0,1.942943573E0,-1.699346423E0,3.140342249E0
1.102108824E1,-1.472478509E0,1.927767754E0,-1.732288957E0,2.980823125E0
1.102930193E1,-1.077567458E0,1.662098885E0,-1.767901659E0,2.655033070E0
1.103751582E1,-5.833092928E-1,1.167760849E0,-1.757367849E0,2.189122402E0
1.104575509E1,-7.340557873E-2,6.291189194E-1,-1.676660776E0,1.792308665E0
1.105396901E1,2.700174153E-1,2.228603363E-1,-1.601867676E0,1.639681733E0
1.106218266E1,4.950736761E-1,-1.278572083E-1,-1.517238855E0,1.601080621E0
1.107042897E1,4.052817822E-1,-1.862545013E-1,-1.375986457E0,1.446472534E0
1.107867563E1,-1.936082542E-2,1.889705658E-2,-1.163601637E0,1.163916109E0
1.108691490E1,-6.133079529E-1,4.036245346E-1,-9.465808272E-1,1.197946022E0
1.109512974E1,-9.545109272E-1,8.189811707E-1,-8.927261829E-1,1.542329830E0
1.110334551E1,-1.019258022E0,1.058755875E0,-1.060536027E0,1.812343119E0
1.111156174E1,-9.893465042E-1,1.089173317E0,-1.266645789E0,1.941519141E0
1.111977866E1,-1.080243587E0,9.316892624E-1,-1.088803530E0,1.794565189E0
1.112802424E1,-1.384472609E0,1.045660019E0,-4.913325310E-1,1.803212948E0
1.113624093E1,-1.565626502E0,1.793987274E0,5.195120573E-1,2.437102678E0
1.114448990E1,-1.616632342E0,2.838168144E0,9.821498394E-1,3.410764849E0
1.115273893E1,-2.164611340E0,3.554305077E0,1.926629543E-1,4.166022785E0
1.116098743E1,-2.781948090E0,3.457840919E0,-1.262225389E0,4.614012563E0
1.116921213E1,-3.275693655E0,2.795921326E0,-2.223039389E0,4.846570860E0
1.117742555E1,-3.528923273E0,1.822333336E0,-2.634237051E0,4.765858065E0
1.118567016E1,-3.466362953E0,3.603372574E-1,-2.722111225E0,4.422149317E0
1.119388401E1,-3.416893482E0,-6.371183395E-1,-2.330424786E0,4.184729445E0
1.120209840E1,-2.725648165E0,-1.352839470E0,-8.095367551E-1,3.148758852E0
1.121032616E1,-1.694858432E0,-1.920776367E0,1.364550948E0,2.902400084E0
1.121854232E1,-3.365204036E-1,-1.487219810E0,-5.104080439E-1,1.607975472E0
1.122682382E1,1.071173191E0,-3.899774551E-1,-3.031864643E0,3.239089013E0
1.123506932E1,1.800752640E0,1.127372742E0,-4.117323875E0,4.633145288E0
1.124331540E1,1.976115108E0,2.334999084E0,-3.119480610E0,4.369028601E0
1.125153751E1,6.795268655E-1,2.983730316E0,-8.094499111E-1,3.165377153E0
1.125975090E1,-7.552677393E-1,3.569095612E0,1.845673084E0,4.088444934E0
1.126796416E1,-1.084929228E0,4.002127647E0,3.280699730E0,5.287446251E0
1.127617824E1,-1.153457522E0,4.122227669E0,3.173880816E0,5.328859600E0
1.128439193E1,-5.919053555E-1,3.560859680E0,2.649480343E0,4.477702502E0
1.129261759E1,7.720788121E-1,1.982283592E0,2.631436110E0,3.383786331E0
1.130083251E1,1.907335758E0,5.442247391E-1,2.817927837E0,3.445987167E0
1.130904905E1,2.700462103E0,-4.028959274E-1,2.962712288E0,4.028955795E0
1.131729966E1,3.315299511E0,-1.127034187E0,3.353534937E0,4.848465064E0
1.132554970E1,3.582369328E0,-1.390727997E0,3.198013544E0,4.999478472E0
1.133377743E1,3.856441736E0,-1.545659065E0,2.501654625E0,4.849688719E0
1.134199397E1,4.343704224E0,-1.568197250E0,1.805086851E0,4.958361376E0
1.135024174E1,4.698020935E0,-1.395617485E0,1.310199261E0,5.073043561E0
1.135845651E1,4.330917358E0,-1.049375534E0,7.772090435E-1,4.523503960E0
1.136667112E1,3.504971743E0,-7.309999466E-1,3.729740381E-1,3.599763530E0
1.137490355E1,3.003751278E0,-8.505725861E-1,4.646900296E-1,3.156252887E0
1.138311847E1,2.567666054E0,-1.022296906E0,8.701093793E-1,2.897428215E0
1.139136682E1,1.647546053E0,-1.241955757E0,5.860777497E-1,2.144842472E0
1.139961509E1,7.055200338E-1,-1.152997971E0,1.707334518E-1,1.362465688E0
1.140786305E1,6.538844109E-2,-1.073491096E0,-1.133188009E-1,1.081434202E0
1.141609774E1,-1.542222500E-1,-9.499034882E-1,4.780352116E-2,9.635280566E-1
1.142431528E1,-4.325008392E-2,-1.012969971E0,4.523011446E-1,1.110204962E0
1.143253078E1,5.176153183E-1,-1.250876427E0,8.277645111E-1,1.586761336E0
1.144074478E1,1.251844168E0,-1.639308929E0,1.002960801E0,2.293551385E0
1.144895909E1,1.782509804E0,-2.020041943E0,9.341903925E-1,2.851424616E0
1.145718443E1,1.965275764E0,-2.325643063E0,7.796285748E-1,3.143047120E0
1.146539901E1,2.064509630E0,-2.508494377E0,6.190621853E-1,3.307262016E0
1.147363393E1,1.972324610E0,-2.628553867E0,7.342275977E-1,3.367261493E0
1.148188066E1,1.915773988E0,-2.463192940E0,6.921629310E-1,3.196341495E0
1.149009262E1,1.768074989E0,-1.966809750E0,5.197389126E-1,2.695284456E0
1.149831559E1,1.656013966E0,-1.431344986E0,1.871846318E-1,2.196854299E0
1.150652732E1,1.584107161E0,-7.243566513E-1,-3.030222654E-1,1.768024476E0
1.151477393E1,1.328874111E0,3.759860992E-2,-1.071089029E0,1.707205836E0
1.152298839E1,7.117251158E-1,7.767181396E-1,-2.217257500E0,2.454806414E0
1.153120178E1,-1.946079731E-1,1.395075798E0,-3.207300901E0,3.502982703E0
1.153942478E1,-1.019873619E0,1.950009346E0,-4.065302849E0,4.622701148E0
1.154763682E1,-1.810359478E0,2.205204010E0,-4.384770870E0,5.231304020E0
1.155588212E1,-2.403702021E0,2.080672264E0,-3.866453886E0,5.005641430E0
1.156412643E1,-2.829635620E0,1.513152122E0,-2.892926216E0,4.320357529E0
1.157237359E1,-2.995776653E0,8.300113678E-1,-1.820160627E0,3.602302227E0
1.158060197E1,-2.612760544E0,1.577224731E-1,-6.353987455E-1,2.693534036E0
1.158881743E1,-1.524937034E0,-2.947645187E-1,2.632457018E-1,1.575315009E0
1.159703189E1,-5.147498846E-1,-3.017034531E-1,6.431180239E-1,8.772646180E-1
1.160524551E1,1.214485168E-1,5.913734436E-3,4.833969772E-1,4.984549649E-1
1.161345859E1,4.684729576E-1,4.004459381E-1,-6.276369095E-4,6.162988360E-1
1.162169278E1,7.729871273E-1,6.681566238E-1,-4.828596115E-1,1.130086624E0
1.162990693E1,1.220654249E0,6.189193726E-1,-7.016347051E-1,1.537969195E0
1.163815282E1,1.543354750E0,3.261003494E-1,-2.342597842E-1,1.594729748E0
1.164636582E1,1.623253345E0,-6.662273407E-2,5.331320763E-1,1.709859592E0
1.165457793E1,1.348192334E0,-5.972023010E-1,1.300493002E0,1.966101525E0
1.166280924E1,7.736790776E-1,-1.025680542E0,1.696044564E0,2.127714044E0
1.167102201E1,2.002383471E-1,-1.222506523E0,1.633319855E0,2.049963742E0
1.167927255E1,-6.755590439E-2,-1.085043907E0,1.245422721E0,1.653167213E0
1.168748489E1,-2.032958269E-1,-1.202249527E-1,7.059069276E-1,7.443707563E-1
1.169569828E1,-1.549224854E-1,1.499730110E0,-3.468888998E-2,1.508109644E0
1.170392428E1,3.488488197E-1,3.195442200E0,-6.672766805E-1,3.282956673E0
1.171214028E1,1.432453036E0,4.388233185E0,-1.137378931E0,4.754171118E0
1.172041012E1,2.582918167E0,5.093335152E0,-1.596742868E0,5.929849662E0
1.172865801E1,3.952155590E0,5.106135368E0,-1.756497025E0,6.691594280E0
1.173690662E1,4.711016655E0,4.506403923E0,-1.389706373E0,6.665781128E0
1.174513186E1,4.158261299E0,3.093699455E0,-1.016127944E0,5.281536647E0
1.175334520E1,2.229520559E0,9.539985657E-1,-1.140442014E0,2.679828945E0
1.176155989E1,6.409455538E-1,-9.013719559E-1,-1.025656581E0,1.508394520E0
1.176977374E1,-9.917795658E-2,-1.975868702E0,-5.028668046E-2,1.978995236E0
1.177798812E1,-4.723739624E-2,-2.253813744E0,1.768240452E0,2.865062313E0
1.178621070E1,2.243347764E-1,-2.087518215E0,3.369976521E0,3.970491171E0
1.179442332E1,2.150728106E-1,-1.989041805E0,3.443885326E0,3.982824344E0
1.180266939E1,-6.759393215E-2,-2.007993698E0,2.605327845E0,3.290036597E0
1.181091497E1,-9.986722469E-2,-2.089504719E0,1.847690821E0,2.791050842E0
1.181912939E1,-2.212469578E-1,-1.948780537E0,1.118163466E0,2.257650401E0
1.182736166E1,-2.796728015E-1,-1.396879196E0,7.531484365E-1,1.611434433E0
1.183557762E1,-7.242429256E-2,-3.933544159E-1,8.849391937E-1,9.711283907E-1
1.184382643E1,3.797333241E-1,5.901098251E-1,1.580968380E0,1.729707496E0
1.185204312E1,4.693268836E-1,1.400863647E0,2.141079903E0,2.601328474E0
1.186025928E1,4.037607014E-1,1.893346786E0,2.203184843E0,2.932883941E0
1.186848420E1,6.051620245E-1,1.948084831E0,2.197019815E0,2.998024625E0
1.187669993E1,8.068937659E-1,1.630112648E0,2.277469397E0,2.914654636E0
1.188494858E1,7.190364599E-1,8.077878952E-1,2.257412910E0,2.503087646E0
1.189314193E1,4.050918818E-1,-1.859750748E-1,2.150443554E0,2.196154284E0
1.190139059E1,1.605053842E-1,-9.131460190E-1,2.083630085E0,2.280594651E0
1.190961466E1,-2.926644683E-2,-1.268470764E0,1.856213093E0,2.248422036E0
1.191782789E1,-1.089084148E-1,-1.240003586E0,1.634311438E0,2.054371877E0
1.192604132E1,-3.239610791E-1,-9.139585495E-1,1.594866157E0,1.866512542E0
1.193425697E1,-5.671350360E-1,-5.586032867E-1,1.458494663E0,1.661591545E0
1.194247232E1,-7.031079531E-1,-1.238250732E-1,1.163434982E0,1.365018095E0
1.195071024E1,-4.937353432E-1,2.155590057E-1,7.883781195E-1,9.548718937E-1
1.195892332E1,-2.806199193E-1,3.518600464E-1,4.963027239E-1,6.699771825E-1
1.196718993E1,-1.363462210E-1,3.905696869E-1,3.459964395E-1,5.393037256E-1
1.197543739E1,-6.685709953E-2,3.629627228E-1,3.868863285E-1,5.346894809E-1
1.198368378E1,-1.097993851E-1,2.211637497E-1,4.216457605E-1,4.886250674E-1
1.199192285E1,-1.991833448E-1,8.246707916E-2,3.402599096E-1,4.028047047E-1
1.200013662E1,-3.219439387E-1,-1.371335983E-1,1.976850033E-1,4.019115375E-1
1.200839535E1,-4.122843742E-1,-3.826465607E-1,1.289409399E-2,5.626393634E-1
1.201660889E1,-4.859890342E-1,-5.033378601E-1,-1.637594104E-1,7.185760135E-1
1.202482201E1,-6.163229942E-1,-5.280885696E-1,-2.838740349E-1,8.598348901E-1
1.203306085E1,-6.284188628E-1,-4.831380844E-1,-3.893462420E-1,8.831325902E-1
1.204127539E1,-6.311105490E-1,-3.997993469E-1,-4.239128232E-1,8.589773714E-1
1.204952285E1,-5.881487727E-1,-2.900886536E-1,-4.608743787E-1,8.015457558E-1
1.205776932E1,-4.814061522E-1,-1.470861435E-1,-4.894334674E-1,7.020906893E-1
1.206598224E1,-4.126629829E-1,-2.997016907E-2,-4.764015079E-1,6.309891799E-1
1.207421997E1,-3.607065082E-1,9.194850922E-2,-5.175338387E-1,6.374990099E-1
1.208243382E1,-3.245407343E-1,1.993284225E-1,-7.265260220E-1,8.203039491E-1
1.209064832E1,-3.732677996E-1,2.491817474E-1,-9.753030539E-1,1.073609072E0
1.209886301E1,-3.585181534E-1,2.631759644E-1,-1.243548274E0,1.320685112E0
1.210707789E1,-3.688956201E-1,2.822866440E-1,-1.317760468E0,1.397233831E0
1.211531647E1,-3.931573331E-1,2.540798187E-1,-1.120606065E0,1.214449338E0
1.212352951E1,-4.223230779E-1,2.500467300E-1,-7.315093875E-1,8.809007511E-1
1.213174482E1,-3.704773784E-1,2.937984467E-1,-3.880439997E-1,6.116773339E-1
1.213999185E1,-2.626712024E-1,4.156799316E-1,-2.203229666E-1,5.388210981E-1
1.214823889E1,-3.987660110E-1,5.075778961E-1,-1.090764999E-1,6.546352687E-1
1.215647762E1,-5.938568711E-1,5.333776474E-1,-1.637499332E-1,8.148446102E-1
1.216469204E1,-6.932898164E-1,5.455207825E-1,-3.118281364E-1,9.356711390E-1
1.217295197E1,-8.202371001E-1,5.754709244E-1,-5.507787466E-1,1.143377852E0
1.218116601E1,-9.314973354E-1,6.550073624E-1,-6.950137615E-1,1.334078731E0
1.218938078E1,-9.791530967E-1,8.202762604E-1,-7.314078808E-1,1.471920996E0
1.219762093E1,-8.726778030E-1,1.002303123E0,-6.815614700E-1,1.493554196E0
1.220583301E1,-7.713638544E-1,1.031311035E0,-4.937840700E-1,1.379285088E0
1.221409997E1,-7.322251201E-1,9.432697296E-1,-2.592707872E-1,1.221938112E0
1.222231224E1,-7.764384151E-1,9.031772614E-1,-1.524388790E-2,1.191141534E0
1.223055881E1,-8.293382525E-1,9.155025482E-1,1.179047823E-1,1.240906278E0
1.223880278E1,-8.414165378E-1,9.991130829E-1,8.171176910E-2,1.308772538E0
1.224701828E1,-8.838336468E-1,1.120374680E0,-8.245062828E-2,1.429405276E0
1.225523243E1,-8.560185432E-1,1.155068398E0,-3.281906843E-1,1.474672803E0
1.226344616E1,-7.690278888E-1,1.086610794E0,-6.444615126E-1,1.479005596E0
1.227165897E1,-6.602740288E-1,8.675947189E-1,-9.284390211E-1,1.432020044E0
1.227989762E1,-6.179713607E-1,7.545557022E-1,-1.158172131E0,1.514135263E0
1.228811028E1,-5.743795037E-1,6.472673416E-1,-1.385741711E0,1.633752403E0
1.229635774E1,-6.475628018E-1,5.771236420E-1,-1.583879948E0,1.805847438E0
1.230460374E1,-7.166937590E-1,6.424255371E-1,-1.774782896E0,2.018963804E0
1.231281685E1,-6.149872541E-1,5.870275497E-1,-1.903407812E0,2.084651522E0
1.232104874E1,-6.301743984E-1,5.207195282E-1,-1.886327267E0,2.055845120E0
1.232926335E1,-7.744721174E-1,7.806558609E-1,-1.474552870E0,1.839439262E0
1.233749266E1,-1.019894361E0,1.438010216E0,-8.418511152E-1,1.953655852E0
1.234570839E1,-1.236452937E0,2.216099739E0,-2.450139523E-1,2.549499119E0
1.235392251E1,-1.478572011E0,2.806226730E0,-3.258419037E-2,3.172088489E0
1.236214601E1,-1.713459492E0,3.044003487E0,-1.492041349E-1,3.496306985E0
1.237035851E1,-2.000112057E0,2.974121094E0,-3.602720499E-1,3.602171632E0
1.237860497E1,-2.418051004E0,2.830923080E0,-1.049650908E0,3.868186032E0
1.238684981E1,-2.908139229E0,2.629558563E0,-2.142071009E0,4.467697418E0
1.239509497E1,-3.556598663E0,2.248122215E0,-3.907718658E0,5.742274171E0
1.240331893E1,-3.729440451E0,1.055369377E0,-5.118062019E0,6.420053694E0
1.241153243E1,-3.882019281E0,-3.478364944E-1,-5.404166222E0,6.663038082E0
1.241974566E1,-3.628339767E0,-1.465433121E0,-4.420209885E0,5.903439601E0
1.242795801E1,-3.078347206E0,-1.315523148E0,-3.800940514E0,5.064974971E0
1.243617197E1,-1.840658426E0,-8.807725906E-1,-2.998489857E0,3.626944336E0
1.244440481E1,9.298235178E-2,9.658527374E-2,-1.722205758E0,1.727416309E0
1.245261731E1,9.349903464E-1,1.184585571E0,-1.518340856E-1,1.516741083E0
1.246088581E1,5.016072989E-1,2.177519798E0,1.901159525E0,2.933872849E0
1.246909889E1,-4.792788029E-1,2.753545761E0,3.535526276E0,4.506846844E0
1.247734654E1,-6.887892485E-1,3.492727280E0,4.809119225E0,5.983410582E0
1.248556189E1,-3.026276827E-1,3.847821236E0,4.592554092E0,5.999072001E0
1.249377801E1,3.290345073E-1,3.853026390E0,4.150552273E0,5.672844105E0
1.250202408E1,1.185358524E0,3.500430107E0,4.014632225E0,5.456680096E0
1.251023670E1,1.993386507E0,3.137664795E0,4.083006859E0,5.521727550E0
1.251845047E1,3.080818653E0,2.151944160E0,4.515484333E0,5.874683481E0
1.252667343E1,3.837571621E0,1.335189819E0,4.530595303E0,6.085719480E0
1.253488597E1,4.084674835E0,2.184829712E-1,4.258485794E0,5.904828920E0
1.254310058E1,3.715457916E0,-4.941225052E-1,3.804363728E0,5.340596217E0
1.255134881E1,3.302565098E0,-1.120748520E0,3.333039761E0,4.824123497E0
1.255956504E1,2.770685673E0,-1.498857975E0,2.522592306E0,4.035684114E0
1.256779070E1,2.056193829E0,-1.718555450E0,1.656973243E0,3.150702497E0
1.257600650E1,1.970274210E0,-2.128194332E0,4.219261408E-1,2.930735956E0
1.258422181E1,1.726848245E0,-2.257146358E0,-2.799308300E-1,2.855709336E0
1.259243508E1,1.707455397E0,-2.099925518E0,-3.496028185E-1,2.728976593E0
1.260064850E1,1.677212358E0,-1.855652809E0,6.968086958E-1,2.596542123E0
1.260887416E1,1.313260674E0,-1.456274986E0,1.866487026E0,2.707242925E0
1.261708774E1,6.711589098E-1,-1.387263298E0,1.876221776E0,2.427995447E0
1.262530139E1,7.237839699E-2,-1.337430000E0,1.372225404E0,1.917540142E0
1.263354758E1,-1.678743362E-1,-1.305723190E0,1.189649343E0,1.774361971E0
1.264179524E1,1.792240143E-2,-1.421463013E0,1.490132451E0,2.059459403E0
1.265002766E1,5.042520761E-1,-1.505408287E0,1.754858732E0,2.366443204E0
1.265824270E1,1.082070947E0,-1.475415707E0,1.936389685E0,2.664082216E0
1.266649612E1,1.846786499E0,-1.608534336E0,1.782221198E0,3.028913251E0
1.267470977E1,2.511659145E0,-1.756045341E0,1.728923321E0,3.518707540E0
1.268292474E1,3.208406448E0,-1.998884678E0,1.810812235E0,4.191473827E0
1.269114885E1,3.662328720E0,-2.127914906E0,2.018519640E0,4.692024620E0
1.269936181E1,3.671479702E0,-2.223956585E0,1.934279799E0,4.708203950E0
1.270762731E1,3.384294510E0,-2.176750660E0,1.664296150E0,4.354488999E0
1.271584216E1,3.103941441E0,-1.941625595E0,1.162335038E0,3.841273898E0
1.272408935E1,2.887784243E0,-1.337022781E0,6.759123802E-1,3.253273013E0
1.273233020E1,3.013143063E0,-2.819013596E-1,2.425883412E-1,3.036008662E0
1.274054520E1,2.980831861E0,9.189643860E-1,-2.823325992E-1,3.132022641E0
1.274876139E1,2.231568098E0,1.815934181E0,-1.923455358E0,3.460808235E0
1.275697681E1,7.596005201E-1,2.574326515E0,-4.221500874E0,5.002521323E0
1.276519181E1,-4.416995049E-1,3.018622398E0,-5.475496292E0,6.268033127E0
1.277341500E1,-1.091182709E0,2.994112015E0,-5.301505566E0,6.185575779E0
1.278162847E1,-1.296902180E0,2.359601974E0,-4.353148460E0,5.118552360E0
1.278984270E1,-1.289277434E0,1.432941437E0,-3.292258978E0,3.815039533E0
1.279808970E1,-8.644341230E-1,5.515909195E-1,-2.209229469E0,2.435609522E0
1.280630300E1,-1.739672422E-1,-8.825969696E-2,-1.144922376E0,1.161422241E0
1.281452766E1,2.164705992E-1,-2.490358353E-1,-1.860414743E-1,3.788004722E-1
1.282274212E1,1.907407045E-1,-1.934509277E-1,3.715622425E-1,4.602866258E-1
1.283098927E1,2.090191841E-2,-1.204395294E-1,6.760895848E-1,6.870514516E-1
1.283920408E1,9.377396107E-2,-9.567737579E-2,7.361509800E-1,7.482419270E-1
1.284741974E1,1.674923897E-1,-7.171630859E-3,7.574106455E-1,7.757422373E-1
1.285565216E1,2.004427910E-1,1.302289963E-1,9.349581003E-1,9.650303380E-1
1.286386724E1,9.047508240E-2,2.522840500E-1,1.139124632E0,1.170229853E0
1.287211454E1,-2.395184040E-1,1.201019287E-1,1.212900400E0,1.242143679E0
1.288036177E1,-4.690219164E-1,-3.090610504E-1,1.088402033E0,1.224793565E0
1.288857666E1,-5.805282593E-1,-6.926412582E-1,8.640597463E-1,1.250345639E0
1.289681689E1,-6.562240124E-1,-1.145613670E0,4.853861630E-1,1.406648628E0
1.290503250E1,-9.088032246E-1,-1.478590965E0,-3.083974123E-2,1.735829955E0
1.291324720E1,-1.206292033E0,-1.509879112E0,-7.529824972E-1,2.074092101E0
1.292146197E1,-1.467511654E0,-4.497842789E-1,-1.362664819E0,2.052498906E0
1.292967681E1,-1.110486984E0,2.017373085E0,-6.888971329E-1,2.403654461E0
1.293790054E1,-2.570289373E-1,4.097023964E0,7.457448244E-1,4.172266120E0
1.294611389E1,3.812119365E-1,6.154372215E0,1.602501869E0,6.370999305E0
1.295438416E1,1.181779027E0,7.900558472E0,1.111713648E0,8.065440662E0
1.296263304E1,2.442056656E0,8.127072334E0,-3.126366138E-1,8.491801169E0
1.297084708E1,3.262434721E0,6.655449867E0,-1.103974462E0,7.493814306E0
1.297907204E1,2.857311010E0,3.239947319E0,-1.023581386E0,4.439504893E0
1.298728581E1,1.799461842E0,3.416080475E-1,-8.810988665E-1,2.032509333E0
1.299553170E1,8.032451868E-1,-1.759673119E0,-1.814634085E0,2.652272455E0
1.300374723E1,1.100962281E0,-3.394712448E0,-1.135630965E0,3.745109910E0
1.301196127E1,2.185561180E0,-3.919683933E0,9.947260618E-1,4.596746648E0
1.302018654E1,2.721113443E0,-3.644145489E0,2.502806425E0,5.191174695E0
1.302839996E1,2.280884266E0,-3.051721096E0,2.884636879E0,4.778761828E0
1.303661573E1,1.286363602E0,-2.617222786E0,2.340730667E0,3.739466069E0
1.304486281E1,-3.013730049E-3,-2.016302586E0,1.714437008E0,2.646654389E0
1.305311058E1,-9.492782354E-1,-1.146777153E0,1.047545791E0,1.820323925E0
1.306134297E1,-8.999382257E-1,-3.185729980E-1,1.072470427E0,1.435816973E0
1.306955700E1,-8.390593529E-2,5.521306992E-1,1.397062063E0,1.504550073E0
1.307777143E1,8.828406930E-1,1.071153641E0,1.373261690E0,1.952594551E0
1.308598473E1,1.824553132E0,1.316411972E0,1.079333663E0,2.495374875E0
1.309419793E1,2.565519810E0,1.461657524E0,9.490600824E-1,3.101459278E0
1.310242747E1,3.121021271E0,1.309067726E0,9.686702490E-1,3.520334378E0
1.311064150E1,3.119839668E0,9.093637466E-1,6.432358623E-1,3.312717065E0
1.311885612E1,2.514576435E0,4.229640961E-1,3.200634420E-1,2.569909314E0
1.312710227E1,1.497120976E0,1.463346481E-1,5.641800761E-1,1.606575303E0
1.313534950E1,6.355494857E-1,-8.344936371E-2,1.093900919E0,1.267874665E0
1.314358085E1,-2.884328365E-2,-2.978010178E-1,1.562395573E0,1.590785123E0
1.315179550E1,-7.670046687E-1,-3.868112564E-1,2.075676918E0,2.246409085E0
1.316004985E1,-1.336912751E0,-3.747053146E-1,2.364903688E0,2.742354688E0
1.316826404E1,-1.531038642E0,-4.415330887E-1,2.318375111E0,2.813164401E0
1.317647754E1,-1.552559853E0,-5.565156937E-1,1.963956356E0,2.564620124E0
1.318470704E1,-1.399363279E0,-6.766519547E-1,1.423385382E0,2.107629332E0
1.319292031E1,-1.085005403E0,-7.971334457E-1,7.725647688E-1,1.552261182E0
1.320119708E1,-7.796224356E-1,-9.319849014E-1,3.090213537E-1,1.253754839E0
1.320944323E1,-4.700465202E-1,-1.088073730E0,7.705992460E-2,1.187765299E0
1.321768962E1,-2.447082698E-1,-1.109516144E0,-1.085762382E-1,1.141357530E0
1.322592177E1,-5.134057999E-2,-1.079882622E0,-2.917651832E-1,1.119780896E0
1.323413562E1,-1.918660104E-1,-8.337869644E-1,-1.805676222E-1,8.744243445E-1
1.324235008E1,-2.430255711E-1,-5.051784515E-1,1.835055351E-1,5.898652198E-1
1.325056350E1,-4.014971852E-1,-2.307071686E-1,4.369223118E-1,6.366528834E-1
1.325877831E1,-4.965463877E-1,-5.382442474E-2,4.871127605E-1,6.976634040E-1
1.326701943E1,-6.320097446E-1,6.825351715E-2,4.058561325E-1,7.541976268E-1
1.327523481E1,-6.526917815E-1,6.104087830E-2,2.977050543E-1,7.199728119E-1
1.328348377E1,-6.379187107E-1,6.089782715E-2,1.005274057E-1,6.486559844E-1
1.329173062E1,-5.853779316E-1,4.859256744E-2,-2.743409872E-1,6.482989570E-1
1.329994454E1,-5.116977096E-1,5.546760559E-2,-7.164216042E-1,8.821400774E-1
1.330818400E1,-5.378530025E-1,1.657295227E-1,-9.053140879E-1,1.065995180E0
1.331639623E1,-5.780204535E-1,3.053770065E-1,-1.081954241E0,1.264115398E0
1.332461812E1,-4.895420969E-1,4.269418716E-1,-1.016278863E0,1.206131649E0
1.333282970E1,-4.007883072E-1,3.764839172E-1,-8.419991136E-1,1.005650990E0
1.334104173E1,-3.815433085E-1,3.192644119E-1,-6.025395393E-1,7.813827215E-1
1.334927946E1,-3.549994826E-1,3.364706039E-1,-4.520633221E-1,6.660317914E-1
1.335749154E1,-4.070966244E-1,4.205656052E-1,-3.740868568E-1,6.946539184E-1
1.336570466E1,-5.327872038E-1,6.024293900E-1,-4.487018585E-1,9.209325340E-1
1.337395192E1,-7.177657485E-1,7.908754349E-1,-5.720193386E-1,1.211560047E0
1.338216331E1,-8.186652660E-1,9.093484879E-1,-6.273723841E-1,1.375035854E0
1.339040085E1,-7.829778194E-1,9.193687439E-1,-6.403450966E-1,1.366870512E0
1.339861381E1,-8.280196786E-1,9.643926620E-1,-7.221938372E-1,1.461928088E0
1.340682569E1,-8.765639067E-1,1.013277054E0,-7.717393637E-1,1.546181204E0
1.341503796E1,-9.933243990E-1,1.046787262E0,-7.793713808E-1,1.640084352E0
1.342325089E1,-1.104895830E0,1.146582603E0,-6.605528593E-1,1.723884144E0
1.343148708E1,-1.059525132E0,1.228603363E0,-3.784190416E-1,1.665911372E0
1.343969973E1,-9.665477872E-1,1.208601952E0,-2.085253000E-1,1.561542860E0
1.344796719E1,-8.083764315E-1,1.174979210E0,-2.433794737E-1,1.446817945E0
1.345617958E1,-6.643278599E-1,1.127749443E0,-4.541627169E-1,1.385429206E0
1.346442581E1,-5.392646790E-1,1.105696678E0,-8.190990686E-1,1.477936001E0
1.347266631E1,-4.922428131E-1,1.179017067E0,-1.303567767E0,1.825287143E0
1.348088016E1,-4.970488846E-1,1.300868034E0,-1.608751297E0,2.127767838E0
1.348913973E1,-7.158123255E-1,1.625324249E0,-1.710387349E0,2.465662403E0
1.349735377E1,-4.634229839E-1,1.793277740E0,-1.587415695E0,2.439363545E0
1.350556704E1,-1.413202435E-1,1.498328209E0,-1.432005286E0,2.077401736E0
