"Time (s)","Linear Acceleration x (m/s^2)","Linear Acceleration y (m/s^2)","Linear Acceleration z (m/s^2)","Absolute acceleration (m/s^2)"
1.501380600E-2,1.479283333E0,1.713917732E0,-1.096747518E-1,2.266676360E0
2.322426800E-2,3.262629509E-1,8.019614220E-1,2.627921104E-1,9.047924230E-1
3.143542100E-2,-7.550911903E-1,-1.757502556E-1,2.697197199E-1,8.208529621E-1
3.965899800E-2,-5.836596489E-1,6.063938141E-2,-5.680277348E-1,8.166953090E-1
4.786915200E-2,-4.711046219E-1,6.517701149E-1,-1.135581613E0,1.391506179E0
5.607922900E-2,-4.452376366E-1,6.384158134E-1,-1.039482236E0,1.298589474E0
6.428869100E-2,-3.181309700E-1,3.998489380E-1,-8.583508134E-1,9.989257260E-1
7.249865200E-2,-2.324671745E-1,2.995147705E-1,-5.550746322E-1,6.722037877E-1
8.070807500E-2,-2.522940636E-1,2.574181557E-1,-2.942618132E-1,4.653024995E-1
8.891749800E-2,-3.315806389E-1,2.235617638E-1,-2.680323124E-1,4.814217515E-1
9.712746000E-2,-4.397654533E-1,2.774524689E-1,-4.538732767E-1,6.901988683E-1
1.053368830E-1,-5.687956810E-1,3.074831963E-1,-6.508275270E-1,9.174153436E-1
1.135471520E-1,-6.123528481E-1,1.173310280E-1,-7.625622749E-1,9.850095450E-1
1.217583440E-1,-3.425121307E-2,4.988670349E-1,-7.524082661E-1,9.034155539E-1
1.299680360E-1,-1.030912399E-1,3.566002846E-1,-1.660628319E-1,4.066551744E-1
1.381774210E-1,-8.016681671E-1,-6.588444710E-1,3.127563000E-1,1.083773219E0
1.463867290E-1,-1.070647240E0,-1.167649269E0,4.762559533E-1,1.654240025E0
1.545953060E-1,-6.524519920E-1,-7.818164825E-1,1.011476517E-1,1.023309074E0
1.628042670E-1,-3.884305954E-1,-4.548077583E-1,-4.225907326E-1,7.323328149E-1
1.710137290E-1,-3.563852310E-1,-5.310983658E-1,-2.408983707E-1,6.834529479E-1
1.792234210E-1,-3.216667175E-1,-8.775348663E-1,3.675783873E-1,1.004316081E0
1.874320750E-1,-3.035206795E-1,-1.141279697E0,6.705731153E-1,1.358054658E0
1.956424210E-1,-2.665805817E-1,-1.013321877E0,8.459945321E-1,1.346697138E0
2.038519980E-1,-1.882553101E-1,-9.269604683E-1,7.924007177E-1,1.233934629E0
2.120628440E-1,-1.212844849E-1,-7.276663780E-1,6.032540798E-1,9.529552816E-1
2.202736130E-1,-9.885168076E-2,-5.065846443E-1,5.394948721E-1,7.466286719E-1
2.284836130E-1,1.448712349E-1,-9.184646606E-2,7.085786462E-1,7.290453661E-1
2.366936130E-1,-3.017210960E-1,-3.618941307E-1,8.635506034E-1,9.837289394E-1
2.449048820E-1,-1.076517105E-1,-2.789521217E-1,1.302733898E0,1.336607192E0
2.531165360E-1,9.607410431E-2,-1.845407486E-2,1.097146988E0,1.101500022E0
2.613279970E-1,2.656426430E-1,1.638875008E-1,8.651623726E-1,9.197451047E-1
2.695383440E-1,2.738389969E-1,3.948249817E-1,9.243768454E-1,1.041799940E0
2.777495360E-1,1.969609261E-1,5.437788963E-1,8.312776685E-1,1.012675494E0
2.859731510E-1,1.338696480E-1,5.771756172E-1,5.291703343E-1,7.944016733E-1
2.941839970E-1,-3.935670853E-2,6.764698029E-1,1.854769737E-1,7.025397159E-1
3.023946510E-1,-2.773313522E-1,6.183085442E-1,-2.947276831E-2,6.782969695E-1
3.106035360E-1,-4.433917999E-1,5.865664482E-1,-3.118076622E-1,7.986742168E-1
3.188139590E-1,-4.889578819E-1,7.307748795E-1,-4.218288362E-1,9.752185918E-1
3.270244970E-1,-5.645895004E-1,9.813179970E-1,-3.056637645E-1,1.172679262E0
3.352348430E-1,-7.288312912E-1,1.308537483E0,-2.947179675E-1,1.526539903E0
3.434451130E-1,-6.878151894E-1,1.343460560E0,-3.389475942E-1,1.546887676E0
3.516554970E-1,-5.588226318E-1,1.212947845E0,-4.185612202E-1,1.399542320E0
3.598664970E-1,-2.095847130E-1,1.371502399E0,-6.092419028E-1,1.515295443E0
3.680775350E-1,-2.461175919E-1,1.273480415E0,-5.535447598E-1,1.410226237E0
3.762896890E-1,-1.003689766E-1,1.369202137E0,-3.704777360E-1,1.421985294E0
3.845014970E-1,2.455282211E-1,1.530985355E0,-2.413885444E-1,1.569225508E0
3.927118820E-1,-3.064727783E-2,1.253874779E0,5.996610969E-2,1.255681946E0
4.009225350E-1,7.424097061E-1,7.416763306E-1,6.254600883E-1,1.221661276E0
4.091319580E-1,1.901575565E0,5.751442909E-1,7.092636824E-1,2.109463334E0
4.173427280E-1,1.262377739E0,1.115417004E0,2.394334823E-1,1.701493767E0
4.255524970E-1,-7.239794731E-1,1.066270828E0,1.043136269E-1,1.293043344E0
4.337628430E-1,-1.545238972E0,6.162281036E-1,-8.026508614E-3,1.663600006E0
4.419733430E-1,-1.337830544E0,5.896778107E-1,-2.550843358E-1,1.484108656E0
4.501834200E-1,-1.116298199E0,1.023474693E0,-5.868909955E-1,1.624211549E0
4.583934580E-1,-9.952630997E-1,1.204601288E0,-1.002922654E0,1.856735509E0
4.666036890E-1,-9.480772018E-1,9.196405411E-1,-9.329661131E-1,1.617100762E0
4.748137270E-1,-8.382730484E-1,4.206542969E-1,-6.091934443E-1,1.118377572E0
4.830233810E-1,-6.473765373E-1,-6.368732452E-2,-5.555677414E-1,8.554577556E-1
4.912335350E-1,-5.321826935E-1,-2.620129585E-1,-8.016697168E-1,9.972680405E-1
4.994440350E-1,-3.926315308E-1,-3.432326317E-1,-9.791691303E-1,1.109387373E0
5.076543810E-1,-2.605714798E-1,-2.877597809E-1,-1.228494883E0,1.288372176E0
5.158652270E-1,-5.931138992E-2,-2.417969704E-1,-1.247835159E0,1.272429252E0
5.240752270E-1,-1.077594757E-1,3.631086349E-1,1.521065950E0,1.567514469E0
5.322975730E-1,-6.193618774E-1,9.274005890E-1,2.600339055E-1,1.145119478E0
5.405093040E-1,-1.097322941E0,4.272460938E-1,1.090107441E0,1.604677879E0
5.487216890E-1,-1.046821594E0,1.444549561E-1,-4.822057486E-1,1.161561479E0
5.569332270E-1,-7.049875259E-1,-1.455707550E-1,-1.504656553E0,1.667989688E0
5.651443040E-1,-5.160803795E-1,-4.655399323E-1,-1.943526864E0,2.064064693E0
5.733557270E-1,-3.745942116E-1,-4.322185516E-1,-1.792938113E0,1.881956635E0
5.815675350E-1,-8.203535080E-1,-7.010731697E-1,-1.648110151E0,1.969962065E0
5.897793810E-1,-1.286202908E0,-1.228196621E0,-1.260405302E0,2.179772095E0
5.979900730E-1,-1.757186174E0,-1.645718098E0,-9.109860659E-1,2.574099245E0
6.062017650E-1,-1.788781881E0,-1.928826332E0,-7.126327753E-1,2.725427877E0
6.144129190E-1,-1.217830181E0,-2.100584507E0,-6.440722942E-1,2.512049908E0
6.226244960E-1,-2.679715157E-1,-2.149814129E0,-3.548176587E-1,2.195314349E0
6.308364580E-1,8.561019897E-1,-2.116360664E0,6.909924746E-2,2.284002580E0
6.390472270E-1,1.678806782E0,-1.782052517E0,7.934246063E-1,2.573640610E0
6.472578420E-1,1.848377228E0,-1.417685986E0,1.321332097E0,2.678105756E0
6.554681500E-1,1.779847145E0,-1.193808079E0,1.309980512E0,2.511788711E0
6.636798040E-1,1.666780472E0,-9.665102959E-1,1.013256073E0,2.176921487E0
6.718924960E-1,1.404736042E0,-3.611946106E-1,7.973631024E-1,1.655153410E0
6.801047650E-1,1.101068497E0,7.055559158E-1,7.323120832E-1,1.498813521E0
6.883169960E-1,2.065516949E0,2.119784355E0,5.550583601E-1,3.011301340E0
6.965288030E-1,7.391409874E-1,1.595388412E0,7.339106202E-1,1.905313198E0
7.047395340E-1,1.088633060E0,1.600800514E0,8.802834153E-1,2.126636574E0
7.129507260E-1,3.910121918E-1,9.274940491E-1,8.186007738E-1,1.297398540E0
7.211636880E-1,1.916041374E-1,6.305894852E-1,3.788370490E-1,7.601794222E-1
7.293759960E-1,-5.413246155E-2,1.000333786E0,-4.740663767E-1,1.108303630E0
7.375866880E-1,-3.800950050E-1,1.334001541E0,-1.010124445E0,1.715920662E0
7.457979570E-1,-3.988533020E-1,1.794256210E0,-8.169566989E-1,2.011431717E0
7.540089570E-1,-6.415195465E-1,1.991629601E0,-4.881013036E-1,2.148575965E0
7.622197650E-1,-7.982568741E-1,1.838187218E0,-3.257203102E-2,2.004297189E0
7.704303420E-1,-9.676735401E-1,1.408340454E0,1.870169789E-1,1.718950338E0
7.786553800E-1,-9.970257282E-1,9.321222305E-1,1.227854788E-1,1.370397179E0
7.868667650E-1,-7.764980793E-1,4.109191895E-1,-2.467824519E-1,9.125269453E-1
7.950781880E-1,-2.941746712E-1,1.366624832E-1,-6.916397810E-1,7.639247071E-1
8.032899570E-1,1.646518707E-2,-1.242389679E-1,-9.677683711E-1,9.758493960E-1
8.115015340E-1,2.817916870E-1,-4.987306595E-1,-9.748365283E-1,1.130683458E0
8.197137650E-1,2.469239235E-1,-1.023460865E0,-7.757910490E-1,1.307782596E0
8.279248800E-1,1.409010887E-1,-1.436947823E0,-5.689806938E-1,1.551905665E0
8.361370720E-1,5.145168304E-2,-1.791530132E0,-5.880496502E-1,1.886274074E0
8.443481110E-1,2.572727203E-2,-2.034318447E0,-6.936578155E-1,2.149482403E0
8.525593410E-1,5.123281479E-2,-2.248960018E0,-9.345380664E-1,2.435940755E0
8.607724570E-1,1.586499214E-1,-2.272711277E0,-1.206364632E0,2.577925905E0
8.689840340E-1,4.810109138E-1,-2.242969990E0,-1.342259526E0,2.657808592E0
8.771966490E-1,8.492197990E-1,-2.307524681E0,-1.367659092E0,2.813598374E0
8.854080720E-1,7.992925644E-1,-2.220016003E0,-1.155947566E0,2.627461595E0
8.936206100E-1,7.512445450E-1,-1.902808666E0,-9.202932119E-1,2.243209483E0
9.018325720E-1,6.613121033E-1,-1.704847336E0,-7.429023981E-1,1.973763438E0
9.100449180E-1,5.513324738E-1,-1.561461926E0,-6.474477649E-1,1.778009969E0
9.182564950E-1,3.638916016E-1,-1.340909481E0,-5.102010369E-1,1.480121763E0
9.264679950E-1,1.118049622E-1,-1.078267574E0,-3.699203730E-1,1.145426730E0
9.346779560E-1,-1.117682457E-1,-9.087238312E-1,-5.487189293E-1,1.067409765E0
9.428876870E-1,-1.286039352E-1,-6.712770462E-1,-8.461351395E-1,1.087702404E0
9.510981870E-1,-2.815713882E-1,-5.585384369E-1,-1.100620985E0,1.265943990E0
9.593098020E-1,-4.653563499E-1,-4.855766296E-1,-1.123749971E0,1.309639337E0
9.675206100E-1,-6.976277828E-1,-5.464468002E-1,-1.018077493E0,1.349729754E0
9.757322250E-1,-8.932766914E-1,-6.184778214E-1,-9.101668596E-1,1.417343210E0
9.839437640E-1,-9.639348984E-1,-4.956092834E-1,-9.839218855E-1,1.463865201E0
9.921554560E-1,-8.914232254E-1,-4.958028793E-1,-1.188221931E0,1.565990811E0
1.000367764E0,-7.184402943E-1,-4.947443008E-1,-1.244729638E0,1.519960609E0
1.008580033E0,-6.893651485E-1,-5.257902145E-1,-1.017535210E0,1.336808723E0
1.016792571E0,-7.193772793E-1,-6.096420288E-1,-6.745764613E-1,1.159405225E0
1.025016764E0,-6.738157272E-1,-6.350927353E-1,-3.445281088E-1,9.879625673E-1
1.033227610E0,-6.186089516E-1,-6.707792282E-1,-1.926372200E-2,9.126844465E-1
1.041438725E0,-5.708231926E-1,-8.552966118E-1,2.682573199E-1,1.062700993E0
1.049648648E0,-2.909622192E-1,-1.180290222E0,3.343354762E-1,1.260763353E0
1.057859610E0,-1.744604111E-1,-1.376251698E0,1.345867515E-1,1.393778592E0
1.066070764E0,-7.599306107E-2,-1.404692650E0,-1.186839566E-1,1.411744406E0
1.074282302E0,2.636432648E-3,-1.176347256E0,-2.042439431E-1,1.193949499E0
1.082494302E0,-7.755661011E-2,-7.692093849E-1,-5.426817760E-2,7.750117036E-1
1.090703110E0,-2.905368805E-1,-4.131031036E-1,7.833916694E-2,5.110801094E-1
1.098913110E0,-5.395574570E-1,-4.612636566E-2,1.802909374E-1,5.707492559E-1
1.107124187E0,-5.468358994E-1,4.886407852E-1,-2.278538793E-2,7.337019093E-1
1.115337686E0,-5.682535172E-1,1.168491364E0,-4.227015376E-1,1.366367709E0
1.123551802E0,-6.114764214E-1,1.838174820E0,-7.105787396E-1,2.063422455E0
1.131763148E0,-4.165697098E-1,2.455307007E0,-8.974892497E-1,2.647177700E0
1.139974225E0,-1.353974342E-1,3.455498695E0,-9.747846723E-1,3.592910917E0
1.148185109E0,1.096553802E-1,4.561410904E0,-6.801485419E-1,4.613143806E0
1.156396532E0,3.874788284E-1,5.483249664E0,5.206048489E-3,5.496925852E0
1.164608609E0,6.563467979E-1,6.275271416E0,6.584542990E-1,6.343767376E0
1.172820186E0,9.464077950E-1,6.833649635E0,1.142456055E0,6.992829248E0
1.181031994E0,1.362058163E0,7.090373993E0,1.162641525E0,7.313025442E0
1.189243148E0,2.166556835E0,7.264891624E0,1.001012802E0,7.646871613E0
1.197455609E0,2.703815460E0,7.032962799E0,9.857687354E-1,7.599008078E0
1.205668148E0,3.009854794E0,6.529028893E0,9.096154571E-1,7.246712664E0
1.213880302E0,3.312919617E0,5.972536087E0,5.267201662E-1,6.850113709E0
1.222091148E0,3.634583473E0,5.475844383E0,-2.754381299E-1,6.578064677E0
1.230303301E0,4.175351143E0,5.131039619E0,-1.519660354E0,6.787524757E0
1.238516994E0,5.223114967E0,5.063082695E0,-3.509689808E0,8.076735658E0
1.246728648E0,5.843703270E0,5.217735291E0,-5.308357716E0,9.463207231E0
1.254942032E0,5.026508331E0,5.581951141E0,-5.532051086E0,9.328855973E0
1.263155224E0,3.729662418E0,5.947047234E0,-4.329943657E0,8.247797562E0
1.271381301E0,2.991892815E0,6.274043083E0,-2.929039717E0,7.542831888E0
1.279594032E0,2.433368206E0,6.502334595E0,-1.447921991E0,7.092116334E0
1.287807070E0,2.036510944E0,6.552024841E0,-4.369114041E-1,6.875121666E0
1.296019878E0,1.991829872E0,6.424102783E0,8.072251081E-2,6.726291618E0
1.304231955E0,2.220743656E0,5.962031364E0,5.483214855E-1,6.385779266E0
1.312444609E0,2.002732277E0,4.762339592E0,1.500635386E0,5.379844005E0
1.320657378E0,1.893060684E0,3.613570213E0,2.255685329E0,4.661510994E0
1.328870224E0,1.730822086E0,2.631169319E0,2.913191319E0,4.290160922E0
1.337084263E0,1.593349934E0,1.927807808E0,3.599158287E0,4.382824127E0
1.345296263E0,1.111767769E0,1.132950783E0,3.740483284E0,4.063350864E0
1.353509724E0,7.474737167E-1,4.306488037E-1,3.352583170E0,3.461789893E0
1.361723224E0,4.366636276E-1,-4.278435707E-1,2.822808266E0,2.888247176E0
1.369936109E0,-5.111942291E-1,-1.678293228E0,2.352096558E0,2.934339094E0
1.378149070E0,-1.553476810E0,-2.940711021E0,1.723812222E0,3.746011224E0
1.386361224E0,-2.590551853E0,-4.190523148E0,8.282219172E-1,4.995737653E0
1.394573224E0,-3.489710808E0,-5.356049538E0,2.655982971E-4,6.392601055E0
1.402785762E0,-4.265163422E0,-6.173666954E0,-5.964416265E-1,7.527385023E0
1.410999262E0,-4.784358501E0,-6.907932758E0,-1.165756464E0,8.483431464E0
1.419212762E0,-4.979688168E0,-7.425496578E0,-1.395627856E0,9.048926499E0
1.427425724E0,-5.169280529E0,-7.582055092E0,-1.354343414E0,9.275950986E0
1.435639608E0,-5.191406250E0,-7.529400349E0,-1.219020247E0,9.226514988E0
1.443853031E0,-5.047336102E0,-7.412491322E0,-9.647421241E-1,9.019498693E0
1.452066685E0,-4.892865181E0,-7.056593895E0,-5.186229944E-1,8.602593614E0
1.460280954E0,-4.716367245E0,-6.542471886E0,-1.196446419E-1,8.066125043E0
1.468493339E0,-4.474382877E0,-6.095672607E0,2.457714081E-2,7.561609002E0
1.476707377E0,-3.923179865E0,-5.596879005E0,2.330625057E-2,6.834979008E0
1.484918954E0,-3.310015202E0,-5.263010025E0,8.797645569E-3,6.217358970E0
1.493130954E0,-2.856793880E0,-4.993455887E0,1.297584772E-1,5.754364451E0
1.501343108E0,-2.688117743E0,-4.960117340E0,4.227102995E-1,5.657510497E0
1.509556108E0,-2.692235231E0,-5.061270714E0,5.296005011E-1,5.757175390E0
1.517782339E0,-2.760889292E0,-5.255904675E0,3.081064224E-1,5.944911538E0
1.525995723E0,-2.572364092E0,-5.210495472E0,-5.565730333E-1,5.837473223E0
1.534209262E0,-2.426385880E0,-4.946841240E0,-1.452219963E0,5.698028564E0
1.542422569E0,-2.798093796E0,-4.564041138E0,-1.877501249E0,5.673165901E0
1.550636300E0,-3.497462273E0,-4.316817760E0,-1.652998686E0,5.796512967E0
1.558850069E0,-4.010353565E0,-3.953902721E0,-1.449957371E0,5.815381228E0
1.567063185E0,-4.306663990E0,-3.514898777E0,-1.269850492E0,5.702138933E0
1.575275916E0,-4.506620407E0,-2.979617596E0,-1.014728427E0,5.497037592E0
1.583486839E0,-4.372145176E0,-2.514511585E0,-1.140743494E0,5.171046091E0
1.591698069E0,-3.781935453E0,-2.018689632E0,-1.609158754E0,4.579032158E0
1.599909262E0,-3.378463030E0,-1.634119034E0,-1.692222476E0,4.116791757E0
1.608119992E0,-2.875108004E0,-1.321419239E0,-1.327480793E0,3.431413716E0
1.616331262E0,-2.159649134E0,-1.122778893E0,-9.721720219E-1,2.621037059E0
1.624543685E0,-1.534416676E0,-9.033751488E-1,-8.325931430E-1,1.965637946E0
1.632756877E0,-9.906678200E-1,-6.282401085E-1,-8.599321246E-1,1.454507347E0
1.640970031E0,-1.966319084E-1,-1.863303185E-1,-1.167151093E0,1.198175601E0
1.649183338E0,7.634348869E-1,6.527266502E-1,-2.057232380E0,2.289342694E0
1.657397761E0,1.236490726E0,2.035477161E0,-3.159725904E0,3.956759328E0
1.665610377E0,1.537118435E0,3.364965916E0,-4.013576984E0,5.458436489E0
1.673823800E0,2.142682552E0,4.692174911E0,-4.516709328E0,6.856256783E0
1.682036569E0,2.850422859E0,5.738790035E0,-3.924273729E0,7.513890194E0
1.690248454E0,3.145620823E0,6.641134262E0,-2.202242613E0,7.671340637E0
1.698462223E0,2.948894024E0,7.129179001E0,4.882833362E-2,7.715150899E0
1.706673877E0,2.788910866E0,6.789372921E0,1.768967867E0,7.550023562E0
1.714886607E0,3.312027454E0,5.729794025E0,2.149581671E0,6.958503201E0
1.723098607E0,4.423056126E0,4.404054642E0,1.089762807E0,6.336142814E0
1.731310415E0,5.461641788E0,3.419151783E0,-4.126167893E-1,6.456809007E0
1.739521915E0,7.014504433E0,3.111710072E0,-3.066737413E0,8.263830248E0
1.747733223E0,7.931755543E0,3.579705238E0,-5.960843086E0,1.054792330E1
1.755945992E0,7.090020657E0,4.661245823E0,-7.042691708E0,1.102701737E1
1.764170722E0,4.803185940E0,5.937473297E0,-5.696319580E0,9.527446724E0
1.772382953E0,2.691797733E0,7.309705257E0,-2.559386730E0,8.199269871E0
1.780594876E0,9.038686752E-1,8.347010612E0,7.837325931E-1,8.432307011E0
1.788805838E0,-4.022355080E-1,8.566717148E0,3.495406151E0,9.261117657E0
1.797017530E0,-7.924880981E-1,7.777109146E0,5.174869061E0,9.375005805E0
1.805228184E0,-4.891352654E-1,6.014227390E0,6.144945145E0,8.612231722E0
1.813439645E0,3.047418594E-1,3.934154034E0,5.794059753E0,7.010104421E0
1.821652030E0,1.148822784E0,1.806035042E0,4.380200386E0,4.875214024E0
1.829861761E0,1.866870880E0,-9.818029404E-2,2.187556267E0,2.877542124E0
1.838072107E0,2.311841965E0,-1.676173210E0,2.870061062E-2,2.855694946E0
1.846283107E0,2.279214859E0,-2.917095661E0,-1.523026109E0,4.002983387E0
1.854495184E0,1.876904488E0,-3.769451141E0,-2.236739874E0,4.768074834E0
1.862706799E0,1.148236752E0,-4.157973289E0,-2.122552395E0,4.807537642E0
1.870917645E0,2.932448387E-1,-4.283888817E0,-1.434921503E0,4.527327650E0
1.879128414E0,-7.604637146E-1,-4.122274399E0,-5.812620521E-1,4.231940082E0
1.887337991E0,-1.692275047E0,-3.652527809E0,1.078808308E-1,4.026958220E0
1.895549491E0,-2.422406673E0,-3.325833321E0,7.180299163E-1,4.176695863E0
1.903761530E0,-2.837534666E0,-3.260509968E0,1.013500929E0,4.439562182E0
1.911974107E0,-2.860942602E0,-3.327220917E0,1.065417290E0,4.515584747E0
1.920185876E0,-2.784962416E0,-3.292886257E0,1.006221056E0,4.428498207E0
1.928398337E0,-2.584447861E0,-3.277590275E0,7.846791148E-1,4.247080181E0
1.936610222E0,-2.465216398E0,-3.263672352E0,4.703855217E-1,4.117051329E0
1.944821914E0,-2.636313438E0,-3.221399784E0,3.698134124E-1,4.179034227E0
1.953035299E0,-2.879669428E0,-3.103563786E0,1.834076196E-1,4.237716666E0
1.961247106E0,-2.917263269E0,-2.896453381E0,-9.481909871E-2,4.112038160E0
1.969458760E0,-2.774808407E0,-2.773363590E0,-4.129782915E-1,3.944826785E0
1.977670952E0,-2.405900717E0,-2.562577724E0,-4.837181568E-1,3.548118672E0
1.985882799E0,-2.062886238E0,-2.121491909E0,-4.251813591E-1,2.989482688E0
1.994095414E0,-2.038180828E0,-1.899798393E0,-3.243630230E-1,2.805107198E0
2.002307914E0,-1.789752007E0,-1.757691860E0,-1.671760380E-1,2.514088453E0
2.010533683E0,-1.170224667E0,-1.306249619E0,-5.992924571E-1,1.853338956E0
2.018746760E0,-7.098021507E-1,-7.186994553E-1,-1.128979921E0,1.514907147E0
2.026958452E0,-2.234458923E-3,-1.418747902E-1,-1.423788667E0,1.430841576E0
2.035170645E0,6.063938141E-1,5.010643005E-1,-1.517430425E0,1.709202734E0
2.043382337E0,9.497261047E-1,1.176266193E0,-1.285890341E0,1.984715546E0
2.051592952E0,9.299354553E-1,1.793071747E0,-7.733076811E-1,2.162843270E0
2.059805644E0,3.539061546E-1,2.290313244E0,2.301728725E-2,2.317609570E0
2.068017452E0,-4.085197449E-1,3.225999355E0,7.540194988E-1,3.338039189E0
2.076228567E0,-1.328902245E0,3.912478924E0,1.514896750E0,4.400952700E0
2.084439644E0,-2.161396027E0,4.151994228E0,1.955049276E0,5.072761233E0
2.092652183E0,-2.384687662E0,4.271711349E0,2.453299522E0,5.472927155E0
2.100863298E0,-1.435510635E0,3.839973450E0,2.740993977E0,4.931443486E0
2.109074798E0,4.412064552E-1,2.797454357E0,3.054399490E0,4.165305543E0
2.117286529E0,2.645996571E0,1.634033203E0,2.764727592E0,4.161139390E0
2.125498413E0,4.360877991E0,6.344590187E-1,2.428254128E0,5.031521957E0
2.133709760E0,5.129246235E0,-4.662137032E-1,2.034389496E0,5.537622484E0
2.141919336E0,5.246849537E0,-1.610029221E0,1.666358352E0,5.735710445E0
2.150129990E0,4.713201046E0,-2.728733063E0,1.302139878E0,5.599626460E0
2.158342298E0,3.773300648E0,-2.708428860E0,1.672495604E-1,4.647726012E0
2.166553567E0,2.640942574E0,-2.224870682E0,-1.400485635E0,3.726390645E0
2.174766106E0,1.081801891E0,-1.986433983E0,-2.452549934E0,3.336347776E0
2.182979259E0,-4.443259239E-1,-1.884875774E0,-3.015198708E0,3.583518586E0
2.191191105E0,-1.562381268E0,-1.793740273E0,-3.184854746E0,3.975152719E0
2.199404375E0,-2.268393993E0,-1.725710869E0,-3.087813139E0,4.202175543E0
2.207616913E0,-2.725776672E0,-1.568819046E0,-2.978506088E0,4.331575947E0
2.215830682E0,-2.807759285E0,-1.262280941E0,-2.726667404E0,4.112369209E0
2.224043951E0,-2.520412207E0,-7.653007507E-1,-2.369470596E0,3.542958345E0
2.232256759E0,-2.111666203E0,-6.488332748E-1,-1.908503771E0,2.919333042E0
2.240469875E0,-1.729506016E0,-8.150577545E-1,-1.556145906E0,2.465177536E0
2.248683259E0,-1.319214344E0,-9.238862991E-1,-1.398965359E0,2.133306460E0
2.256909221E0,-9.930019379E-1,-1.009127140E0,-1.340078354E0,1.949410277E0
2.265121567E0,-9.980354309E-1,-1.251963615E0,-1.174977541E0,1.985965719E0
2.273334682E0,-1.147861958E0,-1.501370907E0,-1.034516215E0,2.154512816E0
2.281545913E0,-1.178346634E0,-1.666879177E0,-1.151461124E0,2.343682935E0
2.289757759E0,-1.303067207E0,-1.733519077E0,-1.308910966E0,2.533045687E0
2.297970105E0,-1.461020947E0,-1.731335640E0,-1.386867523E0,2.656220403E0
2.306181951E0,-1.435551167E0,-1.819663048E0,-1.428242207E0,2.722472509E0
2.314393336E0,-1.277510166E0,-1.868742466E0,-1.348111153E0,2.634698144E0
2.322603759E0,-1.053318024E0,-1.488649845E0,-1.240161657E0,2.205347627E0
2.330813297E0,-9.406595230E-1,-9.919228554E-1,-1.077081919E0,1.740361097E0
2.339024066E0,-9.006004333E-1,-5.103702545E-1,-7.860504389E-1,1.299782378E0
2.347235028E0,-1.011878490E0,2.499046326E-1,-2.883762121E-1,1.081439432E0
2.355446413E0,-8.503985405E-1,1.199257374E0,1.280896366E-1,1.475738080E0
2.363657374E0,-3.356513977E-1,2.127820015E0,3.254894018E-1,2.178582848E0
2.371868105E0,3.667974472E-1,2.876376152E0,3.302463889E-1,2.918414435E0
2.380080143E0,8.607439995E-1,3.530182362E0,3.485794961E-1,3.650284291E0
2.388290412E0,1.269671917E0,4.247575760E0,6.771597266E-2,4.433796575E0
2.396501335E0,1.669290543E0,4.979291439E0,-7.263006270E-2,5.252156631E0
2.404711335E0,1.969465733E0,5.957136631E0,5.910232663E-2,6.274533066E0
2.412921220E0,2.289076805E0,6.793935299E0,1.555650979E-1,7.170887669E0
2.421132066E0,2.800720692E0,7.298113346E0,3.228549361E-1,7.823728658E0
2.429341681E0,3.074176311E0,7.098261833E0,5.963271856E-1,7.758317289E0
2.437551028E0,3.065336227E0,6.296120644E0,1.176443696E0,7.100805667E0
2.445761028E0,3.357064247E0,5.486975193E0,1.735280156E0,6.662430063E0
2.453970951E0,3.875197887E0,4.824327469E0,2.268840551E0,6.590821773E0
2.462181451E0,4.851372719E0,4.517525673E0,2.219830751E0,6.990815691E0
2.470390412E0,6.359358311E0,4.289498806E0,9.728932977E-1,7.732254490E0
2.478601681E0,7.739900112E0,4.467898846E0,-1.117861390E0,9.006541397E0
2.486811989E0,8.551067352E0,5.085885048E0,-3.066821337E0,1.041116577E1
2.495023258E0,7.716285706E0,5.798662663E0,-3.385437965E0,1.022872152E1
2.503246874E0,5.932515144E0,6.308400154E0,-2.080269337E0,8.906074834E0
2.511459066E0,4.096354961E0,6.351690769E0,2.364015579E-2,7.558085634E0
2.519670681E0,2.108057976E0,6.386317253E0,1.876062632E0,6.982017437E0
2.527881181E0,1.360346317E0,7.464048386E0,1.353444576E0,7.706774463E0
2.536093066E0,-2.084832191E-1,7.372997761E0,3.852341175E-1,7.385998007E0
2.544304489E0,-1.123253345E0,5.762557507E0,6.568994522E-1,5.907646231E0
2.552516719E0,-1.746991158E0,4.064988613E0,1.616641045E0,4.710587946E0
2.560728719E0,-2.018896818E0,2.946389198E0,2.431969404E0,4.321068022E0
2.568941835E0,-1.953860283E0,2.192352772E0,2.527190208E0,3.874360725E0
2.577157027E0,-1.904614449E0,1.230512142E0,2.358621359E0,3.271820754E0
2.585371873E0,-1.594305992E0,4.456601143E-1,1.544971466E0,2.264367763E0
2.593586373E0,-1.705239773E0,-4.950942993E-1,7.461118698E-1,1.926043605E0
2.601801719E0,-1.943986416E0,-1.717506409E0,3.712477684E-1,2.620445831E0
2.610017565E0,-2.060713053E0,-2.849426746E0,2.818596363E-1,3.527777760E0
2.618232912E0,-2.106411695E0,-3.929686785E0,4.310917854E-1,4.479425028E0
2.626445527E0,-2.006669760E0,-5.037709236E0,6.715149879E-1,5.464080000E0
2.634659027E0,-1.910860538E0,-6.029870510E0,7.443838120E-1,6.369052804E0
2.642872373E0,-1.979646206E0,-6.859498978E0,5.651683807E-1,7.161783341E0
2.651086181E0,-1.968800068E0,-7.453036785E0,2.272942066E-1,7.712042122E0
2.659297873E0,-1.956946373E0,-7.612928867E0,-1.676691771E-1,7.862215845E0
2.667510296E0,-2.006964684E0,-7.475870609E0,-7.246383429E-1,7.774422765E0
2.675723757E0,-2.093251944E0,-7.286612511E0,-1.273419142E0,7.687523781E0
2.683935373E0,-2.273330450E0,-7.181811810E0,-1.864334464E0,7.760296077E0
2.692147257E0,-2.697396040E0,-7.049806595E0,-2.214464188E0,7.866356848E0
2.700359373E0,-3.258803844E0,-6.840975285E0,-2.557656765E0,7.997521708E0
2.708571450E0,-3.614522696E0,-6.454068184E0,-3.165207386E0,8.046011946E0
2.716785411E0,-3.688509941E0,-5.834368706E0,-3.934487581E0,7.945134128E0
2.724998488E0,-3.772725105E0,-5.308263779E0,-4.361419678E0,7.837927065E0
2.733211450E0,-4.216888428E0,-4.728400230E0,-4.290958405E0,7.651943595E0
2.741424950E0,-4.880805016E0,-4.258339882E0,-3.630484581E0,7.425370997E0
2.749651873E0,-5.291654587E0,-3.829589844E0,-2.926456451E0,7.157619297E0
2.757866642E0,-5.211199760E0,-3.513977051E0,-2.450631857E0,6.746127345E0
2.766077719E0,-4.832080364E0,-3.225556850E0,-2.098567724E0,6.177151782E0
2.774289565E0,-4.591843605E0,-3.144712448E0,-1.683973312E0,5.814637580E0
2.782501026E0,-4.616883278E0,-3.223915100E0,-1.432310820E0,5.810400508E0
2.790712949E0,-4.391604424E0,-3.238236904E0,-1.612943411E0,5.689811430E0
2.798925026E0,-3.872984886E0,-3.126526833E0,-2.192954540E0,5.439138864E0
2.807135142E0,-3.730795622E0,-3.067541122E0,-2.337284088E0,5.365775006E0
2.815345488E0,-3.815196753E0,-2.992788792E0,-2.069609642E0,5.272171761E0
2.823556065E0,-4.022215843E0,-2.827291489E0,-1.583749056E0,5.165274293E0
2.831766757E0,-4.011601925E0,-2.768212318E0,-1.100638866E0,4.996734469E0
2.839978757E0,-3.625684738E0,-2.889564991E0,-8.517966270E-1,4.713887265E0
2.848189680E0,-3.053220987E0,-2.700083256E0,-8.996474743E-1,4.173963771E0
2.856400757E0,-2.326737404E0,-2.326791763E0,-1.399006367E0,3.575595848E0
2.864612603E0,-1.513329506E0,-1.635240555E0,-2.185847282E0,3.121234725E0
2.872824718E0,-9.436974525E-1,-6.131491661E-1,-3.067751884E0,3.267662529E0
2.881037141E0,-6.354393959E-1,7.946434021E-1,-3.682491064E0,3.820468793E0
2.889250718E0,-6.587772369E-1,2.238374710E0,-3.617391825E0,4.304629183E0
2.897463064E0,-5.898957253E-1,3.504561424E0,-3.083068609E0,4.704810282E0
2.905674757E0,-5.126814842E-1,4.838433743E0,-1.974019408E0,5.250717666E0
2.913886641E0,-1.664614677E-1,5.492778301E0,1.809929609E-1,5.498279853E0
2.922098410E0,7.728300095E-1,5.508250713E0,2.442998886E0,6.075058494E0
2.930311180E0,2.218923092E0,4.871907234E0,4.868221283E0,7.235929674E0
2.938523680E0,4.419944286E0,3.837637424E0,6.583731651E0,8.809590850E0
2.946736526E0,6.586876869E0,2.575172424E0,7.375876904E0,1.021870931E1
2.954949910E0,8.534360886E0,1.555353165E0,6.763579369E0,1.100002023E1
2.963163103E0,1.038509750E1,1.061426163E0,4.183025360E0,1.124609162E1
2.971377026E0,1.161418343E1,1.329112053E0,8.450043201E-2,1.169029238E1
2.979591526E0,1.077109146E1,1.996697903E0,-3.408668995E0,1.147267354E1
2.987804564E0,8.148139000E0,2.953558922E0,-4.840726376E0,9.927150211E0
2.996030987E0,5.236452103E0,4.615406036E0,-4.444479942E0,8.275010904E0
3.004243679E0,2.053944111E0,6.617041111E0,-2.574863434E0,7.391470840E0
3.012457141E0,-1.110080719E0,8.136102676E0,7.541788816E-1,8.246043400E0
3.020670487E0,-3.755460501E0,9.190317154E0,4.581345081E0,1.093408138E1
3.028883025E0,-4.707948685E0,9.564738274E0,6.832843781E0,1.266241498E1
3.037095987E0,-3.840835333E0,8.565894127E0,7.598019600E0,1.207710479E1
3.045307871E0,-1.995718002E0,6.503324986E0,7.335621834E0,1.000437274E1
3.053519525E0,1.131501198E-1,4.319784641E0,6.061128616E0,7.443831164E0
3.061729525E0,1.663529873E0,1.705862045E0,4.807823181E0,5.365860667E0
3.069940333E0,3.127184868E0,-4.294338226E-1,3.377471685E0,4.622879362E0
3.078153141E0,4.050942421E0,-2.024432182E0,2.111581564E0,4.996722612E0
3.086364679E0,4.277861595E0,-3.315005779E0,1.407300472E0,5.591945794E0
3.094577102E0,3.750732899E0,-4.258653641E0,7.951171398E-1,5.730300112E0
3.102787564E0,2.752545357E0,-4.954660416E0,7.135987282E-3,5.667911141E0
3.110998217E0,1.472476482E0,-5.463085175E0,-6.329305172E-1,5.693337128E0
3.119209256E0,1.167993546E-1,-5.422363281E0,-1.332458019E0,5.584900180E0
3.127419833E0,-9.799842834E-1,-4.837612152E0,-1.738505125E0,5.233092833E0
3.135629525E0,-2.065438271E0,-4.224457264E0,-1.703980803E0,5.001562256E0
3.143839371E0,-2.802912474E0,-3.629025936E0,-1.283094525E0,4.761562678E0
3.152048871E0,-3.272992849E0,-2.979820251E0,-5.953766108E-1,4.466126312E0
3.160259448E0,-3.712643147E0,-2.298214912E0,5.810534954E-2,4.366793692E0
3.168469717E0,-4.105601311E0,-1.723054886E0,5.603866577E-1,4.487640078E0
3.176681102E0,-4.197547913E0,-1.101933002E0,6.931502819E-1,4.394783514E0
3.184890025E0,-4.123303890E0,-5.509757996E-1,5.537245274E-1,4.196643916E0
3.193101179E0,-3.869213343E0,-6.215810776E-2,3.456056118E-1,3.885115025E0
3.201313409E0,-3.120053768E0,-1.728668213E-1,7.668948174E-2,3.125779860E0
3.209525102E0,-1.987349987E0,-3.648653030E-1,-2.113351822E-1,2.031587857E0
3.217736832E0,-1.325440407E0,-1.880049706E-1,-3.735404015E-1,1.389845521E0
3.225948640E0,-6.813254356E-1,1.070713997E-1,-6.337001324E-1,9.366133096E-1
3.234160178E0,1.298198700E-1,5.821371078E-2,-1.351982713E0,1.359448157E0
3.242383678E0,1.051553249E0,-1.929898262E-1,-2.818939686E0,3.014868200E0
3.250595448E0,1.674232483E0,6.715631485E-2,-4.304084778E0,4.618734692E0
3.258808063E0,1.555308342E0,9.679031372E-1,-4.940262794E0,5.268967356E0
3.267020063E0,8.225893974E-1,1.972976208E0,-4.303679466E0,4.805303880E0
3.275233024E0,9.434890747E-2,3.060888290E0,-2.921156168E0,4.232149832E0
3.283445294E0,1.434049606E-1,4.339538097E0,-1.307205915E0,4.534417624E0
3.291657140E0,1.180924416E0,5.211551666E0,1.972830296E-1,5.347314638E0
3.299869178E0,2.514132500E0,5.284483433E0,1.478459120E0,6.035931473E0
3.308080832E0,3.708946705E0,4.863299370E0,2.308440685E0,6.537343866E0
3.316293409E0,4.584168911E0,4.123118877E0,2.278004169E0,6.572976257E0
3.324506524E0,4.852921963E0,3.498229980E0,1.673119307E0,6.211907339E0
3.332719640E0,4.522587776E0,2.853419781E0,7.224142551E-1,5.396080707E0
3.340933293E0,3.510211468E0,1.938763142E0,-6.290388107E-2,4.010529138E0
3.349146986E0,2.134249210E0,9.250588417E-1,-7.034425735E-1,2.430140944E0
3.357360332E0,7.926139832E-1,1.357336044E-1,-1.429483414E0,1.640147362E0
3.365572524E0,-2.312083244E-1,-3.646769524E-1,-2.198511839E0,2.240513529E0
3.373784986E0,-9.062795639E-1,-8.288269043E-1,-3.083055258E0,3.318663347E0
3.381997293E0,-1.430509090E0,-1.265117645E0,-3.890030861E0,4.333499627E0
3.390209562E0,-1.771896839E0,-1.503644943E0,-4.456722260E0,5.026225206E0
3.398422332E0,-1.922440767E0,-1.608273983E0,-5.035397530E0,5.624726837E0
3.406634293E0,-1.899849176E0,-1.673469543E0,-5.251191616E0,5.829660418E0
3.414846755E0,-1.853636026E0,-1.766750336E0,-5.091597557E0,5.699275300E0
3.423057639E0,-1.717622280E0,-1.834458828E0,-4.574983597E0,5.219764401E0
3.431269870E0,-1.480381489E0,-1.760733128E0,-3.852391243E0,4.486939802E0
3.439482716E0,-1.290050030E0,-1.604995251E0,-3.068687916E0,3.695549263E0
3.447696024E0,-1.128976822E0,-1.444692135E0,-2.307061672E0,2.946906444E0
3.455910062E0,-9.899902344E-1,-1.265561104E0,-1.779221535E0,2.397364144E0
3.464123293E0,-9.204106331E-1,-1.132356644E0,-1.243845105E0,1.917430037E0
3.472336101E0,-1.002718449E0,-1.015363693E0,-6.237405539E-1,1.557388839E0
3.480550831E0,-1.218721867E0,-9.144539833E-1,-9.671747684E-2,1.526716524E0
3.488776793E0,-1.382894993E0,-7.954268456E-1,3.340826035E-1,1.629942825E0
3.496990485E0,-1.460858345E0,-7.362723351E-1,6.311563253E-1,1.753443002E0
3.505202985E0,-1.564921856E0,-7.810616493E-1,8.867694139E-1,1.960968564E0
3.513416408E0,-1.538402081E0,-8.977680206E-1,1.027605653E0,2.056366154E0
3.521629139E0,-1.359383106E0,-1.053082943E0,1.039807081E0,2.009503640E0
3.529842408E0,-1.057874203E0,-1.269035816E0,1.014659643E0,1.938835713E0
3.538056370E0,-9.332504272E-1,-1.513559341E0,1.011305094E0,2.045618790E0
3.546269639E0,-8.911862373E-1,-1.801482201E0,9.846496582E-1,2.238098742E0
3.554483639E0,-8.166513443E-1,-1.969929218E0,8.748520613E-1,2.304974332E0
3.562696485E0,-8.005275726E-1,-1.971076488E0,7.021695375E-1,2.240318945E0
3.570909254E0,-7.505030632E-1,-1.823288918E0,6.188571453E-1,2.066548207E0
3.579123023E0,-7.061233521E-1,-1.427652359E0,5.873093605E-1,1.697567004E0
3.587334062E0,-6.050300598E-1,-1.026931763E0,6.445534825E-1,1.355027457E0
3.595547446E0,-6.372895241E-1,-4.801716805E-1,8.805099726E-1,1.188276311E0
3.603760292E0,-6.383113861E-1,-5.602264404E-2,9.839128256E-1,1.174165410E0
3.611974331E0,-5.014476776E-1,2.749853134E-1,8.990817666E-1,1.065558407E0
3.620186869E0,-1.597352028E-1,5.425004959E-1,7.592148781E-1,9.466939073E-1
3.628399369E0,2.846837044E-1,1.039666176E0,6.696464419E-1,1.269006275E0
3.636613715E0,8.484706879E-1,1.870951176E0,6.496395469E-1,2.154621162E0
3.644827292E0,1.605831146E0,2.752069473E0,5.319640636E-1,3.230412639E0
3.653041600E0,2.044802189E0,3.357010841E0,4.615333676E-1,3.957745675E0
3.661254869E0,2.524827957E0,4.010368824E0,1.720847189E-1,4.742091044E0
3.669467100E0,3.088120937E0,4.738393307E0,-4.247210622E-1,5.671794252E0
3.677679715E0,3.748076439E0,5.438206673E0,-1.011020303E0,6.681641330E0
3.685892061E0,4.760629177E0,5.918560505E0,-1.459672928E0,7.734571331E0
3.694104600E0,6.016147137E0,6.052941322E0,-1.612632036E0,8.685200464E0
3.702317254E0,7.035192490E0,6.065742016E0,-1.486886859E0,9.407337142E0
3.710529100E0,7.652027607E0,6.255364895E0,-1.252603650E0,9.962536443E0
3.718741138E0,7.848959923E0,6.661783695E0,-9.092030525E-1,1.033499802E1
3.726951946E0,7.872593403E0,7.328484535E0,-6.146643758E-1,1.077321794E1
3.735176830E0,7.854332924E0,7.978541374E0,-8.605487943E-1,1.122890076E1
3.743387330E0,7.679903030E0,8.405897141E0,-1.438306212E0,1.147644292E1
3.751598138E0,6.723178864E0,8.611292839E0,-1.483008862E0,1.102518996E1
3.759809023E0,5.346340179E0,8.649391174E0,-7.404359579E-1,1.019527177E1
3.768019484E0,4.232287884E0,8.407532692E0,4.360701442E-1,9.422792785E0
3.776229792E0,3.272974014E0,8.075704575E0,1.714883566E0,8.880888971E0
3.784441446E0,2.357412815E0,7.752318382E0,2.633446217E0,8.520027844E0
3.792654176E0,1.621456146E0,6.985935211E0,3.119192123E0,7.820599102E0
3.800865869E0,5.252642632E-1,5.850798607E0,3.107764244E0,6.645746420E0
3.809076869E0,-1.219592094E-1,5.006295204E0,2.790017128E0,5.732544051E0
3.817289445E0,-7.522888184E-1,3.971224785E0,2.443469286E0,4.723040007E0
3.825500445E0,-1.717891693E0,2.412992477E0,2.473867893E0,3.859236572E0
3.833711984E0,-2.520045280E0,8.945884705E-1,2.297502041E0,3.525540012E0
3.841923753E0,-3.199298143E0,-3.749861717E-1,2.189222097E0,3.894716502E0
3.850134330E0,-3.660999775E0,-1.470002651E0,2.140123844E0,4.488202002E0
3.858346676E0,-3.820423841E0,-2.755737782E0,2.099884033E0,5.157445298E0
3.866558061E0,-3.774684668E0,-4.014873028E0,2.083532095E0,5.891396758E0
3.874770638E0,-3.664465904E0,-5.340662003E0,2.089765072E0,6.805740154E0
3.882983176E0,-3.621670723E0,-6.456193924E0,2.037591457E0,7.677937077E0
3.891195445E0,-3.717738152E0,-7.364810467E0,1.905388355E0,8.467143258E0
3.899408445E0,-4.027654171E0,-8.047136307E0,1.638383746E0,9.146731775E0
3.907621176E0,-4.303220749E0,-8.607362747E0,1.248072505E0,9.703715126E0
3.915834176E0,-4.599777222E0,-9.011419296E0,8.086088896E-1,1.014975254E1
3.924046368E0,-5.046729565E0,-9.290835381E0,4.611001015E-1,1.058308625E1
3.932258637E0,-5.556509495E0,-9.457960129E0,-9.618383646E-2,1.096982493E1
3.940472060E0,-6.005910397E0,-9.479503632E0,-6.622639894E-1,1.124146531E1
3.948686406E0,-6.411280632E0,-9.278553963E0,-1.205396414E0,1.134235705E1
3.956900022E0,-6.709747314E0,-9.044033051E0,-1.599609137E0,1.137426887E1
3.965111868E0,-6.776234627E0,-8.793654442E0,-1.782053232E0,1.124372838E1
3.973323022E0,-6.641375065E0,-8.535708427E0,-1.764867663E0,1.095814487E1
3.981547714E0,-6.400947571E0,-8.107061386E0,-1.495159864E0,1.043705309E1
3.989758676E0,-6.097220898E0,-7.639411449E0,-1.116783142E0,9.837881609E0
3.997971291E0,-5.641147614E0,-7.127756596E0,-6.178790927E-1,9.110940405E0
4.006183483E0,-5.176747322E0,-6.661581993E0,-1.177998781E-1,8.437373069E0
4.014395791E0,-4.791473866E0,-6.236614227E0,2.141163349E-1,7.867618739E0
4.022606945E0,-4.349168777E0,-5.940300941E0,4.572590888E-1,7.376417166E0
4.030818175E0,-3.884000778E0,-5.644646645E0,5.271750689E-1,6.872074748E0
4.039030868E0,-3.195593596E0,-5.470616817E0,2.555943429E-1,6.340725137E0
4.047243368E0,-2.751230955E0,-5.247424126E0,-3.400658369E-1,5.934675770E0
4.055457675E0,-2.649732351E0,-4.854944229E0,-7.288542986E-1,5.578780654E0
4.063670098E0,-2.650686502E0,-4.366310120E0,-8.982761502E-1,5.186299551E0
4.071882752E0,-2.779474497E0,-3.895180225E0,-8.155805469E-1,4.854181609E0
4.080094752E0,-2.979482174E0,-3.294485092E0,-3.243591189E-1,4.453779842E0
4.088307021E0,-3.125144005E0,-2.557729721E0,2.835536301E-1,4.048321756E0
4.096519675E0,-2.959983587E0,-1.857062340E0,8.886607885E-1,3.605537598E0
4.104732752E0,-2.159997463E0,-1.383615017E0,1.227503300E0,2.843720082E0
4.112946060E0,-1.124259472E0,-1.089541912E0,1.307096243E0,2.039500313E0
4.121158560E0,-1.276583672E-1,-8.416266441E-1,9.205467701E-1,1.253809564E0
4.129370406E0,1.246299744E0,-3.076143265E-1,-3.450527191E-1,1.329267093E0
4.137583406E0,2.673352242E0,8.041877747E-1,-2.241651535E0,3.580297723E0
4.145794483E0,3.539421558E0,2.221821308E0,-4.057316780E0,5.824587054E0
4.154007213E0,3.783004284E0,3.686395645E0,-5.147741318E0,7.375627088E0
4.162219790E0,3.476433754E0,5.300822258E0,-4.966375828E0,8.052899920E0
4.170431752E0,2.732018948E0,6.913571358E0,-3.529225826E0,8.229023720E0
4.178644098E0,2.045468807E0,8.208031654E0,-1.058366895E0,8.525014180E0
4.186855290E0,1.867635727E0,8.663337708E0,1.402264237E0,8.972615473E0
4.195068136E0,2.345605373E0,8.038776398E0,4.079465866E0,9.314817888E0
4.203280790E0,4.093084812E0,6.545036316E0,4.866710186E0,9.125552679E0
4.211493790E0,5.974287033E0,5.317832470E0,3.013359547E0,8.547033608E0
4.219707021E0,6.812261105E0,4.742830753E0,-5.974650383E-3,8.300685550E0
4.227932328E0,7.193892479E0,4.890560150E0,-3.337730408E0,9.317194420E0
4.236144752E0,6.864826202E0,5.292084694E0,-5.875345230E0,1.047146985E1
4.244357059E0,5.416978836E0,5.765220165E0,-6.673740864E0,1.034989084E1
4.252569251E0,3.570775032E0,6.445344448E0,-5.750282764E0,9.346585005E0
4.260781174E0,1.502372265E0,7.712625027E0,-3.384013653E0,8.555305700E0
4.268993444E0,-5.677747726E-2,8.828664780E0,-5.106523633E-1,8.843602847E0
4.277205636E0,-8.445224762E-1,9.356475830E0,2.079087257E0,9.621822176E0
4.285418059E0,-8.793106079E-1,9.017813683E0,3.908380985E0,9.867603188E0
4.293631136E0,-2.854051590E-1,7.863355637E0,4.718407154E0,9.174812480E0
4.301842828E0,5.206089020E-1,6.398787498E0,4.484199047E0,7.830935843E0
4.310055020E0,1.360631943E0,4.885969162E0,3.233212948E0,6.014788434E0
4.318266944E0,1.865002632E0,3.409602165E0,1.886771441E0,4.320130578E0
4.326478482E0,2.223640919E0,1.776248932E0,5.920935273E-1,2.906925171E0
4.334689943E0,2.162570953E0,4.593105316E-1,-2.539934516E-1,2.225352099E0
4.342899905E0,1.604559898E0,-5.985469818E-1,-6.763601899E-1,1.841285981E0
4.351111174E0,9.856576920E-1,-1.556495190E0,-7.219929695E-1,1.978755217E0
4.359323636E0,3.511686325E-1,-2.396006584E0,-4.980623722E-1,2.472293083E0
4.367535289E0,-1.007623672E-1,-3.102326870E0,-1.025873423E-1,3.105657616E0
4.375748251E0,-5.895419121E-1,-3.623373985E0,2.896416783E-1,3.682430041E0
4.383960712E0,-1.002262115E0,-3.844506741E0,5.277212858E-1,4.007898599E0
4.392173520E0,-1.393425941E0,-3.956545830E0,6.727522612E-1,4.248351017E0
4.400386789E0,-1.550386429E0,-4.053060055E0,5.194280744E-1,4.370446134E0
4.408599174E0,-1.708069086E0,-4.162410736E0,2.078927755E-1,4.504040691E0
4.416811982E0,-1.991774082E0,-4.101498127E0,5.104780197E-3,4.559547888E0
4.425024482E0,-2.154015541E0,-4.022388458E0,-1.112573147E-1,4.564183394E0
4.433238328E0,-2.126951218E0,-3.967423916E0,-2.600555420E-1,4.509102227E0
4.441451751E0,-1.750538588E0,-3.888517380E0,-5.035980940E-1,4.294014881E0
4.449664443E0,-1.278823853E0,-3.674726963E0,-8.378210068E-1,3.980069439E0
4.457878405E0,-7.398300171E-1,-3.160859585E0,-1.336473465E0,3.510632862E0
4.466091674E0,-2.802915573E-1,-2.465800762E0,-1.935833693E0,3.147409862E0
4.474318289E0,-9.166717529E-3,-1.583261013E0,-2.422911167E0,2.894356230E0
4.482531020E0,-2.129826546E-1,-4.013094902E-1,-2.288581371E0,2.333241439E0
4.490744289E0,-4.758210182E-1,7.741174698E-1,-2.080162287E0,2.269964457E0
4.498958135E0,-5.152602196E-1,1.880979538E0,-1.665464044E0,2.564634008E0
4.507171635E0,-5.116395950E-1,2.702547073E0,-8.865464330E-1,2.889896250E0
4.515385289E0,-5.177869797E-1,3.099144936E0,3.743886948E-3,3.142103866E0
4.523597789E0,-3.925399780E-1,3.335140228E0,1.113598585E0,3.537986685E0
4.531810558E0,-1.264925003E-1,3.266798973E0,1.853798032E0,3.758263299E0
4.540023443E0,1.354737282E-1,3.015446663E0,2.054256916E0,3.651197500E0
4.548236712E0,3.520126343E-1,2.644321442E0,1.679653168E0,3.152393304E0
4.556451135E0,4.230942726E-1,1.963443756E0,1.105480552E0,2.292642012E0
4.564662673E0,3.632512093E-1,1.152242661E0,4.891665280E-1,1.303418000E0
4.572874827E0,2.211093903E-1,4.965114594E-1,1.158243418E-1,5.557231954E-1
4.581087327E0,9.067630768E-2,8.813285828E-2,-1.775247455E-1,2.179555660E-1
4.589299942E0,-3.618431091E-2,-3.430829048E-1,-4.549860954E-1,5.709882056E-1
4.597514212E0,-1.430277824E-1,-6.919250488E-1,-6.009623408E-1,9.275629115E-1
4.605727442E0,-1.683301926E-1,-1.020323277E0,-6.097152233E-1,1.200477945E0
4.613941942E0,-1.474952698E-1,-1.211627007E0,-5.248225331E-1,1.328620920E0
4.622155596E0,-1.610870361E-1,-1.295266151E0,-3.182932138E-1,1.343493210E0
4.630368596E0,-1.585083008E-1,-1.348019123E0,-8.259218931E-2,1.359816865E0
4.638580596E0,-9.381675720E-2,-1.446921825E0,3.773415089E-2,1.450451040E0
4.646793481E0,1.656055450E-2,-1.474834442E0,-1.243771911E-1,1.480162346E0
4.655007788E0,1.064887047E-1,-1.418040752E0,-3.660150170E-1,1.468382243E0
4.663222365E0,1.482334137E-1,-1.408898354E0,-5.918024182E-1,1.535316846E0
4.671436519E0,1.248536110E-1,-1.358565807E0,-5.424374342E-1,1.468171600E0
4.679650865E0,1.394104958E-1,-1.250052929E0,-3.758811951E-1,1.312765891E0
4.687864865E0,7.830333710E-2,-1.048954010E0,-2.105798721E-1,1.072744056E0
4.696079019E0,-2.365398407E-2,-8.788170815E-1,-2.544271946E-2,8.795034426E-1
4.704293019E0,-1.560835838E-1,-6.738295555E-1,1.901548803E-1,7.173334187E-1
4.712506673E0,-2.059340477E-1,-4.924159050E-1,2.424266338E-1,5.862191811E-1
4.720734788E0,-1.202321053E-1,-3.514575958E-1,1.522992551E-1,4.014639011E-1
4.728949788E0,-4.429817200E-4,-2.520155907E-1,6.559094787E-2,2.604116484E-1
4.737163673E0,9.535408020E-2,-1.546568871E-1,2.474412322E-2,1.833669135E-1
4.745378211E0,2.166028023E-1,-4.849338531E-2,1.078575850E-3,2.219674429E-1
4.753593288E0,2.087879181E-1,-2.185153961E-2,3.314673901E-3,2.099544512E-1
4.761807057E0,-3.307056427E-2,-1.880645752E-3,7.924726605E-2,8.589137458E-2
4.770021365E0,-3.623104095E-1,8.596420288E-3,1.739141345E-1,4.019811656E-1
4.778236288E0,-6.824808121E-1,-9.698295593E-2,2.375216186E-1,7.291106033E-1
4.786449672E0,-1.004727364E0,-2.457084656E-1,3.309248984E-1,1.085983892E0
4.794663134E0,-1.416428089E0,-4.223885536E-1,5.602923036E-1,1.580698607E0
4.802876749E0,-1.763456583E0,-4.983215332E-1,7.995023131E-1,1.999326742E0
4.811090865E0,-1.997329712E0,-6.965994835E-1,8.873963356E-1,2.293915664E0
4.819304519E0,-2.189368486E0,-1.110973358E0,9.308078885E-1,2.625642683E0
4.827518288E0,-2.324445963E0,-1.531337261E0,9.587891102E-1,2.944031148E0
4.835732057E0,-2.331561327E0,-1.788806915E0,9.054474831E-1,3.075035536E0
4.843944057E0,-2.218115091E0,-1.816400528E0,6.413662434E-1,2.937804639E0
4.852157634E0,-2.125868082E0,-1.712207794E0,2.418520749E-1,2.740339953E0
4.860372441E0,-2.061530113E0,-1.374519825E0,-2.207340300E-1,2.487555963E0
4.868587749E0,-1.893416882E0,-5.885882378E-1,-6.660618782E-1,2.091674455E0
4.876803672E0,-1.588595629E0,4.178857803E-1,-7.146803141E-1,1.791377277E0
4.885016403E0,-1.068451405E0,1.496290207E0,-3.876109123E-1,1.879019693E0
4.893230211E0,-3.026938438E-1,2.583752632E0,2.197714895E-2,2.601515755E0
4.901442249E0,5.809206963E-1,3.867166519E0,3.929042220E-1,3.930244200E0
4.909655210E0,1.611712456E0,5.595245361E0,7.569819093E-1,5.871746700E0
4.917868749E0,2.685012341E0,7.172379494E0,8.805418015E-1,7.708934604E0
4.926081287E0,3.995402813E0,8.885556221E0,1.098256350E0,9.804209300E0
4.934294210E0,5.168000221E0,1.020335484E1,1.670076132E0,1.155879883E1
4.942505903E0,5.915353298E0,1.098501205E1,2.569058180E0,1.273820845E1
4.950718556E0,6.562612534E0,1.115575886E1,3.301929474E0,1.335745399E1
4.958931826E0,7.207339287E0,1.092369747E1,3.329970360E0,1.350413302E1
4.967156787E0,7.726216793E0,1.046214199E1,2.466253996E0,1.323756963E1
4.975369172E0,8.006532669E0,9.893416405E0,9.226475358E-1,1.276070265E1
4.983581787E0,8.075550079E0,9.175911903E0,-6.657382846E-1,1.224153078E1
4.991796710E0,8.065674782E0,8.091044426E0,-2.314704895E0,1.165667055E1
5.000011402E0,8.060420990E0,7.068146706E0,-3.827052355E0,1.138311970E1
5.008225287E0,8.068710327E0,6.448231697E0,-5.252738476E0,1.158771073E1
5.016439749E0,8.011507988E0,6.266510010E0,-6.540733337E0,1.209274992E1
5.024654402E0,7.561018944E0,6.509461403E0,-7.345574379E0,1.238949386E1
5.032868825E0,6.018811703E0,7.134407043E0,-6.652547836E0,1.146220969E1
5.041081364E0,4.072908401E0,7.818465233E0,-4.743327141E0,1.001080086E1
5.049293710E0,2.507146358E0,7.828135490E0,-2.410309553E0,8.565925534E0
5.057505441E0,1.397209644E0,7.228246689E0,-6.099152565E-1,7.387268887E0
5.065717710E0,2.290382385E-1,5.994914055E0,1.231400371E0,6.124361184E0
5.073931056E0,-6.878547668E-1,4.174227715E0,2.643696547E0,4.988632340E0
5.082143402E0,-1.272150040E0,1.955103874E0,3.144243002E0,3.914979047E0
5.090356017E0,-1.761739731E0,-2.671804428E-1,2.898468971E0,3.402386610E0
5.098569556E0,-2.283627510E0,-2.224763870E0,2.290693998E0,3.925787549E0
5.106782364E0,-2.721470118E0,-4.051826477E0,1.583173037E0,5.131289727E0
5.114995364E0,-3.351644278E0,-5.705933571E0,1.099078894E0,6.708142194E0
5.123207517E0,-4.188587189E0,-6.850284576E0,1.013199687E0,8.093036205E0
5.131420325E0,-5.205491066E0,-7.834635735E0,1.218931317E0,9.484959035E0
5.139632363E0,-6.100738525E0,-8.614008904E0,1.641020656E0,1.068237374E1
5.147844017E0,-6.812172890E0,-9.329046249E0,1.973718524E0,1.171888938E1
5.156057017E0,-7.299015999E0,-1.000069427E1,2.076406956E0,1.255392315E1
5.164268825E0,-7.701991081E0,-1.042173004E1,2.036581993E0,1.311795677E1
5.172481671E0,-7.853902817E0,-1.074997520E1,1.788350940E0,1.343294292E1
5.180694594E0,-7.727740765E0,-1.102843761E1,1.434115291E0,1.354256623E1
5.188907556E0,-7.671002865E0,-1.118676662E1,1.184804559E0,1.361586554E1
5.197121479E0,-7.763654232E0,-1.117612267E1,9.230537415E-1,1.363935750E1
5.205334325E0,-7.895681381E0,-1.103509998E1,6.796947718E-1,1.358591922E1
5.213559709E0,-7.964882851E0,-1.086213684E1,2.239309549E-1,1.347128504E1
5.221771863E0,-8.194398880E0,-1.060796738E1,-3.322485685E-1,1.340848739E1
5.229984940E0,-8.687875748E0,-1.018496513E1,-7.650364637E-1,1.340887693E1
5.238196940E0,-9.126892090E0,-9.661832809E0,-9.183259010E-1,1.332270599E1
5.246408440E0,-9.318394661E0,-9.193950653E0,-9.182157516E-1,1.312266466E1
5.254620901E0,-9.295977592E0,-8.894222260E0,-8.123601675E-1,1.289117210E1
5.262834171E0,-8.860499382E0,-8.509155273E0,-4.464259148E-1,1.229282184E1
5.271046901E0,-8.120424271E0,-8.065474510E0,-3.856027126E-2,1.144528970E1
5.279260286E0,-7.354009151E0,-7.596796989E0,3.354581594E-1,1.057853049E1
5.287473709E0,-6.763176918E0,-7.256431580E0,6.948181391E-1,9.943798748E0
5.295687247E0,-6.087197781E0,-6.932965279E0,1.084181905E0,9.289533615E0
5.303900017E0,-5.508347034E0,-6.732919693E0,1.350055933E0,8.803223595E0
5.312113286E0,-4.847722530E0,-6.559147358E0,1.380296111E0,8.272124585E0
5.320325824E0,-4.290453911E0,-6.202254295E0,1.171890259E0,7.632121585E0
5.328538017E0,-3.966027737E0,-5.518760681E0,9.385772943E-1,6.860540999E0
5.336750247E0,-3.699132919E0,-4.799609184E0,6.046518087E-1,6.089781317E0
5.344962747E0,-3.389014721E0,-3.961996555E0,3.714727163E-1,5.226933084E0
5.353174786E0,-2.932870150E0,-3.044885159E0,3.983905315E-1,4.246382927E0
5.361387324E0,-2.093792677E0,-2.005053520E0,5.571344495E-1,2.952051183E0
5.369599824E0,-7.682452202E-1,-8.062858582E-1,6.089201570E-1,1.269283798E0
5.377812670E0,1.147562504E0,7.147922516E-1,5.543630719E-1,1.461213906E0
5.386024555E0,3.192728519E0,2.606213570E0,2.288720012E-1,4.127741145E0
5.394236709E0,5.245519638E0,5.221511841E0,-2.711544633E-1,7.406293737E0
5.402448862E0,6.539602757E0,7.659238815E0,-8.444180489E-1,1.010660107E1
5.410662978E0,7.302955151E0,9.503482819E0,-1.573529124E0,1.208823120E1
5.418876862E0,8.028765678E0,1.104006863E1,-2.164626598E0,1.382135311E1
5.427089747E0,8.476760864E0,1.249404049E1,-2.140823364E0,1.524925071E1
5.435302670E0,8.256789207E0,1.367446804E1,-1.028057218E0,1.600695305E1
5.443514362E0,7.860055447E0,1.411792374E1,1.002535224E0,1.618954351E1
5.451726247E0,7.574612141E0,1.375039673E1,2.672524452E0,1.592452656E1
5.459952439E0,7.498273849E0,1.263722134E1,3.608762026E0,1.513098269E1
5.468164631E0,7.547905922E0,1.108639145E1,2.615231514E0,1.366449395E1
5.476378247E0,7.229821205E0,9.552748680E0,3.877462447E-1,1.198647860E1
5.484592862E0,6.243372917E0,8.443746567E0,-2.000435829E0,1.069010313E1
5.492805862E0,4.666081905E0,7.926437378E0,-3.995471478E0,1.002818639E1
5.501018901E0,2.774203777E0,7.631748199E0,-5.139216900E0,9.609960329E0
5.509232670E0,9.265332222E-1,7.454944611E0,-5.312349319E0,9.200854213E0
5.517446554E0,-2.824954987E-1,7.323506355E0,-4.749577045E0,8.733386007E0
5.525659362E0,-1.102489233E0,7.056038857E0,-3.592054367E0,7.994124182E0
5.533872439E0,-1.069888830E0,6.513693810E0,-2.204258919E0,6.959283478E0
5.542084400E0,-5.510931015E-1,5.669981956E0,-8.900656700E-1,5.765814417E0
5.550297170E0,2.297496796E-1,4.764892578E0,2.858956456E-1,4.778987604E0
5.558509554E0,1.110698700E0,3.756840706E0,1.212934971E0,4.101062659E0
5.566720862E0,1.808358192E0,2.416435242E0,1.936447620E0,3.585965423E0
5.574934246E0,2.249918938E0,1.048535347E0,2.324358463E0,3.400618159E0
5.583146554E0,2.503862381E0,-4.861545563E-2,2.301812172E0,3.401474616E0
5.591359246E0,2.456352234E0,-1.250729561E0,1.950242281E0,3.376601203E0
5.599572862E0,2.093598366E0,-2.193579197E0,1.411000490E0,3.344527798E0
5.607785900E0,1.438136101E0,-2.775373459E0,9.848469496E-1,3.277324640E0
5.615999823E0,5.798420906E-1,-3.244851112E0,6.458809376E-1,3.358934024E0
5.624213362E0,-3.850522041E-1,-3.728224754E0,4.392325282E-1,3.773705107E0
5.632426977E0,-1.411293983E0,-4.114252090E0,2.741453648E-1,4.358207963E0
5.640640592E0,-2.499408722E0,-4.409943581E0,1.398377419E-1,5.070917169E0
5.648855054E0,-3.375969887E0,-4.544775963E0,-9.004938602E-2,5.662178920E0
5.657069092E0,-3.885644436E0,-4.681528568E0,-3.015173674E-1,6.091457555E0
5.665282438E0,-4.188883781E0,-4.795434952E0,-5.946646929E-1,6.395042596E0
5.673496631E0,-4.259092808E0,-4.861002922E0,-9.178382158E-1,6.527759795E0
5.681710246E0,-4.143283367E0,-4.829007149E0,-1.160922170E0,6.467909043E0
5.689924131E0,-3.863840580E0,-4.698201656E0,-1.300562859E0,6.220436205E0
5.698137823E0,-3.474651814E0,-4.337224007E0,-1.439639091E0,5.740842971E0
5.706365900E0,-3.027219772E0,-3.773252964E0,-1.500647068E0,5.064922418E0
5.714581554E0,-2.426440954E0,-3.102553844E0,-1.504703879E0,4.216347925E0
5.722795784E0,-1.995345831E0,-2.338074207E0,-1.436064363E0,3.392679890E0
5.731010246E0,-1.622418880E0,-1.379259109E0,-1.205092192E0,2.446803201E0
5.739225707E0,-1.176321030E0,-3.952860832E-1,-9.681242108E-1,1.573927171E0
5.747441784E0,-8.038678169E-1,6.131048203E-1,-5.467451215E-1,1.149361221E0
5.755657169E0,-6.784157753E-1,1.446381569E0,6.634056568E-2,1.598958623E0
5.763872092E0,-6.622276306E-1,2.153422356E0,7.071046233E-1,2.361306889E0
5.772087092E0,-5.850887299E-1,2.648141861E0,1.105510235E0,2.928674959E0
5.780302361E0,-4.314966202E-1,2.934527397E0,1.109836340E0,3.166919178E0
5.788516861E0,-3.375482559E-1,3.112790108E0,8.054088354E-1,3.232968369E0
5.796731553E0,-4.044294357E-1,3.201498032E0,1.973037422E-1,3.232967922E0
5.804946746E0,-4.431185722E-1,3.187642097E0,-3.835247159E-1,3.241065784E0
5.813161553E0,-4.020199776E-1,2.986967087E0,-5.808619261E-1,3.069363618E0
5.821375361E0,-3.277068138E-1,2.650214195E0,-4.008091688E-1,2.700310172E0
5.829589169E0,-1.740150452E-1,2.126559258E0,-1.517788768E-1,2.139058751E0
5.837802361E0,2.329206467E-2,1.521197319E0,1.956947148E-1,1.533910110E0
5.846015630E0,1.160025597E-1,1.023097038E0,5.680673122E-1,1.175961145E0
5.854229630E0,1.939463615E-1,6.746377945E-1,8.065224886E-1,1.069219280E0
5.862443053E0,3.925719261E-1,3.209495544E-2,9.622941017E-1,1.039784950E0
5.870657130E0,6.526184082E-1,-7.229294777E-1,9.298791885E-1,1.346556022E0
5.878871130E0,9.537892342E-1,-1.299217701E0,7.289252877E-1,1.768901527E0
5.887082630E0,1.081355572E0,-1.719020844E0,4.827439487E-1,2.087439641E0
5.895294784E0,1.087985516E0,-2.028013229E0,1.697366834E-1,2.307674302E0
5.903505514E0,1.096133709E0,-2.255325794E0,-1.665571928E-1,2.513114570E0
5.911717591E0,1.035358906E0,-2.356606483E0,-5.482566953E-1,2.631757509E0
5.919929860E0,9.396600723E-1,-2.299002647E0,-9.147029519E-1,2.646706579E0
5.928140668E0,7.125153542E-1,-2.187682629E0,-1.185600638E0,2.588297179E0
5.936353360E0,4.738903046E-1,-1.987668991E0,-1.137392879E0,2.338602702E0
5.944565668E0,2.563672066E-1,-1.738783836E0,-7.773959637E-1,1.921831902E0
5.952790937E0,1.650443077E-1,-1.464360714E0,-2.378403544E-1,1.492702234E0
5.961002668E0,1.208033562E-1,-1.147144794E0,2.394875586E-1,1.178086975E0
5.969214591E0,9.614849091E-2,-9.193105698E-1,5.244381428E-1,1.062737889E0
5.977427206E0,1.013011932E-1,-8.409614563E-1,6.129692793E-1,1.045566564E0
5.985639437E0,1.140270233E-1,-8.246192932E-1,5.440842509E-1,9.944982719E-1
5.993853091E0,7.795286179E-2,-8.303313255E-1,3.131574690E-1,8.908391321E-1
6.002066476E0,4.055118561E-2,-8.953742981E-1,-9.274548292E-2,9.010778307E-1
6.010278937E0,-4.781484604E-2,-9.221076965E-1,-4.690653682E-1,1.035659782E0
6.018491591E0,-2.443900108E-1,-9.945917130E-1,-6.435604095E-1,1.209590490E0
6.026703899E0,-6.102938652E-1,-1.061785221E0,-6.388012171E-1,1.381272403E0
6.034917975E0,-1.015395164E0,-1.125103951E0,-5.172762871E-1,1.601393455E0
6.043131206E0,-1.392121792E0,-1.123483658E0,-4.002855420E-1,1.833152238E0
6.051344206E0,-1.673326731E0,-1.069847584E0,-2.926532924E-1,2.007546301E0
6.059557206E0,-1.890718937E0,-1.066781044E0,-9.849676490E-2,2.173140931E0
6.067769591E0,-2.011492968E0,-1.247891426E0,2.449842393E-1,2.379780294E0
6.075983244E0,-2.033131361E0,-1.567739487E0,6.434162855E-1,2.646774404E0
6.084196244E0,-2.043440104E0,-1.895123005E0,9.108732939E-1,2.932034928E0
6.092409052E0,-2.006665468E0,-2.186822891E0,1.165517449E0,3.188625344E0
6.100621591E0,-1.767043591E0,-2.450111866E0,1.126884222E0,3.224183502E0
6.108834244E0,-1.411384583E0,-2.543322563E0,8.970618248E-1,3.043881735E0
6.117048244E0,-1.131438255E0,-2.485445499E0,7.885973454E-1,2.842442195E0
6.125260090E0,-9.146680832E-1,-2.347055435E0,7.580980062E-1,2.630589194E0
6.133474783E0,-5.411963463E-1,-2.058363914E0,5.641549826E-1,2.201823411E0
6.141687629E0,2.996444702E-2,-1.633800507E0,-2.789543569E-2,1.634313348E0
6.149901590E0,7.591357231E-1,-7.499532700E-1,-6.863919497E-1,1.268798984E0
6.158115129E0,1.229424477E0,6.786680222E-1,-1.078176856E0,1.770463262E0
6.166328090E0,1.457169533E0,2.384864807E0,-9.681842923E-1,2.957753205E0
6.174541090E0,1.824495792E0,4.219805717E0,-2.763735056E-1,4.605640835E0
6.182754629E0,2.248150826E0,6.319448471E0,9.087857604E-1,6.768714994E0
6.190969013E0,2.418485641E0,7.919177055E0,1.782623172E0,8.469957698E0
6.199195898E0,2.447181702E0,9.331315994E0,2.481815815E0,9.961002269E0
6.207408590E0,2.835269451E0,1.017940235E1,2.663191557E0,1.089731960E1
6.215622936E0,4.194087505E0,1.042888451E1,1.758813500E0,1.137740862E1
6.223837090E0,6.025805473E0,1.040743446E1,1.892898381E-1,1.202750408E1
6.232051898E0,7.475453854E0,1.022078896E1,-8.846187592E-1,1.269367904E1
6.240267552E0,8.336726189E0,1.020656586E1,-1.390014529E0,1.325168406E1
6.248481744E0,8.981124878E0,1.038243294E1,-1.832261443E0,1.384964620E1
6.256697013E0,9.618555069E0,1.063532066E1,-2.709468842E0,1.459341868E1
6.264910705E0,9.760744095E0,1.114332962E1,-4.030000210E0,1.535209504E1
6.273125321E0,8.943538666E0,1.175759315E1,-5.234945774E0,1.567266850E1
6.281339782E0,7.616191864E0,1.254715538E1,-5.607712269E0,1.571254033E1
6.289554321E0,5.956172943E0,1.329689980E1,-4.930445194E0,1.538157437E1
6.297768321E0,4.108574867E0,1.370354080E1,-3.171120644E0,1.465344410E1
6.305981051E0,2.295236111E0,1.362347031E1,-1.291423678E0,1.387569195E1
6.314195282E0,8.671412468E-1,1.298126507E1,1.150645986E-1,1.301070392E1
6.322408513E0,-2.226448059E-1,1.176494598E1,8.767901659E-1,1.179967312E1
6.330621090E0,-1.036672115E0,9.559797287E0,1.478723764E0,9.728876462E0
6.338833936E0,-1.521346569E0,6.896941185E0,1.493504405E0,7.218922946E0
6.347047205E0,-1.588106632E0,4.115796089E0,1.445819378E0,4.642440500E0
6.355259474E0,-1.594005108E0,1.412245750E0,1.562811136E0,2.641527776E0
6.363472705E0,-1.808217525E0,-1.055091381E0,1.852051497E0,2.795167828E0
6.371687013E0,-2.063139915E0,-3.275822639E0,2.112420082E0,4.410201682E0
6.379900820E0,-2.417705059E0,-5.103233337E0,2.582509041E0,6.209479946E0
6.388113859E0,-2.824676275E0,-6.341696739E0,3.006207466E0,7.565262515E0
6.396327628E0,-3.297373056E0,-7.521011829E0,3.435103893E0,8.901585632E0
6.404539974E0,-3.864656687E0,-8.698324203E0,3.719030380E0,1.021898245E1
6.412752859E0,-4.264936447E0,-9.560612679E0,3.687969685E0,1.109937467E1
6.420964589E0,-4.814050198E0,-1.013635540E1,3.694832325E0,1.181408338E1
6.429176435E0,-5.294584274E0,-1.065022087E1,3.395582438E0,1.236890486E1
6.437388551E0,-5.636330128E0,-1.121310616E1,2.732720852E0,1.284405427E1
6.445613666E0,-6.135455608E0,-1.177395248E1,2.155895233E0,1.345056344E1
6.453827397E0,-6.512224197E0,-1.212492371E1,1.577751756E0,1.385323570E1
6.462040281E0,-6.828971386E0,-1.237733078E1,8.396428823E-1,1.416114994E1
6.470251666E0,-7.062680244E0,-1.232329178E1,-5.052149296E-2,1.420378558E1
6.478463820E0,-7.204484463E0,-1.196349144E1,-9.965087175E-1,1.400081260E1
6.486675512E0,-7.562614441E0,-1.119471645E1,-1.564438343E0,1.360008386E1
6.494887781E0,-8.166648865E0,-1.018906879E1,-1.714884639E0,1.317012171E1
6.503099397E0,-8.724041939E0,-9.176456451E0,-1.456138730E0,1.274506182E1
6.511311935E0,-9.091615677E0,-8.242800713E0,-9.688863754E-1,1.231015759E1
6.519525012E0,-9.183809280E0,-7.468213558E0,-3.740404844E-1,1.184299257E1
6.527738204E0,-9.076892853E0,-6.725350380E0,4.227350354E-1,1.130482315E1
6.535951743E0,-8.634366989E0,-6.259656906E0,1.075168133E0,1.071874920E1
6.544164512E0,-7.897048950E0,-6.114819050E0,1.532162786E0,1.010454932E1
6.552378243E0,-7.030928612E0,-6.185517311E0,1.724336863E0,9.521970340E0
6.560591396E0,-6.112647533E0,-6.234283447E0,1.582857370E0,8.873341390E0
6.568804935E0,-5.357619286E0,-6.313244343E0,1.165310740E0,8.361763430E0
6.577018666E0,-4.868290901E0,-6.301241398E0,6.811339855E-1,7.991861045E0
6.585231281E0,-4.804585457E0,-6.110737801E0,2.307449579E-1,7.776786040E0
6.593445666E0,-4.809436798E0,-5.709011555E0,-2.032047510E-1,7.467582435E0
6.601660396E0,-4.723613739E0,-4.956672668E0,-6.481173038E-1,6.877585822E0
6.609873627E0,-4.790563583E0,-3.874204636E0,-7.981135845E-1,6.212563585E0
6.618085896E0,-4.809371948E0,-2.746779442E0,-6.527571678E-1,5.576822371E0
6.626297742E0,-4.378127098E0,-1.638950348E0,-1.473633051E-1,4.677164854E0
6.634511012E0,-3.555585384E0,-6.211261749E-1,7.272130847E-1,3.681959264E0
6.642723896E0,-2.414024830E0,1.443257332E-1,1.242625475E0,2.718908580E0
6.650936935E0,-9.761366844E-1,6.580653191E-1,1.172620296E0,1.661604992E0
6.659149319E0,3.284239769E-1,1.229031563E0,6.094722748E-1,1.410615945E0
6.667362473E0,1.860831261E0,1.896784306E0,-2.921344042E-1,2.673167820E0
6.675576242E0,3.418200016E0,2.718456745E0,-1.314105153E0,4.560808128E0
6.683789858E0,4.799413204E0,3.763529778E0,-2.215591908E0,6.489019263E0
6.692017319E0,6.043841362E0,4.884428978E0,-2.390207052E0,8.130114058E0
6.700229627E0,6.745449066E0,5.651779175E0,-1.678843617E0,8.958917727E0
6.708441242E0,7.094622612E0,6.253264427E0,-5.128502846E-2,9.457252040E0
6.716654165E0,7.338677406E0,6.515446663E0,1.694312811E0,9.958811535E0
6.724866204E0,7.669312954E0,6.185997486E0,2.545484066E0,1.017666032E1
6.733078742E0,8.558654785E0,5.542478561E0,1.870574355E0,1.036671060E1
6.741290319E0,9.573434830E0,5.105758667E0,-3.631697893E-1,1.085593470E1
6.749502011E0,9.764018059E0,5.167595387E0,-2.994349003E0,1.144579472E1
6.757714280E0,9.196445465E0,5.732882977E0,-4.964444637E0,1.191999442E1
6.765926088E0,7.994043350E0,6.834129333E0,-5.715661526E0,1.196991393E1
6.774138203E0,6.141036987E0,8.271463394E0,-5.168821335E0,1.152589068E1
6.782349857E0,3.816798210E0,9.572542191E0,-3.192601919E0,1.078861528E1
6.790562280E0,2.010127068E0,1.045829010E1,-8.524146080E-1,1.068377524E1
6.798775203E0,3.741459846E-1,1.094636536E1,1.953219414E0,1.112555463E1
6.806987780E0,-3.692708015E-1,1.055108547E1,4.028545856E0,1.130004192E1
6.815200011E0,7.915019989E-3,9.051059723E0,4.982162952E0,1.033168391E1
6.823412626E0,1.330179691E0,6.931740761E0,4.155385017E0,8.190581947E0
6.831626549E0,2.791271210E0,4.699199200E0,2.051305771E0,5.837938288E0
6.839838511E0,3.940204620E0,2.683324337E0,-2.696055174E-1,4.774738640E0
6.848049818E0,4.525846004E0,1.118339062E0,-2.067497253E0,5.099853842E0
6.856261626E0,4.369557381E0,2.084836960E-1,-2.982375622E0,5.294436845E0
6.864473011E0,3.604069233E0,-3.231525421E-1,-3.192423344E0,4.825485406E0
6.872684972E0,2.372779369E0,-5.868983269E-1,-2.346531868E0,3.388324570E0
6.880897011E0,1.245056152E0,-6.971616745E-1,-9.303567410E-1,1.703456160E0
6.889108818E0,2.830581665E-1,-7.057075500E-1,4.426105618E-1,8.798006486E-1
6.897321588E0,-4.723176956E-1,-9.064350128E-1,1.574013233E0,1.876759467E0
6.905534972E0,-1.015630722E0,-1.397107601E0,2.395588398E0,2.953347116E0
6.913748087E0,-1.449138641E0,-2.098300457E0,2.847221851E0,3.822242781E0
6.921959549E0,-1.698715210E0,-2.769476414E0,2.774492502E0,4.272404664E0
6.930171164E0,-2.043718815E0,-3.522659779E0,2.297342539E0,4.675863690E0
6.938395395E0,-2.495621920E0,-4.204795837E0,1.636258602E0,5.156139933E0
6.946607741E0,-2.972829103E0,-4.775197029E0,9.903460741E-1,5.711480096E0
6.954820972E0,-3.265117168E0,-5.248502731E0,4.006204605E-1,6.194212444E0
6.963033203E0,-3.412738562E0,-5.485048294E0,-1.695877314E-1,6.462298297E0
6.971245626E0,-3.247123241E0,-5.623540401E0,-8.775308132E-1,6.552715187E0
6.979457126E0,-2.912600279E0,-5.630776405E0,-1.721819639E0,6.569135878E0
6.987669933E0,-2.433872461E0,-5.429772854E0,-2.453886509E0,6.436437477E0
6.995882164E0,-1.912755013E0,-4.810872078E0,-3.059706926E0,6.013728325E0
7.004094241E0,-1.690960884E0,-3.656547546E0,-3.126894474E0,5.099721338E0
7.012306164E0,-1.557571411E0,-2.306427479E0,-2.798349857E0,3.946694609E0
7.020519279E0,-1.323431015E0,-8.361773491E-1,-2.423876047E0,2.885452703E0
7.028731010E0,-1.204478264E0,7.056665421E-1,-1.925110102E0,2.377978566E0
7.036944049E0,-1.212566853E0,2.257544994E0,-1.241130948E0,2.847320460E0
7.045155664E0,-1.337195396E0,3.465358257E0,-2.725380063E-1,3.724389392E0
7.053368587E0,-1.413772583E0,4.179405689E0,6.880345941E-1,4.465375285E0
7.061582164E0,-1.291247845E0,4.614267826E0,1.669402719E0,5.074021482E0
7.069794702E0,-8.481488228E-1,4.665078163E0,2.183559418E0,5.220176474E0
7.078006087E0,-2.289314270E-1,4.469226360E0,2.195301056E0,4.984550189E0
7.086216702E0,6.231007576E-1,3.989073753E0,1.656774879E0,4.364157073E0
7.094427818E0,1.305497646E0,3.143977642E0,9.018452168E-1,3.521682029E0
7.102638048E0,1.486556053E0,2.123039722E0,3.758750558E-1,2.618860176E0
7.110847933E0,1.416604996E0,1.214647293E0,5.489599705E-2,1.866856002E0
7.119058087E0,1.192840576E0,6.060814857E-1,-2.790744305E-1,1.366779406E0
7.127269702E0,7.986035347E-1,1.147890091E-2,-6.963335872E-1,1.059613059E0
7.135479394E0,3.173685074E-1,-4.357810020E-1,-1.065497637E0,1.194116018E0
7.143688971E0,-4.715490341E-2,-7.129116058E-1,-1.326068640E0,1.506294984E0
7.151900356E0,-4.114799500E-1,-9.123754501E-1,-1.379601479E0,1.704419242E0
7.160111587E0,-6.531925201E-1,-1.183688641E0,-1.213109851E0,1.816429128E0
7.168322586E0,-8.185925484E-1,-1.502166748E0,-9.392607808E-1,1.951617153E0
7.176532317E0,-9.062118530E-1,-1.757202625E0,-6.985132694E-1,2.096879056E0
7.184755240E0,-9.133009911E-1,-1.757312775E0,-5.173041224E-1,2.046917303E0
7.192965317E0,-8.179345131E-1,-1.761027813E0,-3.182231188E-1,1.967613219E0
7.201176356E0,-5.567369461E-1,-1.833474159E0,-2.774210572E-1,1.936116206E0
7.209386509E0,-2.489128113E-1,-1.904863834E0,-1.662569046E-1,1.928238879E0
7.217596086E0,-1.029996872E-1,-2.034158707E0,7.616358995E-2,2.038188282E0
7.225805394E0,1.593780518E-2,-2.138042927E0,1.740708947E-1,2.145176507E0
7.234016548E0,1.611642838E-1,-2.231229782E0,8.081936836E-2,2.238502186E0
7.242226971E0,1.688785553E-1,-2.348413467E0,-1.068598032E-1,2.356901525E0
7.250437278E0,8.679723740E-2,-2.439356804E0,-2.591974735E-1,2.454623944E0
7.258648163E0,-1.544470787E-1,-2.473121643E0,-3.562864661E-1,2.503422579E0
7.266857932E0,-4.125542641E-1,-2.508626461E0,-5.116078854E-1,2.593289488E0
7.275069394E0,-6.953125000E-1,-2.521514416E0,-5.700407624E-1,2.677020899E0
7.283280278E0,-1.001589775E0,-2.434275627E0,-5.871604681E-1,2.696968172E0
7.291491971E0,-1.328177452E0,-2.281721115E0,-4.917907715E-1,2.685547384E0
7.299702932E0,-1.650281906E0,-2.172794819E0,-2.735619545E-1,2.742134905E0
7.307913855E0,-1.897033691E0,-2.106681824E0,-7.933098078E-2,2.836042760E0
7.316125855E0,-1.872840881E0,-2.089972019E0,-3.033173084E-2,2.806498890E0
7.324337163E0,-1.873319149E0,-2.085258484E0,4.373687506E-2,2.803487202E0
7.332548240E0,-2.101722002E0,-2.004084587E0,3.015615940E-1,2.919679743E0
7.340759624E0,-2.293250561E0,-1.843142509E0,6.044394970E-1,3.003584450E0
7.348972240E0,-2.242216587E0,-1.597342014E0,9.945099354E-1,2.927129438E0
7.357185009E0,-2.210800886E0,-1.418330669E0,1.407253742E0,2.979876766E0
7.365397124E0,-2.084394693E0,-1.248302937E0,1.769107103E0,3.005445292E0
7.373608470E0,-1.779591084E0,-1.063049316E0,1.791640997E0,2.739889731E0
7.381818509E0,-1.366585255E0,-8.526120186E-1,1.409578800E0,2.140424002E0
7.390029470E0,-7.502889633E-1,-4.445714951E-1,7.609341145E-1,1.157410070E0
7.398241086E0,-1.197457314E-1,1.957917213E-1,-1.171219349E-2,2.298056000E-1
7.406452893E0,7.416596413E-1,1.246215343E0,-8.150986433E-1,1.663579726E0
7.414665970E0,2.018142700E0,2.931792259E0,-1.460895300E0,3.847404435E0
7.422876932E0,3.279399395E0,5.128096581E0,-1.614332914E0,6.297452317E0
7.431100085E0,4.339967728E0,7.518616199E0,-1.216949224E0,8.766177893E0
7.439310585E0,5.503340244E0,9.736674309E0,-7.559549212E-1,1.120986388E1
7.447520508E0,6.804450512E0,1.128277206E1,-4.651466012E-1,1.318399991E1
7.455730970E0,8.767929077E0,1.218352699E1,-1.697672158E-1,1.501145333E1
7.463940162E0,1.112692070E1,1.242767429E1,7.130363584E-2,1.668114315E1
7.472150624E0,1.325800800E1,1.252470875E1,2.587611377E-1,1.824034163E1
7.480360855E0,1.477923203E1,1.239616394E1,7.498747110E-1,1.930421953E1
7.488571047E0,1.530578041E1,1.210421467E1,1.182905078E0,1.954937828E1
7.496782508E0,1.503247833E1,1.172980690E1,8.763736486E-1,1.908747771E1
7.504992278E0,1.391767120E1,1.143097687E1,-2.877832055E-1,1.801254072E1
7.513204008E0,1.239354992E1,1.127872658E1,-1.642141461E0,1.683764774E1
7.521415624E0,1.028504086E1,1.115711117E1,-3.066151142E0,1.548110067E1
7.529628085E0,7.702383995E0,1.111950684E1,-4.008985043E0,1.410822854E1
7.537839316E0,4.946067333E0,1.087456512E1,-4.139682770E0,1.264344582E1
7.546049624E0,2.430467606E0,1.022922993E1,-3.416441441E0,1.105515218E1
7.554261854E0,3.807921410E-1,9.030883789E0,-2.051517487E0,9.268796506E0
7.562473239E0,-9.019045830E-1,7.426687241E0,-6.524552703E-1,7.509648003E0
7.570685585E0,-1.515386581E0,5.576062679E0,3.423269987E-1,5.788441869E0
7.578897200E0,-1.811339378E0,3.683134556E0,9.188693166E-1,4.206037484E0
7.587108239E0,-2.001091003E0,1.314468861E0,1.241573095E0,2.696979299E0
7.595321469E0,-2.505817890E0,-1.035284996E0,1.584050536E0,3.140088283E0
7.603533662E0,-3.342745066E0,-2.914460182E0,2.004246712E0,4.866726580E0
7.611747354E0,-4.409214973E0,-4.283528805E0,2.392344475E0,6.596446603E0
7.619959700E0,-5.603216648E0,-5.344897747E0,2.910508633E0,8.272546720E0
7.628171392E0,-6.800048828E0,-6.378348351E0,3.589374065E0,9.990375265E0
7.636383585E0,-8.028754234E0,-7.321004391E0,4.319403172E0,1.169252939E1
7.644594739E0,-8.935132980E0,-8.122056961E0,4.819517136E0,1.300123671E1
7.652806392E0,-9.621647835E0,-9.107765198E0,4.946929932E0,1.414212182E1
7.661017662E0,-9.972911835E0,-1.008269787E1,4.504012108E0,1.487971410E1
7.669229661E0,-9.995307922E0,-1.098806667E1,3.481369972E0,1.525659617E1
7.677456200E0,-9.698447227E0,-1.176328659E1,2.095096111E0,1.538909412E1
7.685667700E0,-9.495321274E0,-1.229202461E1,8.108943105E-1,1.555353801E1
7.693880008E0,-9.375610352E0,-1.242355442E1,-1.479576826E-1,1.556498202E1
7.702092046E0,-9.297326088E0,-1.211178112E1,-9.047603607E-1,1.529555836E1
7.710303854E0,-9.261887550E0,-1.145509243E1,-1.232767940E0,1.478247004E1
7.718516469E0,-9.333106041E0,-1.038863277E1,-1.179762959E0,1.401507759E1
7.726729161E0,-9.357826233E0,-9.250023842E0,-7.924560308E-1,1.318179955E1
7.734941584E0,-9.522696495E0,-8.186410904E0,-1.360793114E-1,1.255856638E1
7.743152661E0,-9.478343964E0,-7.259880066E0,6.705991030E-1,1.195803353E1
7.751365430E0,-8.997065544E0,-6.511396408E0,1.303766727E0,1.118236465E1
7.759576777E0,-8.304859161E0,-5.929249763E0,1.727806449E0,1.034949291E1
7.767788353E0,-7.457580566E0,-5.532812119E0,1.994604111E0,9.497682002E0
7.776000315E0,-6.647768974E0,-5.331718922E0,2.234458447E0,8.809816317E0
7.784211353E0,-6.050296783E0,-5.255606651E0,2.574468136E0,8.417563699E0
7.792423353E0,-5.463533401E0,-5.428859711E0,2.687192917E0,8.157433466E0
7.800634123E0,-5.029864311E0,-5.734945297E0,2.472705364E0,8.018940352E0
7.808844046E0,-4.746497631E0,-5.946432114E0,1.979006767E0,7.861664100E0
7.817054546E0,-4.516965389E0,-5.831652164E0,1.383667111E0,7.505043502E0
7.825264507E0,-4.383440018E0,-5.579525948E0,8.647197485E-1,7.147964496E0
7.833477161E0,-4.518760204E0,-5.099202633E0,5.431362391E-1,6.834914648E0
7.841688276E0,-4.785873413E0,-4.576989174E0,5.642678738E-1,6.646187814E0
7.849900122E0,-4.949236870E0,-3.926179171E0,8.389023542E-1,6.372878912E0
7.858110468E0,-4.897463799E0,-3.266132832E0,1.168876290E0,6.001587050E0
7.866321699E0,-4.503283024E0,-2.588435650E0,1.539970040E0,5.417662303E0
7.874532315E0,-3.601136684E0,-1.989853382E0,1.809374928E0,4.494612278E0
7.882743468E0,-2.062235355E0,-1.455718517E0,1.338856220E0,2.857353153E0
7.890955776E0,-1.865692139E-1,-8.455343246E-1,-3.867518902E-2,8.667364859E-1
7.899167545E0,1.855349064E0,2.129850388E-1,-1.692637444E0,2.520457159E0
7.907379891E0,3.854796410E0,1.512208939E0,-3.322173357E0,5.308772650E0
7.915592122E0,5.337838173E0,3.472778320E0,-5.017671585E0,8.107387604E0
7.923817353E0,6.692644596E0,5.724283695E0,-6.002152920E0,1.065761489E1
7.932030660E0,7.458984375E0,8.134143829E0,-5.145203590E0,1.217677559E1
7.940242853E0,7.743050575E0,1.050918674E1,-2.492408276E0,1.328946715E1
7.948454430E0,7.739533901E0,1.237333965E1,1.331101656E0,1.465509300E1
7.956667660E0,7.538586140E0,1.313445091E1,5.394104958E0,1.607608317E1
7.964879507E0,7.671741962E0,1.254473877E1,8.302072525E0,1.688639996E1
7.973092199E0,8.311295509E0,1.119832993E1,8.550357819E0,1.635814308E1
7.981304276E0,8.898280144E0,9.239956856E0,6.147327900E0,1.422483155E1
7.989517160E0,9.344381332E0,6.963411331E0,2.027943611E0,1.182874106E1
7.997728853E0,9.276700974E0,4.884111881E0,-1.758178473E0,1.063028322E1
8.005939891E0,8.707805634E0,3.449474812E0,-4.837015629E0,1.054141715E1
8.014151622E0,7.785410881E0,2.882862091E0,-7.361309052E0,1.109560216E1
8.022363122E0,6.122877121E0,3.050695419E0,-8.887778282E0,1.121556818E1
8.030573660E0,3.883525848E0,3.761436939E0,-8.737411499E0,1.027484990E1
8.038783968E0,1.803719044E0,4.808210850E0,-6.884304047E0,8.588709808E0
8.046993929E0,2.463297844E-1,6.308036804E0,-4.325155258E0,7.652383596E0
8.055205775E0,-1.064578056E0,7.235511780E0,-1.190053105E0,7.409600768E0
8.063416852E0,-1.431489944E0,7.382896900E0,1.309835792E0,7.633609887E0
8.071628468E0,-1.074745178E0,6.708928585E0,3.056350231E0,7.450240043E0
8.079840814E0,-3.722743988E-1,5.473900318E0,3.865138531E0,6.711294121E0
8.088053121E0,6.587228775E-1,3.979654312E0,3.251450062E0,5.181070524E0
8.096267044E0,1.524187088E0,2.281182766E0,2.115445614E0,3.464397673E0
8.104480275E0,2.103382587E0,8.623113632E-1,1.181157470E0,2.561822040E0
8.112693891E0,2.315936565E0,-6.148772240E-1,7.190119028E-1,2.501722265E0
8.120905775E0,2.178764820E0,-1.781728745E0,4.096562862E-1,2.844185601E0
8.129117237E0,1.754425526E0,-2.669989586E0,3.199380636E-1,3.210796424E0
8.137329698E0,1.199956894E0,-3.212017059E0,2.858002782E-1,3.440731308E0
8.145540544E0,4.926071167E-1,-3.553134441E0,2.743345499E-1,3.597594415E0
8.153752890E0,-3.487391472E-1,-3.775584698E0,3.180798292E-1,3.804974846E0
8.161965467E0,-1.204855919E0,-3.885494232E0,2.843581438E-1,4.077940996E0
8.170191121E0,-1.922950745E0,-3.818456650E0,2.061949968E-1,4.280288206E0
8.178403083E0,-2.535136461E0,-3.730700016E0,2.077462673E-1,4.515329224E0
8.186615352E0,-3.283091068E0,-3.610271454E0,2.385427952E-1,4.885657540E0
8.194826544E0,-3.687205553E0,-3.524279118E0,1.526147127E-1,5.102873635E0
8.203038467E0,-3.619648218E0,-3.495625019E0,-9.067606926E-2,5.032839124E0
8.211251044E0,-3.138602018E0,-3.475612164E0,-3.377851248E-1,4.695189169E0
8.219463736E0,-2.413621902E0,-3.362527847E0,-4.009716511E-1,4.158478385E0
8.227676544E0,-1.629641533E0,-3.212198734E0,-3.406496048E-1,3.618009727E0
8.235889044E0,-9.695940018E-1,-2.945631981E0,-4.060589075E-1,3.127577998E0
8.244100929E0,-4.372177124E-1,-2.529139519E0,-7.078531981E-1,2.662472945E0
8.252313352E0,-2.045965195E-2,-1.895143986E0,-1.152878165E0,2.218359166E0
8.260525698E0,1.616406441E-1,-1.108790398E0,-1.418865561E0,1.807961096E0
8.268737967E0,2.012686729E-1,-2.285962105E-1,-1.389478922E0,1.422468622E0
8.276950121E0,9.324598312E-2,6.979541779E-1,-1.300851583E0,1.479205763E0
8.285164082E0,4.792690277E-3,1.594210148E0,-1.202222586E0,1.996714329E0
8.293376659E0,-9.791088104E-2,2.414947510E0,-1.090879440E0,2.651711894E0
8.301588544E0,-1.486740112E-1,3.007892132E0,-7.927057743E-1,3.114145386E0
8.309800774E0,-1.150794029E-1,3.302065849E0,-4.584475756E-1,3.335724257E0
8.318012274E0,-5.054092407E-2,3.464694500E0,-5.497062206E-2,3.465499117E0
8.326224005E0,1.242685318E-1,3.395102501E0,2.754959762E-1,3.408527790E0
8.334435928E0,3.008894920E-1,3.140033722E0,4.619755745E-1,3.188066450E0
8.342647851E0,4.173417091E-1,2.561014175E0,3.948259652E-1,2.624662883E0
8.350860620E0,4.197335243E-1,1.707088947E0,1.205182076E-2,1.757974446E0
8.359073313E0,2.269253731E-1,8.269901276E-1,-3.049302697E-1,9.101594725E-1
8.367285543E0,5.439758301E-2,7.134199142E-2,-6.408959627E-1,6.471448152E-1
8.375498890E0,-9.264230728E-2,-5.294203758E-1,-8.931122422E-1,1.042361746E0
8.383710890E0,-3.219957352E-1,-1.188753128E0,-1.238397956E0,1.746552247E0
8.391922736E0,-5.353698730E-1,-1.615815639E0,-1.551970601E0,2.303496001E0
8.400134428E0,-6.647505760E-1,-1.946452141E0,-1.788921833E0,2.725951318E0
8.408347389E0,-7.283015251E-1,-2.132395267E0,-1.827518106E0,2.901267846E0
8.416571466E0,-8.598551750E-1,-2.116346359E0,-1.564491987E0,2.768737621E0
8.424782582E0,-1.033991814E0,-2.050792694E0,-1.061889887E0,2.530316161E0
8.432994543E0,-9.430375099E-1,-2.020426273E0,-5.657817125E-1,2.300337153E0
8.441205697E0,-7.484173775E-1,-1.970520020E0,-3.075474501E-1,2.130179136E0
8.449418005E0,-5.992383957E-1,-1.755870819E0,-6.322652102E-2,1.856385354E0
8.457630928E0,-4.432539940E-1,-1.514081478E0,1.586243510E-1,1.585584596E0
8.465841543E0,-2.490415573E-1,-1.476821899E0,3.313454390E-1,1.533888660E0
8.474053389E0,-8.860826492E-2,-1.578643799E0,3.244925439E-1,1.614082736E0
8.482263735E0,-1.148495674E-1,-1.609237194E0,2.066467702E-1,1.626510885E0
8.490473851E0,-2.760095596E-1,-1.605673313E0,-8.747911453E-2,1.631569999E0
8.498684735E0,-6.151471138E-1,-1.623217106E0,-4.308592677E-1,1.788541152E0
8.506895658E0,-1.031036854E0,-1.620090485E0,-6.921501756E-1,2.041274611E0
8.515107735E0,-1.493105888E0,-1.589495659E0,-9.043726921E-1,2.360879414E0
8.523318927E0,-1.849287033E0,-1.545723438E0,-9.203481078E-1,2.579954286E0
8.531531389E0,-2.074089766E0,-1.449856281E0,-7.853770852E-1,2.649669556E0
8.539743504E0,-2.225477219E0,-1.349399090E0,-4.868897200E-1,2.647770450E0
8.547954427E0,-2.301644802E0,-1.307815552E0,-1.268537045E-1,2.650290960E0
8.556167004E0,-2.343932867E0,-1.092327595E0,3.345661759E-1,2.607515175E0
8.564379581E0,-2.362632990E0,-8.961701393E-1,7.377271652E-1,2.632374771E0
8.572593350E0,-2.312826633E0,-7.619333267E-1,1.079735994E0,2.663745342E0
8.580807273E0,-2.234759808E0,-7.377657890E-1,1.383197427E0,2.729777441E0
8.589021081E0,-2.104437590E0,-7.518539429E-1,1.550022840E0,2.719653053E0
8.597234927E0,-1.823869705E0,-7.587461472E-1,1.483848572E0,2.470628058E0
8.605448735E0,-1.419357777E0,-6.820869446E-1,1.163960457E0,1.958219355E0
8.613661389E0,-6.828694344E-1,-3.735756874E-1,3.626431227E-1,8.587080371E-1
8.621873927E0,-1.033883095E-1,3.030285835E-1,-2.828004956E-1,4.271903385E-1
8.630086389E0,4.128236771E-1,1.305873871E0,-2.426787615E-1,1.390907235E0
8.638298658E0,1.044008732E0,2.209962368E0,2.911696434E-1,2.461436097E0
8.646510196E0,1.965841770E0,3.340918541E0,1.354633927E0,4.106251775E0
8.654722965E0,3.140962601E0,4.402597427E0,2.411484957E0,5.921466868E0
8.662946965E0,4.483602047E0,5.367881298E0,3.335191965E0,7.748570345E0
8.671158696E0,6.149292946E0,6.070664883E0,3.617017031E0,9.367475009E0
8.679370388E0,7.763312340E0,6.460831165E0,3.200930119E0,1.059515509E1
8.687582388E0,9.017521858E0,6.440425873E0,2.211917639E0,1.129988343E1
8.695794427E0,1.003032303E1,6.270215988E0,7.651932836E-1,1.185362853E1
8.704006234E0,1.049042511E1,6.159522057E0,-2.431228310E-1,1.216749110E1
8.712217965E0,1.041651726E1,6.159698486E0,-1.220184565E0,1.216283551E1
8.720429350E0,1.003829002E1,6.467315197E0,-2.185785294E0,1.213964949E1
8.728641273E0,9.555180550E0,7.430783272E0,-3.409241199E0,1.257541017E1
8.736853350E0,8.730301857E0,8.879510880E0,-4.655755997E0,1.329435775E1
8.745064773E0,7.195283890E0,1.045501518E1,-4.979331970E0,1.363353218E1
8.753277350E0,5.369771957E0,1.158989716E1,-4.175355434E0,1.343851777E1
8.761488311E0,3.870779037E0,1.200136280E1,-2.567631721E0,1.286889164E1
8.769699388E0,2.909004211E0,1.181116104E1,-1.112703443E0,1.221490645E1
8.777911119E0,2.380576134E0,1.098541927E1,3.604847789E-1,1.124617840E1
8.786122580E0,1.913606644E0,9.644255638E0,1.004837871E0,9.883484019E0
8.794335580E0,1.622740269E0,7.875084877E0,1.136065960E0,8.120399846E0
8.802549273E0,1.225438595E0,5.949980736E0,8.667364120E-1,6.136383504E0
8.810764003E0,8.322663307E-1,3.980540276E0,4.412570000E-1,4.090486019E0
8.818978234E0,1.865720749E-2,1.848711014E0,2.829813659E-1,1.870336589E0
8.827191349E0,-7.864689827E-1,7.170581818E-2,2.152530849E-2,7.900243819E-1
8.835405888E0,-1.551591873E0,-1.118267059E0,-3.304293454E-1,1.940912700E0
8.843620619E0,-2.240533352E0,-2.044532776E0,-6.229767203E-1,3.096482515E0
8.851836503E0,-3.140903234E0,-2.754923344E0,-7.968270183E-1,4.253211617E0
8.860050772E0,-4.170721531E0,-3.391975880E0,-5.462856889E-1,5.403595702E0
8.868266003E0,-5.063616753E0,-3.956815720E0,2.062517703E-1,6.429552477E0
8.876481465E0,-5.410320759E0,-4.456883430E0,1.142106771E0,7.102097472E0
8.884695580E0,-5.493242741E0,-4.964899063E0,1.982250571E0,7.665197704E0
8.892911349E0,-5.440879345E0,-5.561955452E0,2.695389748E0,8.234296715E0
8.901126657E0,-5.340254784E0,-6.281979084E0,3.150389910E0,8.826468090E0
8.909356388E0,-5.302948475E0,-6.926343918E0,3.323815107E0,9.335054872E0
8.917573041E0,-5.290146351E0,-7.612173080E0,3.195850134E0,9.805319245E0
8.925789003E0,-5.404837132E0,-8.200114250E0,2.700640678E0,1.018565649E1
8.934004541E0,-5.579524517E0,-8.635678291E0,1.903075933E0,1.045599022E1
8.942219926E0,-5.713671207E0,-8.902371407E0,9.974889755E-1,1.062512304E1
8.950436849E0,-5.891226768E0,-8.871829987E0,1.446788311E-1,1.065067379E1
8.958653003E0,-6.177204609E0,-8.597456932E0,-5.101943612E-1,1.059879336E1
8.966868849E0,-6.627024174E0,-8.300739288E0,-9.186740518E-1,1.066131719E1
8.975085695E0,-7.106138229E0,-8.100905418E0,-8.581740260E-1,1.081010323E1
8.983301118E0,-7.766378880E0,-7.799102306E0,-6.963856816E-1,1.102848996E1
8.991518695E0,-8.230451584E0,-7.442953587E0,-6.091661453E-1,1.111345917E1
8.999735041E0,-8.453732491E0,-7.065209866E0,-4.392442703E-1,1.102613799E1
9.007949003E0,-8.366476059E0,-6.845043182E0,-2.684582472E-1,1.081316825E1
9.016163733E0,-7.971550941E0,-6.632308960E0,-6.792235374E-2,1.037004147E1
9.024376733E0,-7.518130302E0,-6.411770821E0,2.522498369E-1,9.884165027E0
9.032589310E0,-7.185882568E0,-6.242224693E0,5.492544174E-1,9.534356707E0
9.040801272E0,-6.775171757E0,-6.238709927E0,6.601511240E-1,9.233647892E0
9.049013310E0,-6.277441978E0,-6.141280174E0,4.765185714E-1,8.794809260E0
9.057225272E0,-5.999875069E0,-5.906250000E0,4.702973366E-2,8.419293420E0
9.065438079E0,-6.103811741E0,-5.619304657E0,-3.543511629E-1,8.304135557E0
9.073651425E0,-6.436015129E0,-5.120431900E0,-3.279924393E-1,8.230959399E0
9.081863771E0,-6.707193375E0,-4.562854767E0,7.258474827E-2,8.112419808E0
9.090076541E0,-6.776398659E0,-4.011057854E0,5.537424088E-1,7.893972038E0
9.098287964E0,-6.740135670E0,-3.490669012E0,1.349210501E0,7.709381815E0
9.106498271E0,-6.472928524E0,-3.277466297E0,2.069748402E0,7.544829186E0
9.114711387E0,-5.438773632E0,-3.245487690E0,2.357187271E0,6.757942053E0
9.122923425E0,-4.141990662E0,-2.967175007E0,1.961210728E0,5.459538596E0
9.131136733E0,-2.931062460E0,-2.193677425E0,1.609697342E0,3.999309106E0
9.139350848E0,-1.808456421E0,-6.461439133E-1,1.175808430E0,2.251786412E0
9.147564925E0,-3.479852676E-1,1.294081688E0,5.015075207E-2,1.340990775E0
9.155792502E0,1.569344044E0,3.363417625E0,-1.488662481E0,3.998941714E0
9.164006156E0,4.094802380E0,5.196897984E0,-3.275584698E0,7.382723772E0
9.172220925E0,6.409712315E0,6.763849735E0,-4.401030064E0,1.030549081E1
9.180433540E0,7.646765709E0,8.745214462E0,-4.437196732E0,1.243545402E1
9.188647233E0,8.470436096E0,1.079244614E1,-3.142649412E0,1.407485086E1
9.196861156E0,9.234498978E0,1.239850235E1,-5.055848956E-1,1.546785208E1
9.205073809E0,9.871307373E0,1.291794014E1,2.140112877E0,1.639804774E1
9.213287194E0,1.077726650E1,1.237967682E1,3.930527210E0,1.687764544E1
9.221501079E0,1.190397644E1,1.139436626E1,3.870575666E0,1.692683058E1
9.229715925E0,1.297830677E1,1.043605232E1,1.889094591E0,1.676055826E1
9.237929425E0,1.328989124E1,9.480394363E0,-1.138452053E0,1.636444804E1
9.246141732E0,1.233105278E1,8.541601181E0,-3.335707188E0,1.536687203E1
9.254355155E0,9.899562836E0,8.132629395E0,-4.712937355E0,1.365110925E1
9.262568078E0,7.172646999E0,8.293963432E0,-4.867925644E0,1.199722445E1
9.270782425E0,4.301653862E0,8.738420486E0,-3.910977364E0,1.049571162E1
9.278998309E0,1.706986904E0,8.972421646E0,-2.128588200E0,9.378115067E0
9.287212425E0,-1.935100555E-2,8.599905014E0,-2.106826305E-1,8.602507070E0
9.295426155E0,-7.946348190E-1,7.384496689E0,1.137877703E0,7.513787428E0
9.303638501E0,-7.154741287E-1,5.467449188E0,1.834799647E0,5.811315996E0
9.311851117E0,-1.761741638E-1,3.515427589E0,1.964030504E0,4.030717590E0
9.320064155E0,4.248495102E-1,1.151398659E0,1.865298510E0,2.232835531E0
9.328276155E0,7.328567505E-1,-9.005818367E-1,1.706778049E0,2.064271778E0
9.336488463E0,9.618506432E-1,-2.639347076E0,1.392181516E0,3.135199997E0
9.344701155E0,8.982286453E-1,-4.089486599E0,1.247249365E0,4.368792318E0
9.352914617E0,8.362951279E-1,-5.259654045E0,1.390656710E0,5.504296167E0
9.361127732E0,7.122626305E-1,-6.190826416E0,1.616074443E0,6.437806022E0
9.369340847E0,5.236015320E-1,-7.082994938E0,1.862075210E0,7.342363376E0
9.377554655E0,3.379030228E-1,-7.522819042E0,1.873795867E0,7.760031942E0
9.385768078E0,3.765907288E-1,-7.754374981E0,1.474215269E0,7.902244148E0
9.393983040E0,1.868591309E-1,-7.663514614E0,9.870460629E-1,7.729077080E0
9.402210232E0,-5.345153809E-1,-7.145688534E0,5.657713413E-1,7.187953014E0
9.410424963E0,-1.465888500E0,-6.436865330E0,3.637133837E-1,6.611682977E0
9.418640578E0,-2.416120052E0,-5.676731586E0,4.261689186E-1,6.184216810E0
9.426854924E0,-3.503162384E0,-4.904101372E0,6.313444376E-1,6.059781576E0
9.435069386E0,-4.521136284E0,-4.194353580E0,8.852937222E-1,6.230330668E0
9.443283078E0,-5.293625832E0,-3.550393105E0,8.767729998E-1,6.434010921E0
9.451497462E0,-5.787037373E0,-2.816030979E0,6.007868052E-1,6.463805134E0
9.459711809E0,-6.049650669E0,-2.157476425E0,4.157642126E-1,6.436290673E0
9.467928116E0,-5.821917057E0,-1.679193497E0,9.047043324E-2,6.059916989E0
9.476143655E0,-4.884325981E0,-1.442525864E0,-6.238931417E-1,5.130961295E0
9.484358155E0,-3.625566244E0,-1.179305553E0,-1.577813983E0,4.126134892E0
9.492573655E0,-2.501076221E0,-6.662940979E-1,-2.237096548E0,3.421100854E0
9.500787347E0,-1.484355450E0,1.988000870E-1,-2.628386021E0,3.025102585E0
9.509000847E0,-6.703858376E-1,1.056069851E0,-2.817392826E0,3.082596801E0
9.517214616E0,1.543264389E-1,2.138920307E0,-2.815855265E0,3.539468548E0
9.525427270E0,9.037208557E-1,3.382289410E0,-2.398188353E0,4.243571657E0
9.533640577E0,1.479264259E0,4.725438595E0,-1.460792184E0,5.162548447E0
9.541854616E0,1.841501236E0,5.744383812E0,-1.026669145E-1,6.033209152E0
9.550069154E0,2.156601429E0,6.347036839E0,1.265409946E0,6.821808315E0
9.558283077E0,2.255327225E0,6.429072857E0,2.489629507E0,7.253808226E0
9.566497923E0,2.180143833E0,6.128987789E0,3.258211136E0,7.275538348E0
9.574710962E0,1.856585979E0,5.616145134E0,3.286804676E0,6.766910864E0
9.582923116E0,1.459558964E0,4.542829037E0,2.755053520E0,5.509802893E0
9.591135116E0,9.267792702E-1,3.167585850E0,2.001451015E0,3.859834983E0
9.599347231E0,3.322343826E-1,1.756523132E0,1.319324017E0,2.221794108E0
9.607557962E0,-2.305874825E-1,3.544173241E-1,7.114816308E-1,8.276402223E-1
9.615770462E0,-6.315889359E-1,-8.990526199E-1,7.784527540E-2,1.101480860E0
9.623983116E0,-8.980302811E-1,-2.001525879E0,-6.185665131E-1,2.279295672E0
9.632195692E0,-1.207932472E0,-2.896229744E0,-1.236834526E0,3.372981950E0
9.640408923E0,-1.442923546E0,-3.525856495E0,-1.633684635E0,4.145192139E0
9.648633962E0,-1.592683792E0,-4.079752445E0,-1.740587354E0,4.712819327E0
9.656846039E0,-1.669417858E0,-4.472325325E0,-1.713418603E0,5.071927948E0
9.665059462E0,-1.502687931E0,-4.706458092E0,-1.551510096E0,5.178416975E0
9.673273885E0,-1.237516403E0,-4.761033058E0,-1.268970966E0,5.080272625E0
9.681486654E0,-9.346909523E-1,-4.835149765E0,-9.980239868E-1,5.024775846E0
9.689699769E0,-5.747399330E-1,-4.752562523E0,-8.972654939E-1,4.870550471E0
9.697913115E0,-2.260327339E-1,-4.321440697E0,-9.121998549E-1,4.422448311E0
9.706127308E0,-1.409091949E-1,-3.781198502E0,-7.032759786E-1,3.848625029E0
9.714340384E0,-1.832065582E-1,-3.362720013E0,-4.777435064E-1,3.401424611E0
9.722552846E0,-2.445936203E-1,-2.910627842E0,-2.843741179E-1,2.934697448E0
9.730765961E0,-3.538985252E-1,-2.309918404E0,-2.740709782E-1,2.352888034E0
9.738978654E0,-6.907591820E-1,-1.658759594E0,-2.563575506E-1,1.815034664E0
9.747191654E0,-1.133094311E0,-1.060750484E0,-2.771729231E-2,1.552373201E0
9.755404115E0,-1.735217810E0,-5.393109322E-1,4.178827405E-1,1.864527585E0
9.763616038E0,-2.360442400E0,-2.419452667E-1,9.785094261E-1,2.566652788E0
9.771830538E0,-2.571067810E0,-1.744093895E-1,1.192862511E0,2.839670630E0
9.780043884E0,-2.422742844E0,-2.645630836E-1,1.066977262E0,2.660473076E0
9.788257807E0,-1.980442047E0,-4.254851341E-1,8.566929698E-1,2.199343344E0
9.796471653E0,-1.547225952E0,-4.275674820E-1,6.388058662E-1,1.727655936E0
9.804685230E0,-1.252818108E0,-1.262507439E-1,5.640219450E-1,1.379714904E0
9.812899999E0,-1.080089092E0,2.355699539E-1,5.140897632E-1,1.219169363E0
9.821113576E0,-6.259546280E-1,6.829719543E-1,4.609712064E-1,1.034777435E0
9.829327307E0,7.994174957E-2,1.176139832E0,2.825622857E-1,1.212244625E0
9.837541384E0,8.064308167E-1,1.743700027E0,1.341453195E-1,1.925828501E0
9.845754499E0,1.510066986E0,2.266752243E0,-3.246343136E-2,2.723879936E0
9.853967730E0,2.218360424E0,2.914340973E0,-1.423432231E-1,3.665346896E0
9.862180153E0,2.593770027E0,3.947299957E0,2.630585134E-1,4.730541162E0
9.870392961E0,2.925420761E0,5.287086010E0,1.081541896E0,6.138493136E0
9.878606884E0,3.555274010E0,6.471287251E0,1.647731423E0,7.565219812E0
9.886820307E0,4.187375546E0,7.235306740E0,2.203678131E0,8.645228446E0
9.895047807E0,4.909951687E0,7.531118870E0,2.285990715E0,9.276374860E0
9.903261115E0,6.038808346E0,7.464570522E0,1.591850877E0,9.732471861E0
9.911474576E0,7.131896973E0,7.133874893E0,5.196621418E-1,1.010080067E1
9.919687884E0,8.261947632E0,6.462868214E0,-7.164799571E-1,1.051388547E1
9.927900461E0,9.155519485E0,5.857614994E0,-1.771355152E0,1.101239708E1
9.936112691E0,9.756124496E0,5.533829689E0,-2.561045408E0,1.150496370E1
9.944326230E0,9.909602165E0,5.459518909E0,-3.090993881E0,1.172863185E1
9.952539345E0,1.001655006E1,5.655877113E0,-3.798406601E0,1.211396359E1
9.960752076E0,1.016464615E1,6.192607403E0,-5.248414040E0,1.300823846E1
9.968966153E0,9.662883759E0,7.174761295E0,-6.665559769E0,1.375784174E1
9.977178537E0,8.401342392E0,8.173363686E0,-7.031184673E0,1.366835710E1
9.985391191E0,6.382145882E0,9.125876427E0,-6.048398495E0,1.267266866E1
9.993604768E0,4.329083443E0,9.625514984E0,-3.992370129E0,1.128408266E1
1.000181788E1,2.341336727E0,9.850930214E0,-1.809144020E0,1.028570298E1
1.001003058E1,5.429530144E-1,9.967884064E0,-7.438743114E-2,9.982937652E0
1.001824300E1,-1.178436279E0,9.728423119E0,1.101297736E0,9.861226351E0
1.002645458E1,-2.274486065E0,8.625643730E0,1.713068843E0,9.083480692E0
1.003466727E1,-2.826463223E0,6.920855045E0,2.015210867E0,7.742622537E0
1.004287827E1,-2.995929718E0,5.423740864E0,2.270976543E0,6.599234372E0
1.005109065E1,-3.098794222E0,3.711895943E0,2.340300322E0,5.371936589E0
1.005930308E1,-3.223371267E0,1.812864780E0,2.332265139E0,4.372191866E0
1.006751615E1,-3.407476664E0,-9.344434738E-2,2.314521790E0,4.120271857E0
1.007572927E1,-3.740230560E0,-1.814431190E0,2.259858608E0,4.731643068E0
1.008394111E1,-4.074132919E0,-3.233873367E0,2.134052038E0,5.622337068E0
1.009215419E1,-4.416921616E0,-4.334477425E0,2.101269007E0,6.535458862E0
1.010036734E1,-4.673407555E0,-5.240657806E0,2.207202911E0,7.360501145E0
1.010858092E1,-4.940609455E0,-6.006445885E0,2.363325596E0,8.128488287E0
1.011679408E1,-5.249583244E0,-6.798311234E0,2.590425968E0,8.971369269E0
1.012500696E1,-5.661848068E0,-7.506663799E0,2.775598049E0,9.803594722E0
1.013322154E1,-6.039484501E0,-8.173873901E0,2.915814400E0,1.057305827E1
1.014144761E1,-6.356967449E0,-8.768132210E0,2.897310734E0,1.121095835E1
1.014965938E1,-6.586289883E0,-9.351011276E0,2.661498547E0,1.174326193E1
1.015787250E1,-6.701846600E0,-9.795101166E0,2.233185768E0,1.207666648E1
1.016608419E1,-6.730784893E0,-1.013553238E1,1.736899376E0,1.229021161E1
1.017429673E1,-6.878278732E0,-1.037086678E1,1.318642855E0,1.251416857E1
1.018250858E1,-7.056473255E0,-1.057512665E1,9.944707751E-1,1.275210142E1
1.019072111E1,-7.249406338E0,-1.067599392E1,6.488792300E-1,1.292098226E1
1.019893415E1,-7.419917107E0,-1.067278671E1,3.663427234E-1,1.300375919E1
1.020714723E1,-7.581838608E0,-1.054262447E1,9.740269184E-2,1.298617321E1
1.021535958E1,-7.647633553E0,-1.028479385E1,-8.454579115E-2,1.281680270E1
1.022357142E1,-7.694622993E0,-9.800283432E0,-4.094883204E-1,1.246677420E1
1.023178292E1,-7.663552284E0,-9.237322807E0,-5.542094707E-1,1.201521179E1
1.023999508E1,-7.748657227E0,-8.693638802E0,-3.428148031E-1,1.165068953E1
1.024820788E1,-7.765158176E0,-8.073647499E0,-1.087152958E-2,1.120185626E1
1.025642180E1,-7.619028091E0,-7.387405872E0,2.054132819E-1,1.061440291E1
1.026463480E1,-7.287590027E0,-6.714908123E0,2.441019416E-1,9.912544843E0
1.027284765E1,-6.719160080E0,-6.100719929E0,1.461070776E-2,9.075577629E0
1.028106127E1,-5.797312737E0,-5.395389557E0,-4.078258276E-1,7.930030602E0
1.028927434E1,-4.716773033E0,-4.650336266E0,-7.732037902E-1,6.668689476E0
1.029748796E1,-3.779046297E0,-3.918377399E0,-8.268196583E-1,5.506224034E0
1.030570077E1,-3.071555138E0,-2.999216080E0,-5.434399843E-1,4.327247979E0
1.031391423E1,-2.705877542E0,-2.156887531E0,2.568662167E-3,3.460338668E0
1.032212550E1,-2.189976692E0,-1.284615040E0,5.972005129E-1,2.608233534E0
1.033033761E1,-1.211994171E0,-4.522113800E-1,7.613488436E-1,1.501025338E0
1.033854930E1,2.295889854E-1,4.538254738E-1,4.685229659E-1,6.915073626E-1
1.034676069E1,1.643893242E0,1.392969608E0,-1.090896130E-2,2.154731613E0
1.035497434E1,2.911557198E0,2.321449757E0,-5.215125084E-1,3.760089039E0
1.036318754E1,4.067869186E0,3.404929638E0,-1.069235563E0,5.411503511E0
1.037140042E1,4.865681171E0,4.777621269E0,-1.629356384E0,7.011085542E0
1.037961307E1,5.237600327E0,5.803063869E0,-2.083654165E0,8.090094074E0
1.038783738E1,5.590025902E0,6.727956772E0,-2.380384922E0,9.065319867E0
1.039604923E1,5.675195217E0,7.652131557E0,-1.823004842E0,9.699809523E0
1.040426165E1,5.548626423E0,8.608907700E0,-5.811153054E-1,1.025856920E1
1.041247607E1,5.485489845E0,9.021736145E0,7.805287838E-1,1.058732955E1
1.042068919E1,5.783833981E0,8.638308525E0,1.608978987E0,1.051959710E1
1.042890196E1,6.656473160E0,7.907474995E0,1.192695379E0,1.040477381E1
1.043711557E1,7.453637600E0,7.484706402E0,-5.800287724E-1,1.057894025E1
1.044532900E1,7.737977505E0,7.206948280E0,-2.064109087E0,1.077390114E1
1.045354350E1,7.442007542E0,6.976746082E0,-3.494752407E0,1.078293821E1
1.046175642E1,6.405790329E0,6.911125183E0,-4.210432529E0,1.032112121E1
1.046996942E1,4.777169704E0,7.048274040E0,-3.842912674E0,9.341707293E0
1.047818284E1,2.867495537E0,7.410642624E0,-2.682826042E0,8.386758034E0
1.048639561E1,1.228429794E0,7.641325951E0,-1.261181712E0,7.841522898E0
1.049460915E1,1.519031525E-1,7.597004414E0,-1.919394732E-2,7.598547166E0
1.050282177E1,-3.924655914E-1,7.237311840E0,9.705489874E-1,7.312638187E0
1.051103454E1,-2.478322983E-1,6.471155167E0,1.583305836E0,6.666642889E0
1.051924742E1,4.067649841E-1,5.011177063E0,1.936354518E0,5.387654604E0
1.052745996E1,1.330402851E0,3.367698193E0,1.396327257E0,3.880862362E0
1.053567234E1,2.158670425E0,1.877604008E0,5.747457743E-1,2.918147961E0
1.054388469E1,2.862431526E0,6.884980202E-1,-4.099316001E-1,2.972471645E0
1.055209796E1,3.240305424E0,-2.659020424E-1,-1.218504667E0,3.472036399E0
1.056031184E1,3.055325508E0,-9.761776924E-1,-1.585706234E0,3.578044313E0
1.056852438E1,2.378653526E0,-1.508893967E0,-1.408048868E0,3.149183262E0
1.057673777E1,1.683750629E0,-1.758417606E0,-8.706602454E-1,2.585555631E0
1.058495057E1,9.464087486E-1,-1.949420452E0,-4.828763008E-2,2.167547304E0
1.059316307E1,2.967829704E-1,-2.049036503E0,6.094552875E-1,2.158255423E0
1.060137507E1,-2.653880119E-1,-2.214726925E0,1.249496818E0,2.556694828E0
1.060958923E1,-7.178277969E-1,-2.439557076E0,1.701952934E0,3.059960663E0
1.061780330E1,-1.133115292E0,-2.704084396E0,1.918494701E0,3.503804305E0
1.062601815E1,-1.484393597E0,-3.008874416E0,1.832400084E0,3.822883685E0
1.063424500E1,-1.778005600E0,-3.366936684E0,1.608772278E0,4.133487001E0
1.064245777E1,-2.096615791E0,-3.657192230E0,1.334874988E0,4.421848484E0
1.065067142E1,-2.188600779E0,-3.976992846E0,8.050848246E-1,4.610271905E0
1.065888404E1,-2.225905180E0,-4.118935585E0,1.972770095E-1,4.686064707E0
1.066709730E1,-2.337456465E0,-4.064731598E0,-1.814274788E-1,4.692404673E0
1.067531050E1,-2.546648979E0,-3.705585957E0,-2.762198448E-1,4.504784757E0
1.068352315E1,-2.742081881E0,-3.141611099E0,-1.509296894E-1,4.172710523E0
1.069173715E1,-2.829672098E0,-2.634970188E0,-3.465354443E-3,3.866539032E0
1.069994865E1,-2.635204077E0,-2.173633099E0,4.028671980E-2,3.416226631E0
1.070816211E1,-2.038794994E0,-1.884423733E0,-1.577943563E-1,2.780761927E0
1.071637511E1,-1.409881115E0,-1.540581703E0,-7.327365279E-1,2.213156018E0
1.072458900E1,-8.209924698E-1,-8.700346947E-1,-1.438417792E0,1.870837981E0
1.073280484E1,-3.918051720E-1,6.800079346E-2,-1.904995799E0,1.946058682E0
1.074102030E1,3.565788269E-2,1.233930588E0,-1.868944645E0,2.239823713E0
1.074923534E1,2.950119972E-1,2.198728561E0,-1.579084158E0,2.723039872E0
1.075744950E1,4.993634224E-1,2.874086380E0,-1.264374614E0,3.179367785E0
1.076566330E1,4.376950264E-1,3.493414402E0,-9.677014351E-1,3.651296645E0
1.077387900E1,1.280894279E-1,3.946657181E0,-5.123156309E-1,3.981830874E0
1.078209388E1,-1.903762817E-1,4.252028465E0,-1.150386035E-1,4.257842538E0
1.079034611E1,-5.729904175E-1,4.291674137E0,3.352078199E-1,4.342712194E0
1.079856034E1,-9.331688881E-1,3.966363907E0,7.298720479E-1,4.139512051E0
1.080677353E1,-1.162527561E0,3.320288658E0,8.778773546E-1,3.625804153E0
1.081498727E1,-1.209116936E0,2.277328491E0,6.892255545E-1,2.668936246E0
1.082320134E1,-9.802045822E-1,8.433279991E-1,2.665668428E-1,1.320250362E0
1.083141496E1,-8.634886742E-1,-4.231748581E-1,-5.821284652E-2,9.633682507E-1
1.083962703E1,-9.261269569E-1,-1.506526470E0,-3.229196966E-1,1.797668011E0
1.084784019E1,-9.022026062E-1,-2.366236687E0,-6.474087238E-1,2.613844612E0
1.085605369E1,-9.483742714E-1,-3.265916824E0,-1.058313131E0,3.561692455E0
1.086426753E1,-1.121122360E0,-3.963330746E0,-1.380998373E0,4.344198712E0
1.087248234E1,-1.305267811E0,-4.459068298E0,-1.634528995E0,4.925312090E0
1.088070961E1,-1.388996124E0,-4.762415886E0,-1.745381832E0,5.258923183E0
1.088892346E1,-1.395143509E0,-4.922791958E0,-1.624928236E0,5.368491207E0
1.089713603E1,-1.409245968E0,-4.808721542E0,-1.171167374E0,5.146009142E0
1.090534980E1,-1.320052624E0,-4.526657104E0,-5.933389068E-1,4.752390402E0
1.091356300E1,-1.104997635E0,-4.107999802E0,-1.993457675E-1,4.258687694E0
1.092177500E1,-9.845051765E-1,-3.391341686E0,2.514873445E-1,3.540295858E0
1.092998738E1,-1.074002266E0,-2.734567642E0,8.400130868E-1,3.055644456E0
1.093819907E1,-1.031802177E0,-2.435641289E0,1.263473630E0,2.931438185E0
1.094641138E1,-8.461833000E-1,-2.180178642E0,1.531709194E0,2.795592629E0
1.095462423E1,-7.335300446E-1,-1.792355061E0,1.701518297E0,2.577938615E0
1.096283615E1,-8.355393410E-1,-1.338447571E0,1.794838786E0,2.389772826E0
1.097104773E1,-1.010968685E0,-9.173402786E-1,1.542905092E0,2.060127907E0
1.097926042E1,-9.424953461E-1,-4.787225723E-1,9.493527412E-1,1.420824903E0
1.098747376E1,-7.509818077E-1,1.041851044E-1,2.485503852E-1,7.978756203E-1
1.099568730E1,-5.862302780E-1,8.460206985E-1,3.730475903E-3,1.029286587E0
1.100389976E1,-2.953796387E-1,1.755557060E0,1.973521709E-2,1.780342439E0
1.101211261E1,3.735656738E-1,2.721719742E0,9.114098549E-2,2.748748141E0
1.102032653E1,1.491339684E0,3.775107384E0,3.565159738E-1,4.074632922E0
1.102854042E1,2.784366131E0,4.914741993E0,8.159627914E-1,5.707291729E0
1.103675411E1,3.823280334E0,6.091482162E0,1.258378267E0,7.301174105E0
1.104496600E1,4.889122009E0,7.018050671E0,1.444654703E0,8.674305531E0
1.105317815E1,5.745309830E0,7.895575523E0,1.497089386E0,9.878763815E0
1.106139092E1,6.740854263E0,8.320807457E0,1.447748780E0,1.080605985E1
1.106960511E1,7.880960464E0,8.449895859E0,1.240458012E0,1.162105907E1
1.107781880E1,9.040087700E0,8.423444748E0,1.026751518E0,1.239886389E1
1.108603261E1,1.001841164E1,8.156782150E0,5.427309275E-1,1.293043787E1
1.109424530E1,1.071364594E1,7.743768692E0,-8.800822496E-2,1.321952753E1
1.110245780E1,1.073777008E1,7.431797504E0,-9.310346246E-1,1.309191147E1
1.111067176E1,1.023808861E1,7.313236237E0,-1.936820507E0,1.273001007E1
1.111888415E1,9.666561127E0,7.462982178E0,-3.154641867E0,1.261309923E1
1.112710919E1,8.808902740E0,7.857674599E0,-4.883486271E0,1.277451587E1
1.113532061E1,7.695674419E0,8.238676071E0,-6.543661118E0,1.303528630E1
1.114353334E1,6.472896099E0,8.583578110E0,-7.829561234E0,1.329955737E1
1.115174746E1,4.909189224E0,9.297653198E0,-7.645867825E0,1.300022264E1
1.115996088E1,3.011852264E0,1.062488365E1,-5.333948612E0,1.226419237E1
1.116817396E1,1.481350899E0,1.173864269E1,-1.829116106E0,1.197229295E1
1.117638753E1,5.753312111E-1,1.165801144E1,1.911186099E0,1.182763159E1
1.118460026E1,2.189779282E-1,1.085042381E1,5.071924686E0,1.197931836E1
1.119281299E1,-3.542904854E-1,9.491496086E0,8.110720634E0,1.248990828E1
1.120102519E1,-1.212703705E0,7.579929352E0,9.288430214E0,1.204993424E1
1.120923830E1,-2.067206144E0,5.012478828E0,8.138753891E0,9.779447845E0
1.121745211E1,-3.019090652E0,1.991926193E0,5.731676579E0,6.777521282E0
1.122566480E1,-3.946311474E0,-1.001509666E0,3.419857025E0,5.317124969E0
1.123387899E1,-4.675452232E0,-3.483718872E0,1.785298586E0,6.097822710E0
1.124209123E1,-5.558726311E0,-5.493357658E0,8.526003361E-1,7.861510281E0
1.125030488E1,-6.315666199E0,-6.917434692E0,5.608709455E-1,9.383662317E0
1.125851711E1,-6.904450417E0,-8.285306931E0,5.346391201E-1,1.079831401E1
1.126673069E1,-7.175731659E0,-9.399974823E0,8.549047709E-1,1.185670754E1
1.127494357E1,-7.428267956E0,-1.033537102E1,1.407539845E0,1.280547646E1
1.128315596E1,-7.831755638E0,-1.088897991E1,2.009859085E0,1.356266248E1
1.129136973E1,-8.138517380E0,-1.126862717E1,2.181026936E0,1.407033411E1
1.129958234E1,-8.433489799E0,-1.149770546E1,1.797485471E0,1.437191480E1
1.130779507E1,-8.741376877E0,-1.150993252E1,1.017208338E0,1.448878632E1
1.131600765E1,-8.883113861E0,-1.135506439E1,1.770405769E-1,1.441799371E1
1.132421980E1,-8.995850563E0,-1.094605160E1,-7.196339369E-1,1.418658683E1
1.133243334E1,-9.347895622E0,-1.043162441E1,-1.093276381E0,1.404981116E1
1.134064530E1,-9.537299156E0,-1.003322029E1,-1.226769924E0,1.389714176E1
1.134885849E1,-9.459095955E0,-9.547927856E0,-1.218008518E0,1.349522017E1
1.135707222E1,-9.286355972E0,-8.902173996E0,-1.125024319E0,1.291320211E1
1.136528553E1,-9.037824631E0,-8.233082771E0,-8.471751213E-1,1.225494315E1
1.137351153E1,-8.639385223E0,-7.689848900E0,-3.327142000E-1,1.157080170E1
1.138172296E1,-8.162361145E0,-7.218508244E0,2.337284088E-1,1.089888204E1
1.138993584E1,-7.483306885E0,-6.705942631E0,9.171841145E-1,1.009013257E1
1.139814896E1,-6.639719963E0,-6.368885040E0,1.473704815E0,9.317745635E0
1.140636326E1,-5.814377785E0,-6.164530754E0,1.823980808E0,8.668064053E0
1.141457757E1,-4.881129742E0,-5.995482922E0,1.815435410E0,7.941476484E0
1.142278988E1,-4.148978233E0,-5.797174931E0,1.750450134E0,7.340662997E0
1.143100399E1,-3.830594063E0,-5.495550156E0,1.669979095E0,6.903865045E0
1.143921603E1,-3.846042156E0,-5.058580399E0,1.521996498E0,6.534351479E0
1.144742826E1,-3.865326405E0,-4.544085503E0,1.195725799E0,6.084342319E0
1.145564196E1,-3.784521341E0,-3.882358074E0,7.464642525E-1,5.472889080E0
1.146385472E1,-3.501454353E0,-3.293425083E0,4.486749768E-1,4.827850516E0
1.147206865E1,-2.869003296E0,-2.733177185E0,5.334972143E-1,3.998256709E0
1.148028046E1,-1.797315598E0,-2.226663113E0,7.418301702E-1,2.956126516E0
1.148849292E1,-5.421066284E-1,-1.587457657E0,8.013613820E-1,1.859053919E0
1.149670603E1,6.966843605E-1,-7.288894653E-1,3.839482069E-1,1.078918522E0
1.150491842E1,1.972191334E0,8.686828613E-2,-5.145680904E-1,2.040064969E0
1.151313019E1,3.090847015E0,8.703088760E-1,-1.514459491E0,3.550262013E0
1.152134188E1,4.206711292E0,2.079602718E0,-2.588351488E0,5.359172584E0
1.152955403E1,5.150130272E0,3.381493092E0,-3.521939278E0,7.096646646E0
1.153776618E1,6.011810303E0,4.574569702E0,-3.717242956E0,8.419408903E0
1.154597949E1,6.914186478E0,5.615225315E0,-3.287076473E0,9.494293114E0
1.155419215E1,7.570156097E0,6.668301105E0,-2.146713257E0,1.031415924E1
1.156240392E1,7.571058750E0,7.609607220E0,-4.205404520E-1,1.074262104E1
1.157061592E1,7.446787834E0,7.951430321E0,1.172086835E0,1.095690106E1
1.157882892E1,7.545101643E0,7.619893551E0,1.947325945E0,1.089878043E1
1.158704207E1,8.042451859E0,6.991624355E0,1.274978518E0,1.073263310E1
1.159525592E1,8.783447266E0,6.568153858E0,-8.185225725E-1,1.099816213E1
1.160346865E1,8.984629631E0,6.259299278E0,-2.787591934E0,1.129925068E1
1.161168249E1,8.464256287E0,6.240786076E0,-4.255248070E0,1.134452209E1
1.161990784E1,7.555712700E0,6.496892452E0,-5.158659935E0,1.122097047E1
1.162812172E1,6.219493866E0,6.814702034E0,-4.817267895E0,1.040809001E1
1.163633395E1,4.554773331E0,7.480828762E0,-3.230142117E0,9.335018862E0
1.164454626E1,3.011463165E0,8.132291794E0,-7.652063370E-1,8.705666026E0
1.165275876E1,1.951157570E0,8.607196808E0,1.380926490E0,8.932962035E0
1.166097072E1,1.196730614E0,8.357910156E0,3.280719042E0,9.058142402E0
1.166918361E1,1.017220497E0,7.506000519E0,4.283923149E0,8.702113472E0
1.167739588E1,1.040622234E0,6.205728054E0,4.548675060E0,7.764302938E0
1.168560872E1,1.140806675E0,4.477916241E0,3.822560072E0,5.997094232E0
1.169382226E1,1.090101719E0,2.686480999E0,2.771741390E0,4.010991430E0
1.170203480E1,8.726878166E-1,1.112565517E0,1.851680875E0,2.329830062E0
1.171024834E1,6.619257927E-1,-9.484577179E-2,1.166551709E0,1.344613091E0
1.171846076E1,3.920145035E-1,-1.217888832E0,6.565387845E-1,1.438044420E0
1.172667361E1,5.071067810E-2,-2.142018795E0,3.071054220E-1,2.164516073E0
1.173488707E1,-3.022971153E-1,-2.816773415E0,3.319777250E-1,2.852333295E0
1.174309903E1,-5.110492706E-1,-3.316394329E0,6.226481795E-1,3.412818990E0
1.175131195E1,-6.316251755E-1,-3.619927168E0,9.572463632E-1,3.797254753E0
1.175952365E1,-9.389424324E-1,-3.756962299E0,1.271339774E0,4.075865973E0
1.176773488E1,-1.150506973E0,-3.909540892E0,1.497539282E0,4.341750820E0
1.177594665E1,-1.542507172E0,-4.140926838E0,1.604131818E0,4.701046941E0
1.178415765E1,-2.008799553E0,-4.420876503E0,1.557356000E0,5.099488446E0
1.179236942E1,-2.499705791E0,-4.641972065E0,1.155516863E0,5.397374632E0
1.180058088E1,-2.888531923E0,-4.799268723E0,5.997092724E-1,5.633493424E0
1.180879230E1,-3.166554928E0,-4.911323547E0,6.628155708E-2,5.844019365E0
1.181700326E1,-3.420830011E0,-5.015988350E0,-2.236644030E-1,6.075544655E0
1.182521472E1,-3.576214790E0,-5.004261971E0,-6.320981979E-1,6.183162478E0
1.183342765E1,-3.439099073E0,-4.723064423E0,-1.177742600E0,5.960018256E0
1.184163888E1,-3.039775610E0,-4.307456017E0,-1.894982219E0,5.602264783E0
1.184985084E1,-2.490828991E0,-3.777347326E0,-2.608522892E0,5.222736214E0
1.185806334E1,-1.961559772E0,-3.146412849E0,-3.486898422E0,5.089802665E0
1.186628861E1,-1.618055820E0,-2.197215080E0,-4.125892639E0,4.946599723E0
1.187450114E1,-1.718057156E0,-7.440538406E-1,-4.205411911E0,4.603349416E0
1.188271314E1,-1.809894562E0,1.018428326E0,-3.979183197E0,4.488520190E0
1.189092611E1,-1.546371937E0,2.799773216E0,-3.545265436E0,4.774819708E0
1.189913799E1,-1.247785568E0,4.240631104E0,-2.576687574E0,5.116565238E0
1.190734980E1,-6.800951958E-1,5.304057121E0,-1.212425828E0,5.483204155E0
1.191556195E1,1.077079773E-2,5.816550255E0,9.658640623E-2,5.817362101E0
1.192377384E1,8.837232590E-1,5.975647926E0,1.370325685E0,6.194120391E0
1.193198811E1,1.940294743E0,5.731851101E0,1.993957043E0,6.371399016E0
1.194020268E1,2.928249836E0,5.252389908E0,1.787595034E0,6.273574966E0
1.194841645E1,3.472833157E0,4.505117416E0,1.220406532E0,5.817735399E0
1.195663064E1,3.353817463E0,3.503776073E0,8.057485223E-1,4.916682726E0
1.196484530E1,2.856034756E0,2.534144878E0,5.731161237E-1,3.860995582E0
1.197305949E1,2.152879238E0,1.748034000E0,3.667514920E-1,2.797323460E0
1.198127295E1,1.390508652E0,1.120934010E0,1.683419943E-1,1.793975025E0
1.198948684E1,5.146560669E-1,4.542207718E-1,-9.879469872E-2,6.935039792E-1
1.199770099E1,-2.745714188E-1,-1.759448051E-1,-3.718795776E-1,4.946114219E-1
1.200591541E1,-8.877673149E-1,-7.438135147E-1,-5.459904671E-1,1.280427640E0
1.201412988E1,-1.375731945E0,-1.257854462E0,-7.407292128E-1,2.005870384E0
1.202234499E1,-1.608903408E0,-1.780768871E0,-9.377645254E-1,2.576647095E0
1.203056061E1,-1.634752750E0,-2.230661392E0,-9.900372028E-1,2.937420716E0
1.203877603E1,-1.534515858E0,-2.653448105E0,-8.206696510E-1,3.173172614E0
1.204699065E1,-1.416593552E0,-2.947485924E0,-4.855074883E-1,3.306074422E0
1.205520595E1,-1.280645370E0,-3.169592857E0,-3.659462929E-2,3.418729386E0
1.206342061E1,-1.076448441E0,-3.368575096E0,3.130286932E-1,3.550214977E0
1.207163511E1,-9.261837006E-1,-3.557684183E0,5.426262617E-1,3.716096911E0
1.207984984E1,-8.454761505E-1,-3.706326008E0,7.954948545E-1,3.883876216E0
1.208806465E1,-8.493771553E-1,-3.789242744E0,8.939766288E-1,3.984845837E0
1.209627976E1,-8.921627998E-1,-3.897361755E0,7.842448354E-1,4.074361677E0
1.210449372E1,-1.013501167E0,-3.976756811E0,6.256394982E-1,4.151289454E0
1.211272026E1,-1.192563057E0,-4.000465393E0,5.472741127E-1,4.210159018E0
1.212093368E1,-1.361661911E0,-3.990763903E0,4.298219681E-1,4.238521748E0
1.212914622E1,-1.476466656E0,-3.941683769E0,3.769108057E-1,4.225977577E0
1.213735822E1,-1.560356617E0,-3.808463097E0,2.714495659E-1,4.124656204E0
1.214557111E1,-1.484576225E0,-3.655371904E0,5.318272114E-2,3.945698763E0
1.215378580E1,-1.325330257E0,-3.372754574E0,-1.396707296E-1,3.626497156E0
1.216199795E1,-1.336575031E0,-2.977424145E0,-2.411663532E-1,3.272559940E0
1.217021199E1,-1.457618237E0,-2.549207687E0,-1.280193329E-1,2.939302588E0
1.217842422E1,-1.387028217E0,-2.022601128E0,1.911854744E-2,2.452575812E0
1.218663588E1,-1.266193867E0,-1.411762714E0,1.770864725E-1,1.904647077E0
1.219484861E1,-1.223926544E0,-9.063525200E-1,4.077396393E-1,1.576617484E0
1.220306034E1,-1.054272175E0,-4.057044983E-1,6.379495859E-1,1.297330194E0
1.221127314E1,-8.713159561E-1,1.324944496E-1,8.052513599E-1,1.193807366E0
1.221948349E1,-6.466813087E-1,7.395081520E-1,9.302797318E-1,1.352955802E0
1.222769591E1,-4.273896217E-1,1.511867046E0,9.619494677E-1,1.842213514E0
1.223590795E1,-9.015321732E-2,2.304347515E0,6.255266666E-1,2.389441082E0
1.224411988E1,3.553004265E-1,2.979928017E0,7.176446915E-2,3.001892656E0
1.225233214E1,9.369220734E-1,3.826719284E0,-2.900019884E-1,3.950405625E0
1.226054426E1,1.920574665E0,4.878436089E0,-7.067036629E-1,5.290290709E0
1.226875718E1,3.181177616E0,6.023515701E0,-1.204887033E0,6.917686404E0
1.227697049E1,4.341640472E0,7.266252518E0,-1.279263020E0,8.560653101E0
1.228518264E1,5.208254337E0,8.412996292E0,-6.946235895E-1,9.919018187E0
1.229339518E1,5.941572666E0,9.222840309E0,2.609022856E-1,1.097411222E1
1.230160568E1,6.579041481E0,9.491930962E0,9.290722013E-1,1.158635902E1
1.230981768E1,7.170405865E0,9.439224243E0,8.664786816E-1,1.188547264E1
1.231802914E1,7.477367401E0,9.252612114E0,3.358382583E-1,1.190103531E1
1.232623953E1,7.528517246E0,9.032142639E0,-5.954545736E-1,1.177339113E1
1.233444945E1,7.269274712E0,8.563558578E0,-1.410351157E0,1.132104150E1
1.234266034E1,6.981347084E0,7.760744095E0,-2.199532032E0,1.066800343E1
1.235087264E1,6.930879116E0,6.993414879E0,-3.345002174E0,1.039874880E1
1.235909784E1,7.211905479E0,6.353150845E0,-5.188521862E0,1.092221889E1
1.236730980E1,7.606988907E0,6.010052204E0,-7.483022213E0,1.224673953E1
1.237552187E1,7.638077736E0,6.019637108E0,-9.447961807E0,1.355877003E1
1.238373457E1,7.328892231E0,6.126360893E0,-1.015237141E1,1.393971321E1
1.239194787E1,6.278342247E0,6.058586597E0,-9.086122513E0,1.259689149E1
1.240016022E1,4.613470078E0,6.463602543E0,-6.114455700E0,1.002241650E1
1.240837372E1,2.927278042E0,7.350426674E0,-2.820128202E0,8.399455465E0
1.241658545E1,1.383702278E0,7.873969555E0,3.259440064E-1,8.001266652E0
1.242479780E1,1.300539970E-1,7.746223927E0,3.747385502E0,8.606032609E0
1.243301068E1,-8.568010330E-1,6.888796806E0,7.163502216E0,9.975239017E0
1.244122310E1,-1.424598217E0,5.554708958E0,9.278641701E0,1.090767911E1
1.244943564E1,-1.667551994E0,3.874175549E0,9.390597343E0,1.029433263E1
1.245764680E1,-1.802709579E0,1.474865913E0,8.126338005E0,8.453541309E0
1.246585864E1,-2.255183697E0,-9.300813675E-1,6.024316311E0,6.499483970E0
1.247407034E1,-2.635113239E0,-3.335483074E0,4.196509361E0,5.973270456E0
1.248228107E1,-2.977278471E0,-5.548989773E0,2.920434713E0,6.941499370E0
1.249049153E1,-3.566669703E0,-7.366632462E0,2.259397984E0,8.490776516E0
1.249870053E1,-4.209756851E0,-8.798458099E0,2.046592712E0,9.966115562E0
1.250690934E1,-4.759403706E0,-9.948030472E0,2.225148439E0,1.125017864E1
1.251511910E1,-5.192430496E0,-1.066729927E1,2.402305126E0,1.210469653E1
1.252332895E1,-5.716711998E0,-1.133094597E1,2.402140141E0,1.291671049E1
1.253153964E1,-6.128097057E0,-1.177517319E1,2.038993835E0,1.343003250E1
1.253975037E1,-6.369234562E0,-1.185980415E1,1.226852655E0,1.351766514E1
1.254796241E1,-6.586601734E0,-1.158855915E1,3.691419363E-1,1.333470252E1
1.255617472E1,-7.017857552E0,-1.088744450E1,-1.657636166E-1,1.295431395E1
1.256438657E1,-7.507390976E0,-1.020334530E1,-4.278746843E-1,1.267486691E1
1.257259926E1,-7.719622612E0,-9.561187744E0,-6.342991590E-1,1.230492665E1
1.258080972E1,-7.854573250E0,-9.103836060E0,-7.206736803E-1,1.204547726E1
1.258902176E1,-8.095520973E0,-8.422864914E0,-5.849483013E-1,1.169719102E1
1.259723387E1,-8.358588219E0,-7.646782875E0,-2.801283598E-1,1.133215590E1
1.260545907E1,-8.444060326E0,-6.938245773E0,9.804332256E-2,1.092936511E1
1.261367072E1,-8.369742393E0,-6.385941505E0,5.927777290E-1,1.054439292E1
1.262188241E1,-8.119628906E0,-6.052114010E0,1.107292771E0,1.018737232E1
1.263009487E1,-7.752250671E0,-5.917528152E0,1.561083198E0,9.876816828E0
1.263830695E1,-7.306247711E0,-5.849241734E0,1.931474686E0,9.556436519E0
1.264651841E1,-6.818448544E0,-5.776290417E0,2.041509867E0,9.166489735E0
1.265473149E1,-6.174880028E0,-5.872189999E0,1.823602200E0,8.714200119E0
1.266294326E1,-5.805345535E0,-6.023929596E0,1.466597557E0,8.493566563E0
1.267115572E1,-5.680642605E0,-5.897546291E0,1.156914711E0,8.269776557E0
1.267936718E1,-5.795398712E0,-5.402777672E0,6.667050719E-1,7.951172772E0
1.268757891E1,-5.904445171E0,-4.950959206E0,2.015855312E-1,7.708119522E0
1.269579160E1,-5.708826065E0,-4.444144249E0,-1.265478134E-1,7.235822517E0
1.270400318E1,-5.257213116E0,-3.614070892E0,-1.387529373E-1,6.381148058E0
1.271221603E1,-4.870519638E0,-2.958734274E0,1.735606194E-1,5.701420291E0
1.272042753E1,-4.043821335E0,-2.359607220E0,3.535065651E-1,4.695232061E0
1.272863907E1,-2.713461876E0,-1.908123016E0,-4.729628563E-3,3.317202310E0
1.273685072E1,-7.802047729E-1,-1.292596340E0,-1.140838027E0,1.892362595E0
1.274506337E1,1.247142792E0,-5.100431442E-1,-2.598758698E0,2.927294983E0
1.275327591E1,2.808309555E0,7.130079269E-1,-3.973565578E0,4.917744022E0
1.276148695E1,3.986742973E0,2.352347374E0,-5.089546204E0,6.879762951E0
1.276969853E1,4.873990536E0,4.145134449E0,-5.867203236E0,8.681128795E0
1.277790856E1,5.432386875E0,5.546072960E0,-5.920781136E0,9.763472830E0
1.278611926E1,5.880333424E0,7.106241703E0,-5.179585457E0,1.057852059E1
1.279433068E1,6.130598545E0,8.611785889E0,-3.660069704E0,1.118674237E1
1.280254183E1,6.345841408E0,9.963441849E0,-1.756450057E0,1.194257064E1
1.281075476E1,6.683013439E0,1.084527969E1,3.819096088E-2,1.273908234E1
1.281896614E1,7.293969631E0,1.118786240E1,1.433303237E0,1.343222305E1
1.282717749E1,8.464763641E0,1.143669128E1,1.999532819E0,1.436830757E1
1.283538880E1,9.303548813E0,1.140301895E1,2.261259079E0,1.488953170E1
1.284359953E1,8.877960205E0,1.068189621E1,2.340932131E0,1.408549067E1
1.285182430E1,7.584766388E0,9.767913818E0,2.151340723E0,1.255265265E1
1.286003457E1,6.179728508E0,9.017358780E0,1.502650499E0,1.103448061E1
1.286824641E1,4.490553856E0,7.967303276E0,1.128940940E0,9.215069347E0
1.287645841E1,2.807691097E0,6.766840458E0,1.169786811E0,7.419006690E0
1.288466995E1,1.642641544E0,5.550419331E0,1.099813938E0,5.891945068E0
1.289288264E1,1.180017948E0,4.232535839E0,7.800271511E-1,4.462649924E0
1.290109322E1,1.119474411E0,2.793590546E0,2.545711994E-1,3.020294289E0
1.290930495E1,1.269419193E0,1.674712181E0,-3.528521061E-1,2.130866159E0
1.291751641E1,1.511718750E0,6.023116112E-1,-1.092320561E0,1.959907412E0
1.292572741E1,1.662545204E0,-2.118792534E-1,-1.777600884E0,2.443115691E0
1.293393953E1,1.626060009E0,-7.880382538E-1,-2.257198095E0,2.891369690E0
1.294215103E1,1.402340412E0,-1.179942608E0,-2.368738413E0,2.994953231E0
1.295036160E1,9.889864922E-1,-1.408552170E0,-2.018028259E0,2.652272903E0
1.295857276E1,5.827717781E-1,-1.560680389E0,-1.290331841E0,2.107202525E0
1.296678456E1,2.016005516E-1,-1.641233444E0,-4.390395880E-1,1.710861117E0
1.297499653E1,-2.152252197E-2,-1.729150772E0,2.382667065E-1,1.745622134E0
1.298320799E1,-2.505025864E-1,-1.859951019E0,8.195835948E-1,2.047898095E0
1.299141953E1,-3.204030991E-1,-2.060474396E0,1.293573141E0,2.453883525E0
1.299963080E1,-3.024024963E-1,-2.428816795E0,1.708370447E0,2.984816222E0
1.300784226E1,-3.910765648E-1,-2.865866661E0,2.080599785E0,3.563008288E0
1.301605372E1,-5.346889496E-1,-3.257105350E0,2.211380005E0,3.973012593E0
1.302426399E1,-6.437611580E-1,-3.664386511E0,2.005786419E0,4.226740599E0
1.303247537E1,-8.333821297E-1,-4.013588905E0,1.626129150E0,4.409956654E0
1.304068630E1,-1.096227169E0,-4.275682449E0,1.292974114E0,4.599451758E0
1.304889806E1,-1.507596016E0,-4.515216827E0,9.000011683E-1,4.844587789E0
1.305711006E1,-1.911394596E0,-4.549510002E0,5.418362617E-1,4.964378823E0
1.306532130E1,-2.258722305E0,-4.426272869E0,2.354161739E-1,4.974850625E0
1.307353222E1,-2.363306522E0,-4.208499908E0,-1.153661013E-1,4.828042930E0
1.308174372E1,-2.242193699E0,-3.857872009E0,-5.326286554E-1,4.493807106E0
1.308995518E1,-1.846529007E0,-3.378715515E0,-9.903758764E-1,3.975705256E0
1.309817926E1,-1.190009117E0,-2.833666801E0,-1.508472681E0,3.423635359E0
1.310639080E1,-5.597696304E-1,-2.318852425E0,-2.019907475E0,3.125771075E0
1.311460149E1,1.805844307E-1,-1.412430763E0,-2.583935976E0,2.950304480E0
1.312281280E1,6.730551720E-1,-9.820604324E-2,-3.103429794E0,3.177093669E0
1.313102564E1,8.924379349E-1,1.567684650E0,-3.396777153E0,3.846059757E0
1.313923583E1,8.155255318E-1,3.287650585E0,-3.271362305E0,4.709091164E0
1.314744641E1,5.820031166E-1,4.802553654E0,-2.589180946E0,5.486994368E0
1.315565695E1,2.513036728E-1,5.949721813E0,-1.345924735E0,6.105231902E0
1.316386841E1,-1.293716431E-1,6.704086781E0,2.835255861E-1,6.711326496E0
1.317207983E1,-4.060215950E-1,7.091000080E0,1.639003754E0,7.289270812E0
1.318029006E1,-5.756149292E-1,7.005090237E0,2.861558437E0,7.588882557E0
1.318850303E1,-6.014633179E-1,6.340463161E0,3.449002981E0,7.242848389E0
1.319671560E1,-4.306983948E-1,5.233584881E0,2.993420124E0,6.044540996E0
1.320492779E1,-2.226605415E-1,3.644472599E0,1.860048652E0,4.097748068E0
1.321314079E1,-1.690816879E-1,1.969876766E0,8.468143940E-1,2.150836514E0
1.322135299E1,-1.825261116E-1,6.506118774E-1,-2.398562431E-2,6.761559781E-1
1.322956606E1,-2.950606346E-1,-3.693251610E-1,-8.868527412E-1,1.004972456E0
1.323777891E1,-4.140696526E-1,-1.132906914E0,-1.463227987E0,1.896303745E0
1.324599152E1,-6.647996902E-1,-1.890931129E0,-1.922888041E0,2.777602848E0
1.325420356E1,-7.005534172E-1,-2.411353588E0,-2.082101345E0,3.261985167E0
1.326241568E1,-6.121497154E-1,-2.819335938E0,-1.918066859E0,3.464442651E0
1.327062729E1,-4.632220268E-1,-3.116191387E0,-1.454155564E0,3.469840315E0
1.327883868E1,-2.808008194E-1,-3.411475182E0,-6.759172678E-1,3.489108220E0
1.328705164E1,-1.764054298E-1,-3.605604649E0,2.106651068E-1,3.616059118E0
1.329526306E1,1.722335815E-2,-3.564983845E0,8.199492693E-1,3.658103780E0
1.330347456E1,1.083912849E-1,-3.443219185E0,1.095871568E0,3.615029947E0
1.331168772E1,1.854701042E-1,-3.365994930E0,1.409658670E0,3.653964778E0
1.331989956E1,1.851348877E-1,-3.360098839E0,1.671122432E0,3.757284833E0
1.332811302E1,4.768371582E-5,-3.305777550E0,1.892012119E0,3.808920460E0
1.333632614E1,-2.332897186E-1,-3.279380798E0,1.897081017E0,3.795744841E0
1.334455106E1,-4.226279259E-1,-3.174870491E0,1.623367548E0,3.590785317E0
1.335276406E1,-6.178379059E-1,-2.997507095E0,1.153855920E0,3.270803563E0
1.336097802E1,-8.918805122E-1,-2.804627419E0,7.190151811E-1,3.029582254E0
1.336919245E1,-1.071537971E0,-2.600447178E0,3.632098436E-1,2.835919699E0
1.337740645E1,-1.171982288E0,-2.313024998E0,-6.234419346E-2,2.593745154E0
1.338562029E1,-1.327837467E0,-1.932631969E0,-1.904211044E-1,2.352547314E0
1.339383318E1,-1.612661839E0,-1.431632519E0,-1.024161577E-1,2.158874462E0
1.340204541E1,-1.936304569E0,-9.486250877E-1,1.218804121E-1,2.159634177E0
1.341025814E1,-2.196439028E0,-3.605556488E-1,4.567433000E-1,2.272214607E0
1.341846995E1,-2.277892590E0,8.796310425E-2,8.735673428E-1,2.441239861E0
1.342668287E1,-1.996961832E0,5.534982681E-1,1.185970187E0,2.387622704E0
1.343489676E1,-1.246924400E0,9.061341286E-1,1.240415096E0,1.978516902E0
1.344310910E1,-5.392575264E-1,1.365627766E0,1.105583429E0,1.837947930E0
1.345132333E1,4.919147491E-2,1.893939972E0,8.380947709E-1,2.071673542E0
1.345953683E1,4.861216545E-1,2.415246010E0,6.877555251E-1,2.557877091E0
1.346774995E1,9.519104958E-1,3.051020145E0,5.611202717E-1,3.244951999E0
1.347596256E1,1.569824696E0,3.744176865E0,3.391717672E-1,4.074094679E0
1.348417483E1,2.228587151E0,4.555186749E0,-2.411298752E-1,5.076856372E0
1.349238868E1,3.014981747E0,5.577947140E0,-8.842740059E-1,6.401995763E0
1.350060114E1,3.723973274E0,6.406002522E0,-1.376956105E0,7.536634087E0
1.350881387E1,4.558788776E0,7.231128216E0,-1.890997291E0,8.754863856E0
1.351702756E1,5.696942329E0,7.840610504E0,-2.444878101E0,9.995386631E0
1.352523998E1,6.734098434E0,8.348357201E0,-2.869626522E0,1.110305841E1
1.353345318E1,7.492248535E0,8.656458855E0,-2.861272812E0,1.180063346E1
1.354166702E1,8.186663628E0,8.745214462E0,-2.517658472E0,1.224086768E1
