"Time (s)","Linear Acceleration x (m/s^2)","Linear Acceleration y (m/s^2)","Linear Acceleration z (m/s^2)","Absolute acceleration (m/s^2)"
1.953673000E-2,-6.266236305E-3,-4.596424103E-2,-6.656289101E-3,4.686452129E-2
2.775115300E-2,1.237702370E-1,1.296796799E-1,6.976187229E-2,1.923606242E-1
3.596588300E-2,2.997113466E-1,2.680530548E-1,9.780967236E-2,4.138188776E-1
4.418088300E-2,4.532783031E-1,3.073520660E-1,1.280629635E-2,5.478051787E-1
5.240726800E-2,4.941904545E-1,3.206949234E-1,-2.351737022E-2,5.895952051E-1
6.062269100E-2,5.798969269E-1,3.081188202E-1,-1.236230135E-1,6.682067813E-1
6.883738300E-2,6.128182411E-1,2.814035416E-1,-1.945852041E-1,7.018529415E-1
7.705269100E-2,4.374743700E-1,2.834339142E-1,-2.445222139E-1,5.757688088E-1
8.526772900E-2,2.162392139E-1,3.006954193E-1,-2.908149362E-1,4.709038755E-1
9.348234500E-2,5.563414097E-2,4.281015396E-1,-2.834607363E-1,5.164456166E-1
1.016961140E-1,-5.373752117E-2,5.087432861E-1,-3.272227645E-1,6.072743943E-1
1.099103060E-1,-4.451227188E-2,5.975885391E-1,-2.638767362E-1,6.547704455E-1
1.181242290E-1,-4.248142242E-3,6.401491165E-1,-8.587467670E-2,6.458973589E-1
1.263368830E-1,7.946419716E-2,6.220331192E-1,3.637325764E-2,6.281423198E-1
1.345509210E-1,1.703072786E-1,6.076965332E-1,-4.364907742E-2,6.326174892E-1
1.427649600E-1,3.321620226E-1,5.160837173E-1,8.654212952E-2,6.198092874E-1
1.509792290E-1,4.998695850E-1,4.400424957E-1,3.010272980E-3,6.659700157E-1
1.591926910E-1,6.055994034E-1,3.806715012E-1,-8.503741026E-2,7.203421342E-1
1.674066140E-1,6.226481199E-1,2.686262131E-1,-4.622131586E-2,6.796963540E-1
1.756216520E-1,4.393577576E-1,1.535272598E-1,-1.603745222E-1,4.922660318E-1
1.838364210E-1,3.043789864E-1,7.251262665E-2,-2.404984236E-1,3.946443210E-1
1.920498830E-1,1.928274632E-1,-1.686573029E-2,-1.429281235E-1,2.406144881E-1
2.002646900E-1,1.008939743E-1,-8.086967468E-2,-6.219118834E-2,1.434825503E-1
2.084773060E-1,2.255558968E-2,-8.477878571E-2,-2.689117193E-2,9.175691941E-2
2.166904600E-1,6.474351883E-2,-1.253814697E-1,1.508713365E-1,2.065778215E-1
2.249029210E-1,5.235981941E-2,-6.841945648E-2,1.388779283E-1,1.634314892E-1
2.331164590E-1,2.514147758E-2,7.225322723E-2,2.686383724E-1,2.793191685E-1
2.413289590E-1,9.512281418E-2,1.111688614E-1,3.786375523E-1,4.059227285E-1
2.495432670E-1,9.877562523E-2,1.553897858E-1,2.674502134E-1,3.247032897E-1
2.577998440E-1,9.417581558E-2,2.597551346E-1,1.949831247E-1,3.381718988E-1
2.660152290E-1,1.840908527E-1,3.086967468E-1,3.097671270E-1,4.744879309E-1
2.742311900E-1,1.020019054E-1,3.322734833E-1,2.476818562E-1,4.267977955E-1
2.824455360E-1,-1.075935364E-1,2.802839279E-1,2.468703985E-1,3.886906778E-1
2.906598440E-1,-1.225924492E-1,2.076721191E-1,2.798049450E-1,3.693879057E-1
2.989106130E-1,-2.553659678E-1,2.149505615E-1,1.564819813E-1,3.686490633E-1
3.071242280E-1,-3.056502342E-1,2.578439713E-1,2.229248285E-1,4.578220816E-1
3.153391130E-1,-3.462078571E-1,1.980962753E-1,3.622250557E-1,5.388033088E-1
3.235551900E-1,-5.111236572E-1,1.550798416E-1,3.938776255E-1,6.636540771E-1
3.317694980E-1,-5.664719343E-1,2.147378922E-1,3.434895277E-1,6.964107052E-1
3.399855740E-1,-5.782674551E-1,2.428588867E-1,3.805834055E-1,7.336330261E-1
3.481989590E-1,-5.989195108E-1,2.542371750E-1,3.353005648E-1,7.319614678E-1
3.564134970E-1,-4.934126139E-1,2.636213303E-1,2.836371660E-1,6.272178690E-1
3.646284970E-1,-3.900982141E-1,2.344741821E-1,4.455711842E-1,6.369367621E-1
3.728431130E-1,-3.960585594E-1,2.795267105E-1,4.104483128E-1,6.351892488E-1
3.810589200E-1,-3.761527538E-1,2.836532593E-1,3.961589336E-1,6.155420103E-1
3.892724200E-1,-3.457306623E-1,3.230762482E-1,3.510181904E-1,5.891703684E-1
3.974859590E-1,-4.926044941E-1,4.316186905E-1,3.343411684E-1,7.353488277E-1
4.057003430E-1,-6.558742523E-1,4.583425522E-1,2.553862333E-1,8.399232454E-1
4.139146900E-1,-7.682366371E-1,4.008226395E-1,2.961745262E-1,9.157323129E-1
4.221276130E-1,-8.435925245E-1,4.077825546E-1,2.131663561E-1,9.609239588E-1
4.303414200E-1,-8.468788266E-1,3.909330368E-1,2.424113750E-1,9.637404531E-1
4.385560740E-1,-8.500904441E-1,3.378906250E-1,3.386729956E-1,9.754605248E-1
4.467687280E-1,-8.029327989E-1,3.398895264E-1,2.613269091E-1,9.102294892E-1
4.549812280E-1,-7.039790154E-1,2.842760086E-1,2.226938009E-1,7.911964561E-1
4.631937280E-1,-5.791938901E-1,2.307624817E-1,2.282693386E-1,6.639456124E-1
4.714064200E-1,-5.073422194E-1,2.682867050E-1,1.032816172E-1,5.831303251E-1
4.796206890E-1,-4.497405291E-1,2.627725601E-1,-2.100288868E-2,5.213032545E-1
4.878336510E-1,-4.716553092E-1,9.669017792E-2,-6.585824490E-2,4.859475585E-1
4.960462660E-1,-2.810269594E-1,2.024393082E-1,-2.521159649E-1,4.283926764E-1
5.042588820E-1,-1.644136906E-1,1.262502670E-1,-3.803205490E-1,4.331451392E-1
5.124714580E-1,-1.213928461E-1,1.026573181E-1,-5.002432466E-1,5.248981366E-1
5.206847660E-1,-1.935878992E-1,6.489086151E-2,-6.270170808E-1,6.594221093E-1
5.288982660E-1,-1.021242142E-1,8.473014832E-2,-8.879422545E-1,8.978028740E-1
5.371126120E-1,1.955263615E-1,2.172966003E-1,-8.468718529E-1,8.959019510E-1
5.453616510E-1,4.053068161E-1,3.819961548E-1,-9.441500306E-1,1.096181535E0
5.535756510E-1,5.026545525E-1,4.201354980E-1,-9.679251909E-1,1.168783389E0
5.617898040E-1,5.825811625E-1,3.689680099E-1,-7.701684237E-1,1.033778315E0
5.700036890E-1,5.521613359E-1,2.627305984E-1,-6.648322344E-1,9.032781455E-1
5.782191500E-1,6.459968686E-1,1.396284103E-1,-6.486505270E-1,9.260429544E-1
5.864336890E-1,7.889480591E-1,1.716613770E-3,-7.666468620E-1,1.100086087E0
5.946484970E-1,8.964380622E-1,-7.641029358E-2,-8.902866244E-1,1.265721141E0
6.028618810E-1,1.076249361E0,-2.504034042E-1,-8.555515409E-1,1.397491678E0
6.110746890E-1,1.171511412E0,-4.387550354E-1,-9.091693163E-1,1.546458475E0
6.192884200E-1,1.134399295E0,-5.330877304E-1,-9.152922630E-1,1.552032286E0
6.275016500E-1,1.062281370E0,-6.751966476E-1,-9.957541227E-1,1.604948129E0
6.357153810E-1,1.141556740E0,-7.810268402E-1,-1.045792818E0,1.734023452E0
6.439282270E-1,1.209218383E0,-8.528375626E-1,-9.395128489E-1,1.752776483E0
6.521406890E-1,1.343308449E0,-1.038050652E0,-8.796766400E-1,1.912029742E0
6.603537270E-1,1.509110093E0,-1.238057137E0,-8.836918473E-1,2.142687571E0
6.685665350E-1,1.776696205E0,-1.394540787E0,-9.096020460E-1,2.434906424E0
6.767798810E-1,2.008875608E0,-1.569667816E0,-9.705340266E-1,2.727888297E0
6.849943810E-1,2.213224411E0,-1.775092125E0,-9.960433245E-1,3.006894852E0
6.932079580E-1,2.407939434E0,-2.056534290E0,-1.108664155E0,3.355091923E0
7.014222650E-1,2.544467688E0,-2.351648808E0,-1.083619833E0,3.630261681E0
7.096357650E-1,2.493581772E0,-2.737128735E0,-9.465193748E-1,3.821743410E0
7.178494960E-1,2.449045658E0,-3.122126102E0,-9.257388115E-1,4.074615121E0
7.260636110E-1,2.432687283E0,-3.336740971E0,-9.608979225E-1,4.239709016E0
7.342775340E-1,2.360148191E0,-3.455185413E0,-1.013739109E0,4.305377185E0
7.424929580E-1,2.493741035E0,-3.582748413E0,-1.161340475E0,4.517028032E0
7.507062650E-1,2.661034584E0,-3.599393845E0,-1.101897717E0,4.609871981E0
7.589213420E-1,2.719766617E0,-3.715703011E0,-7.596045732E-1,4.666966726E0
7.671359570E-1,2.709811687E0,-4.073073387E0,-4.640722275E-1,4.914099025E0
7.753498800E-1,2.630258799E0,-4.621581078E0,-2.900009155E-1,5.325539741E0
7.835639190E-1,2.884656906E0,-5.225080013E0,-4.369368553E-1,5.984448214E0
7.918147650E-1,2.887993813E0,-5.696861744E0,-5.624189377E-1,6.411790472E0
8.000289190E-1,2.963091135E0,-5.974468231E0,-6.676661968E-1,6.702235289E0
8.082433800E-1,3.165251255E0,-5.890278816E0,-7.214782834E-1,6.725676989E0
8.164578800E-1,3.310638905E0,-5.427321434E0,-8.183577061E-1,6.409825055E0
8.246712260E-1,3.418504238E0,-4.908655643E0,-8.560824394E-1,6.042677270E0
8.328848800E-1,3.481228590E0,-4.497001648E0,-7.655404806E-1,5.738294916E0
8.410983800E-1,3.290896177E0,-4.061133385E0,-5.299054384E-1,5.253912998E0
8.493112650E-1,3.036211252E0,-3.414840221E0,-2.686061859E-1,4.577320372E0
8.575244570E-1,2.908333063E0,-2.680752754E0,-1.564621925E-1,3.958448806E0
8.657379570E-1,2.769694328E0,-1.835286617E0,-2.227367163E-1,3.330029322E0
8.739521110E-1,2.856624603E0,-8.233261108E-1,-3.401826620E-1,2.992305842E0
8.821670340E-1,3.282732010E0,6.217164993E-1,-1.692031622E-1,3.345368524E0
8.903833800E-1,4.014830589E0,2.316530228E0,1.431477070E-1,4.637420428E0
8.986011110E-1,4.937144279E0,3.980192184E0,1.106365800E0,6.437497087E0
9.068170340E-1,5.840373516E0,5.163659096E0,2.416540861E0,8.161679227E0
9.150323030E-1,6.939559460E0,5.987841606E0,3.464051962E0,9.798540125E0
9.232471490E-1,7.988043308E0,6.926393509E0,3.953304529E0,1.128770923E1
9.314623030E-1,8.588078499E0,7.797322273E0,3.788509130E0,1.220270988E1
9.396775340E-1,9.083628654E0,9.031875610E0,3.583241940E0,1.330137998E1
9.478921880E-1,9.008302689E0,1.030935383E1,3.257783413E0,1.407286206E1
9.561066490E-1,8.367908478E0,1.130483913E1,2.969046831E0,1.437485719E1
9.643209570E-1,7.307922840E0,1.211400127E1,2.975856543E0,1.445719493E1
9.725359950E-1,5.997467041E0,1.325441933E1,3.315703392E0,1.492123090E1
9.807509950E-1,5.108429909E0,1.486515236E1,3.471787453E0,1.609727054E1
9.889651100E-1,4.748908043E0,1.673174286E1,3.347000122E0,1.771174064E1
9.971796870E-1,4.377794743E0,1.824068451E1,3.083212137E0,1.901036179E1
1.005392533E0,4.078272820E0,1.954168320E1,3.002775669E0,2.018728196E1
1.013608033E0,3.932979584E0,2.095943069E1,3.090723991E0,2.154805416E1
1.021823033E0,3.806055546E0,2.199458313E1,2.805151939E0,2.249703588E1
1.030037726E0,3.462758064E0,2.176908112E1,2.527748346E0,2.218722826E1
1.038288995E0,2.768920183E0,2.066604614E1,3.164041996E0,2.108941782E1
1.046503918E0,2.771236897E0,1.906071091E1,3.730717659E0,1.961909041E1
1.054719149E0,3.222501755E0,1.710061836E1,3.893496752E0,1.783185304E1
1.062934649E0,3.544334412E0,1.541930962E1,3.920314550E0,1.629988594E1
1.071149456E0,3.622891903E0,1.328833485E1,4.012738228E0,1.434598400E1
1.079364802E0,3.339337826E0,1.085171413E1,4.088123798E0,1.206746174E1
1.087579110E0,2.663500309E0,8.387545586E0,4.061217308E0,9.692194843E0
1.095793802E0,1.680347919E0,6.051608086E0,3.652411938E0,7.265372841E0
1.104008533E0,1.550207138E-1,3.838846207E0,3.017377138E0,4.885216107E0
1.112222687E0,-1.161372423E0,1.760116577E0,2.204515457E0,3.050685935E0
1.120437341E0,-2.503649235E0,-1.983423233E-1,1.572714806E0,2.963280450E0
1.128650995E0,-3.876926184E0,-1.844725132E0,9.674658775E-1,4.401085965E0
1.136864764E0,-4.716981411E0,-3.649061203E0,4.874097109E-1,5.983571636E0
1.145077879E0,-5.294931412E0,-5.128932476E0,2.139049768E-1,7.374822190E0
1.153292033E0,-5.295384884E0,-6.140069008E0,4.700323343E-1,8.121728811E0
1.161505956E0,-5.196671009E0,-6.853012562E0,8.332716227E-1,8.640805075E0
1.169719917E0,-5.056346893E0,-7.203186512E0,1.186876416E0,8.880383745E0
1.177935110E0,-4.756068707E0,-7.044957638E0,1.436805844E0,8.620674492E0
1.186150225E0,-5.103396416E0,-6.639763832E0,1.541420698E0,8.515109893E0
1.194365187E0,-5.824027538E0,-6.295444965E0,1.479284883E0,8.702885030E0
1.202579994E0,-6.724422455E0,-6.017802715E0,1.501978397E0,9.148100676E0
1.210793994E0,-7.952709675E0,-5.669588089E0,1.667773962E0,9.908142624E0
1.219008840E0,-9.135457039E0,-5.312541962E0,2.041018963E0,1.076315176E1
1.227223186E0,-1.016065598E1,-5.114699364E0,2.461242437E0,1.163859071E1
1.235437879E0,-1.091873360E1,-5.068855762E0,2.769714594E0,1.235246376E1
1.243650148E0,-1.128464890E1,-5.180309772E0,2.915470123E0,1.275456295E1
1.251888686E0,-1.162914467E1,-5.253592968E0,2.950436592E0,1.309741657E1
1.260100725E0,-1.193305779E1,-5.317496300E0,2.827017069E0,1.336658747E1
1.268313686E0,-1.210413742E1,-5.450994492E0,2.615327835E0,1.353009325E1
1.276527379E0,-1.221586704E1,-5.536755085E0,2.219953775E0,1.359453049E1
1.284750955E0,-1.212271023E1,-5.618541718E0,1.843589783E0,1.348802942E1
1.292963455E0,-1.234327126E1,-5.468947887E0,1.811177373E0,1.362153074E1
1.301176955E0,-1.243331528E1,-5.312682152E0,1.760068059E0,1.363487294E1
1.309390109E0,-1.226380157E1,-5.385045052E0,1.689805984E0,1.350018457E1
1.317605071E0,-1.205960083E1,-5.443158150E0,1.668101907E0,1.333583544E1
1.325818878E0,-1.182989120E1,-5.358619213E0,1.884596586E0,1.312298861E1
1.334058494E0,-1.173304749E1,-5.270300865E0,1.937569380E0,1.300748437E1
1.342270417E0,-1.174132252E1,-5.261878967E0,1.912288904E0,1.300780049E1
1.350482724E0,-1.175761032E1,-5.245355129E0,1.935368061E0,1.301924731E1
1.358695417E0,-1.183016014E1,-5.236532688E0,1.949111581E0,1.308330996E1
1.366907109E0,-1.189404678E1,-5.229691029E0,2.016541004E0,1.314855333E1
1.375119071E0,-1.193615341E1,-5.158755779E0,2.076266527E0,1.316796879E1
1.383332840E0,-1.166331387E1,-5.029553413E0,1.953924656E0,1.285095792E1
1.391547686E0,-1.145139122E1,-4.839059353E0,1.723515034E0,1.255075139E1
1.399761878E0,-1.116105366E1,-4.613958836E0,1.520883083E0,1.217254370E1
1.407974917E0,-1.070840740E1,-4.277140617E0,1.253026247E0,1.159887907E1
1.416214109E0,-1.017500019E1,-3.690013409E0,1.237265348E0,1.089392736E1
1.424427109E0,-9.687586784E0,-3.023609400E0,1.260368824E0,1.022644029E1
1.432640109E0,-8.964785576E0,-2.159672022E0,1.596670866E0,9.358467904E0
1.440854070E0,-8.011939049E0,-1.004491329E0,2.236530781E0,8.378677705E0
1.449067339E0,-6.900488853E0,2.684607506E-1,2.512219429E0,7.348473586E0
1.457280301E0,-5.652200222E0,1.468483925E0,2.330755234E0,6.287784375E0
1.465492762E0,-4.222031116E0,2.698879719E0,1.729078531E0,5.300868896E0
1.473705647E0,-2.721765041E0,3.859375477E0,1.006023169E0,4.828547051E0
1.481919878E0,-6.213455200E-1,5.293793678E0,-3.754881620E-1,5.343342879E0
1.490133416E0,9.116330147E-1,6.779578209E0,-1.903733611E0,7.100560337E0
1.498374378E0,1.790211201E0,8.115408897E0,-2.533667564E0,8.688163732E0
1.506586608E0,2.588648796E0,9.266551971E0,-3.623996258E0,1.028121768E1
1.514799955E0,2.912608624E0,1.081065559E1,-2.591325283E0,1.149210730E1
1.523013762E0,3.946824551E0,1.281917763E1,-1.334573627E0,1.347923684E1
1.531239031E0,5.727372646E0,1.455905437E1,9.589162469E-2,1.564538452E1
1.539453301E0,7.659682751E0,1.558024406E1,7.642920613E-1,1.737811518E1
1.547666801E0,9.566362381E0,1.621532822E1,6.101589203E-1,1.883678455E1
1.555880801E0,1.091903305E1,1.599178505E1,-1.126990616E-1,1.936427569E1
1.564094224E0,1.099440861E1,1.470258904E1,-3.747161925E-1,1.836255857E1
1.572307262E0,1.010161018E1,1.279315567E1,4.104754925E-1,1.630569994E1
1.580546339E0,8.542320251E0,1.074289131E1,1.577193856E0,1.381551626E1
1.588759608E0,7.026992798E0,8.964210510E0,2.650428772E0,1.169446324E1
1.596975416E0,5.808063984E0,7.514203548E0,3.048928738E0,9.974609198E0
1.605189647E0,4.813400269E0,6.610383987E0,2.727291107E0,8.619983491E0
1.613404685E0,4.322844028E0,6.060786247E0,2.005379677E0,7.709841638E0
1.621618108E0,4.194614887E0,5.826630592E0,1.598437667E0,7.355230866E0
1.629832377E0,4.756227970E0,5.480091095E0,1.730412006E0,7.459720412E0
1.638046993E0,5.693707466E0,4.533938408E0,2.398383617E0,7.663363894E0
1.646260262E0,6.534521580E0,3.061620712E0,3.314981461E0,7.941196116E0
1.654474300E0,7.077258587E0,1.445014954E0,4.178620338E0,8.344850224E0
1.662714800E0,7.361088753E0,-1.319856644E-1,4.454143524E0,8.604791826E0
1.670927492E0,7.324128151E0,-1.531939507E0,4.013191223E0,8.490900754E0
1.679142108E0,7.124960899E0,-2.487890244E0,3.317743778E0,8.243912267E0
1.687355108E0,6.689877510E0,-3.569975376E0,2.384540558E0,7.948913068E0
1.695569569E0,5.746109009E0,-4.472361565E0,1.829015493E0,7.507668372E0
1.703782723E0,4.550766945E0,-5.189090252E0,1.439257622E0,7.050361688E0
1.711994608E0,3.556279898E0,-5.759764671E0,1.151884794E0,6.866502338E0
1.720206377E0,2.729565620E0,-6.165936470E0,1.083923817E0,6.829655326E0
1.728419069E0,2.020620346E0,-6.299485683E0,1.047048330E0,6.697965114E0
1.736631608E0,1.588424921E0,-6.155866623E0,9.488005638E-1,6.427908689E0
1.744870261E0,1.404061794E0,-5.799118042E0,8.519811034E-1,6.027191003E0
1.753083338E0,1.305787563E0,-5.302279472E0,5.302441716E-1,5.486383840E0
1.761295954E0,1.385940313E0,-4.859778404E0,2.738115788E-1,5.060953415E0
1.769508300E0,1.233784437E0,-4.425560474E0,3.439745307E-1,4.607182222E0
1.777730992E0,9.887647629E-1,-3.984079838E0,4.550675154E-1,4.130088904E0
1.785942107E0,9.646706581E-1,-3.577997208E0,4.149006605E-1,3.728913522E0
1.794154030E0,1.351935148E0,-3.030630112E0,1.882914901E-1,3.323838324E0
1.802366030E0,1.856297493E0,-2.175647736E0,-4.595530033E-2,2.860313854E0
1.810577877E0,2.244754791E0,-1.359349251E0,-1.341586709E-1,2.627689671E0
1.818790569E0,2.678299904E0,-4.774703979E-1,-1.713501811E-1,2.725918055E0
1.827030453E0,2.967717886E0,2.953968048E-1,-2.094959617E-1,2.989731975E0
1.835242838E0,3.176630974E0,8.807029724E-1,-2.613123059E-1,3.306796968E0
1.843453915E0,3.057574511E0,1.369108200E0,-4.414991140E-1,3.379073929E0
1.851665376E0,2.946210623E0,1.766995430E0,-6.804195642E-1,3.502199404E0
1.859877646E0,2.926155567E0,2.108357430E0,-8.493480682E-1,3.705259720E0
1.868089876E0,2.715879679E0,2.463615417E0,-6.435281038E-1,3.722839209E0
1.876303030E0,2.475343227E0,2.622462273E0,-1.520092487E-1,3.609395971E0
1.884516338E0,2.325277090E0,2.620670319E0,6.761368513E-1,3.568191069E0
1.892730145E0,2.020430088E0,2.428508759E0,1.426439762E0,3.466197185E0
1.900942722E0,1.589774609E0,2.034207344E0,1.966816902E0,3.245574148E0
1.909182992E0,9.289720058E-1,1.749332428E0,2.346471071E0,3.070680612E0
1.917397992E0,5.197815895E-1,1.367096901E0,2.205775738E0,2.646615469E0
1.925611107E0,3.367805481E-1,1.042825699E0,1.665118933E0,1.993370923E0
1.933825415E0,5.525994301E-2,8.008375168E-1,1.243113756E0,1.479772347E0
1.942038722E0,-3.511095047E-1,4.725646973E-1,9.675354958E-1,1.132572388E0
1.950252607E0,-7.511136532E-1,2.122955322E-1,7.386612892E-1,1.074644878E0
1.958467030E0,-1.106081247E0,-3.878688812E-2,2.760150433E-1,1.140659657E0
1.966680761E0,-1.512879729E0,-3.345937729E-1,-2.860603333E-1,1.575623236E0
1.974895261E0,-1.769947886E0,-6.171379089E-1,-6.672142744E-1,1.989660676E0
1.983108414E0,-2.020359039E0,-6.877746582E-1,-6.950567961E-1,2.244546408E0
1.991347722E0,-2.367886305E0,-7.672557831E-1,-8.226819038E-1,2.621521029E0
1.999561414E0,-2.288358212E0,-7.739801407E-1,-8.749784231E-1,2.569283130E0
2.007775530E0,-2.237494469E0,-6.698951721E-1,-8.611431122E-1,2.489318882E0
2.015989914E0,-2.324983835E0,-5.823850632E-1,-8.459570408E-1,2.541724909E0
2.024213568E0,-2.394032001E0,-4.061555862E-1,-1.023069739E0,2.634961722E0
2.032426376E0,-2.352459908E0,-2.126512527E-1,-1.386400223E0,2.738867238E0
2.040639606E0,-2.119268417E0,-1.138982773E-1,-1.726387024E0,2.735814979E0
2.048852453E0,-1.934987545E0,-7.347202301E-2,-1.854115963E0,2.680917929E0
2.057064991E0,-1.702669621E0,-1.416473389E-1,-1.956865788E0,2.597782038E0
2.065277183E0,-1.263399005E0,-2.129535675E-1,-2.023628235E0,2.395119517E0
2.073517837E0,-8.647942543E-1,-3.620452881E-1,-2.054033995E0,2.257875449E0
2.081731837E0,-4.890778065E-1,-6.444559097E-1,-2.093065262E0,2.243979214E0
2.089943799E0,-2.171201706E-1,-9.940071106E-1,-2.186256647E0,2.411412331E0
2.098157183E0,2.878260612E-2,-1.389304638E0,-2.322372675E0,2.706364842E0
2.106369683E0,1.845464706E-1,-1.783942223E0,-2.482579947E0,3.062631294E0
2.114583645E0,2.986583710E-1,-2.180659771E0,-2.601790428E0,3.407900716E0
2.122797760E0,4.741895199E-1,-2.524059772E0,-2.604664564E0,3.657869725E0
2.131010837E0,6.284508705E-1,-2.926630020E0,-2.504699707E0,3.903028874E0
2.139224837E0,8.574664593E-1,-3.316560745E0,-2.254810333E0,4.101096627E0
2.147437068E0,1.111902237E0,-3.682262897E0,-2.054096699E0,4.360584809E0
2.155677298E0,1.201432467E0,-4.201715946E0,-1.806153536E0,4.728641185E0
2.163889221E0,1.185016394E0,-4.662597179E0,-1.553829193E0,5.055537704E0
2.172104106E0,1.206557512E0,-4.997400761E0,-1.457620978E0,5.343636806E0
2.180318837E0,1.181014538E0,-5.218445301E0,-1.556304216E0,5.572167398E0
2.188532721E0,1.257392645E0,-5.343922615E0,-1.730894327E0,5.756260970E0
2.196749144E0,1.253906012E0,-5.448719025E0,-1.847713470E0,5.888536691E0
2.204963490E0,1.546076059E0,-5.476660728E0,-1.851646900E0,5.984376338E0
2.213178644E0,1.973282814E0,-5.465186119E0,-1.885908604E0,6.108907893E0
2.221394183E0,2.234526157E0,-5.445035934E0,-1.982828379E0,6.210727160E0
2.229608760E0,2.430104733E0,-5.265273094E0,-2.130167484E0,6.177873686E0
2.237852260E0,2.704749584E0,-4.858225822E0,-2.245595455E0,5.996726391E0
2.246068759E0,2.989499092E0,-4.455259800E0,-2.378867149E0,5.869024929E0
2.254284683E0,3.237697363E0,-4.043744087E0,-2.462927103E0,5.735901008E0
2.262499798E0,3.489676476E0,-3.403071880E0,-2.427709103E0,5.445411978E0
2.270724375E0,3.909841537E0,-2.473645210E0,-2.343623638E0,5.186362235E0
2.278940298E0,4.512865067E0,-1.346677780E0,-2.202808857E0,5.199217154E0
2.287155721E0,5.059661388E0,-3.147630692E-1,-1.866356015E0,5.402086072E0
2.295372913E0,5.665151596E0,8.456335068E-1,-1.351314068E0,5.885158311E0
2.303589375E0,6.204468727E0,1.892061234E0,-6.399409771E-1,6.518040530E0
2.311805259E0,6.367824554E0,2.792813301E0,2.088601589E-1,6.956480307E0
2.320046759E0,6.458294868E0,3.594137192E0,1.110456467E0,7.473988783E0
2.328260913E0,6.404309273E0,4.347231865E0,1.949713469E0,7.982166671E0
2.336476875E0,6.618574619E0,5.189211845E0,2.493357897E0,8.772131051E0
2.344692144E0,6.865445137E0,5.953516960E0,2.654923439E0,9.467170622E0
2.352907798E0,7.144982338E0,6.462565422E0,2.531724453E0,9.961182317E0
2.361123182E0,7.505437374E0,7.039070129E0,2.615706205E0,1.061706256E1
2.369336567E0,7.851930141E0,7.979491234E0,3.067485332E0,1.160752142E1
2.377552374E0,7.799556732E0,8.451429367E0,4.291122437E0,1.227491244E1
2.385766413E0,8.376654625E0,9.925089836E0,4.653244019E0,1.379595705E1
2.393982413E0,8.266831398E0,1.161848450E1,4.447027206E0,1.493672435E1
2.402224490E0,9.032489777E0,1.355069351E1,3.873053074E0,1.673940579E1
2.410439143E0,9.700637817E0,1.511701393E1,3.523528576E0,1.830414537E1
2.418654759E0,1.010035515E1,1.654951668E1,3.554807425E0,1.971142644E1
2.426894951E0,1.043956947E1,1.784690285E1,3.800644636E0,2.102240357E1
2.435108451E0,9.610640526E0,1.889552498E1,4.873932362E0,2.175225258E1
2.443322451E0,8.699915886E0,2.030999756E1,6.357945442E0,2.299147684E1
2.451535451E0,8.050682068E0,2.033135223E1,7.171597481E0,2.301323914E1
2.459749105E0,6.888177395E0,1.986928749E1,7.200027466E0,2.222781970E1
2.467962489E0,5.515778065E0,1.894015121E1,7.349249840E0,2.105147522E1
2.476176759E0,3.669239044E0,1.697257042E1,6.918196678E0,1.869205465E1
2.484418182E0,1.257854462E0,1.440927315E1,5.880666733E0,1.561382694E1
2.492632335E0,-1.034793139E0,1.220290661E1,4.635239601E0,1.309454744E1
2.500847182E0,-2.339400291E0,9.815691948E0,3.366008997E0,1.063722796E1
2.509087528E0,-3.334466457E0,7.560465813E0,2.068857670E0,8.518185365E0
2.517314105E0,-4.050194263E0,5.567503929E0,1.629918218E0,7.075154201E0
2.525529489E0,-4.231906414E0,3.583311081E0,1.952847958E0,5.879010575E0
2.533743220E0,-4.026054382E0,1.653637886E0,2.594071388E0,5.066837131E0
2.541958066E0,-4.173379421E0,-2.234759331E-1,3.121902466E0,5.216638026E0
2.550172104E0,-4.491806507E0,-2.084223270E0,3.192353010E0,5.891640695E0
2.558386412E0,-4.408621311E0,-3.815267563E0,2.939187765E0,6.529244456E0
2.566558912E0,-4.361139297E0,-5.080876350E0,2.670856476E0,7.208905241E0
2.574773335E0,-4.481498718E0,-6.207940578E0,2.328320026E0,8.002713985E0
2.582988874E0,-4.770007133E0,-6.934587955E0,1.978351474E0,8.646117783E0
2.591229412E0,-5.127424717E0,-7.322802067E0,1.531075478E0,9.069625486E0
2.599444527E0,-5.603341579E0,-7.501546383E0,1.280019283E0,9.450348372E0
2.607658797E0,-6.197509766E0,-7.542073250E0,1.052704811E0,9.818359518E0
2.615872797E0,-6.971940041E0,-7.529689789E0,8.342916369E-1,1.029564077E1
2.624086335E0,-7.673823833E0,-7.404348373E0,6.574218869E-1,1.068382659E1
2.632301220E0,-8.213752747E0,-7.225154877E0,6.533249617E-1,1.095880608E1
2.640515873E0,-8.661905289E0,-7.030167580E0,6.010220051E-1,1.117197775E1
2.648757219E0,-8.839879990E0,-6.861349106E0,5.193963647E-1,1.120229273E1
2.656970835E0,-8.919955254E0,-6.639820576E0,4.008882344E-1,1.112715284E1
2.665184566E0,-9.173089027E0,-6.432325840E0,2.473629415E-1,1.120631815E1
2.673425373E0,-9.347326279E0,-6.093971729E0,2.667268515E-1,1.116154753E1
2.681640104E0,-9.460732460E0,-5.689207554E0,3.176920414E-1,1.104415997E1
2.689853950E0,-9.632497787E0,-5.339955807E0,4.661129713E-1,1.102349323E1
2.698068758E0,-9.910628319E0,-5.260418892E0,6.656655073E-1,1.123991420E1
2.706284219E0,-1.019470692E1,-5.348494053E0,7.688587904E-1,1.153817930E1
2.714500258E0,-1.059919930E1,-5.509242058E0,8.625013828E-1,1.197658893E1
2.722715412E0,-1.105678558E1,-5.737668037E0,8.819503188E-1,1.248804141E1
2.730957796E0,-1.129921532E1,-6.038403511E0,6.231487393E-1,1.282664797E1
2.739172835E0,-1.144987679E1,-6.208365917E0,3.901569843E-1,1.303056822E1
2.747387565E0,-1.149027634E1,-6.339731216E0,2.456171215E-1,1.312550837E1
2.755629796E0,-1.158813095E1,-6.369538307E0,2.071437538E-1,1.322492744E1
2.763854796E0,-1.156846619E1,-6.505607128E0,2.549154162E-1,1.327468704E1
2.772070450E0,-1.148704910E1,-6.677473068E0,3.485473394E-1,1.329144194E1
2.780284988E0,-1.133887482E1,-6.820370674E0,5.022327304E-1,1.324159265E1
2.788498950E0,-1.110054684E1,-6.819035053E0,5.271239281E-1,1.303837562E1
2.796713411E0,-1.067026997E1,-6.780155659E0,3.681621552E-1,1.264755768E1
2.804927296E0,-1.015741539E1,-6.609976292E0,1.006675363E-1,1.211919997E1
2.813168334E0,-9.708363533E0,-6.305634499E0,-1.202757955E-1,1.157703827E1
2.821384873E0,-9.184563637E0,-5.803803444E0,-1.856217384E-1,1.086622285E1
2.829599334E0,-8.711236954E0,-5.217885017E0,-1.635825038E-1,1.015572413E1
2.837840873E0,-8.721861839E0,-4.759124279E0,-2.278333902E-2,9.935826937E0
2.846054488E0,-8.775952339E0,-4.278089046E0,4.451704025E-2,9.763266211E0
2.854269065E0,-8.547896385E0,-3.380062103E0,1.557837129E-1,9.193237787E0
2.862483065E0,-8.299385071E0,-2.045762300E0,6.123225093E-1,8.569706809E0
2.870696796E0,-7.796572208E0,-4.522047043E-1,1.224715114E0,7.905122036E0
2.878911334E0,-6.734949112E0,1.293570042E0,1.512707233E0,7.022901549E0
2.887126103E0,-5.177071571E0,2.961338520E0,1.519533515E0,6.154719976E0
2.895366449E0,-3.365849972E0,4.666981220E0,1.421561956E0,5.927098627E0
2.903581488E0,-1.809105396E0,6.067122459E0,1.068020344E0,6.420553304E0
2.911797295E0,-9.988636971E-1,6.937079906E0,2.938808203E-1,7.014782409E0
2.920038603E0,-1.971368790E-1,7.488185406E0,-1.025698900E0,7.560677341E0
2.928252757E0,7.048296928E-1,7.579382896E0,-1.682911873E0,7.795897790E0
2.936466411E0,1.544179440E0,7.592386723E0,-2.561464071E0,8.160264976E0
2.944680103E0,2.157303810E0,8.084295273E0,-2.094370842E0,8.625321966E0
2.952893757E0,2.592376709E0,9.495485306E0,-8.099586964E-1,9.876269097E0
2.961106911E0,2.993417263E0,1.151852798E1,3.491375148E-1,1.190625595E1
2.969319795E0,3.393947601E0,1.392900848E1,1.120429873E0,1.438024759E1
2.977561372E0,3.713511467E0,1.652651405E1,1.416185856E0,1.699768856E1
2.985775334E0,4.252062321E0,1.806864738E1,9.725931883E-1,1.858768382E1
2.993987641E0,5.490464211E0,1.829443741E1,3.759806752E-1,1.910426651E1
3.002227795E0,6.128550053E0,1.708570671E1,1.397167683E0,1.820528981E1
3.010451064E0,5.873768806E0,1.498301315E1,3.336085796E0,1.643536770E1
3.018665103E0,5.486170769E0,1.276977730E1,5.832553864E0,1.507262308E1
3.026878141E0,4.711993694E0,1.174699211E1,6.946826935E0,1.443790541E1
3.035091372E0,4.358747959E0,1.134783840E1,6.240013123E0,1.366418252E1
3.043305141E0,4.598142624E0,1.105190754E1,4.404139996E0,1.275476479E1
3.051518872E0,5.557150364E0,1.050191879E1,2.842624187E0,1.221690349E1
3.059759179E0,7.042128563E0,9.316464424E0,2.520842314E0,1.194749890E1
3.067971987E0,8.205600739E0,8.018362999E0,3.517022133E0,1.199981139E1
3.076184564E0,8.839323044E0,6.492658615E0,4.483704567E0,1.184870687E1
3.084422602E0,9.074686050E0,4.624135971E0,5.058816910E0,1.137207936E1
3.092636256E0,8.572101593E0,2.749621391E0,5.200911999E0,1.039667395E1
3.100849102E0,7.881887913E0,1.026454926E0,4.925977707E0,9.351097430E0
3.109061872E0,7.409655571E0,-6.803169250E-1,4.023000717E0,8.458744680E0
3.117276141E0,7.023961067E0,-2.115939617E0,2.922560692E0,7.896492293E0
3.125489718E0,6.461031914E0,-3.615412235E0,2.132636786E0,7.704821781E0
3.133704564E0,5.592087746E0,-4.783663273E0,1.381553888E0,7.487561072E0
3.141946333E0,4.767002106E0,-5.740543365E0,8.474125862E-1,7.509744023E0
3.150160525E0,3.971104860E0,-6.328888416E0,5.444209576E-1,7.491388161E0
3.158374564E0,3.234349251E0,-6.575844765E0,4.435682297E-1,7.341628036E0
3.166615256E0,2.591017246E0,-6.569361687E0,5.520827770E-1,7.083408695E0
3.174829487E0,2.172155142E0,-6.413826942E0,5.167117119E-1,6.791349277E0
3.183043910E0,1.972791910E0,-6.170568466E0,3.339653015E-1,6.486860253E0
3.191257717E0,1.871617556E0,-5.914409637E0,1.870992184E-1,6.206303227E0
3.199471756E0,1.831581593E0,-5.475426674E0,-1.250433922E-2,5.773659563E0
3.207685410E0,1.887643814E0,-5.050728798E0,-1.312999725E-1,5.393542458E0
3.215898871E0,2.050460577E0,-4.604455948E0,-1.948902607E-1,5.044143670E0
3.224138948E0,2.173308849E0,-4.297970295E0,-2.308174372E-1,4.821731712E0
3.232353410E0,2.251573563E0,-3.870523453E0,-1.693602800E-1,4.480984067E0
3.240569102E0,2.792019129E0,-3.272164822E0,-3.296073675E-1,4.314055453E0
3.248808871E0,3.799648046E0,-2.491879463E0,-5.697031021E-1,4.579448674E0
3.257034025E0,4.877053261E0,-1.452344418E0,-5.970470905E-1,5.123613768E0
3.265248602E0,5.561545372E0,-1.033401489E-2,-4.347194433E-1,5.578519043E0
3.273462063E0,6.129840851E0,1.276746750E0,-1.986229420E-1,6.264541659E0
3.281676140E0,6.542553902E0,2.288191795E0,2.429091930E-2,6.931192055E0
3.289890909E0,6.588404179E0,3.067641258E0,1.914036274E-1,7.270084446E0
3.298105255E0,6.460780621E0,3.730985641E0,-1.675605774E-3,7.460693191E0
3.306346448E0,6.310556889E0,4.088990211E0,-2.993654013E-1,7.525462699E0
3.314559948E0,6.264735222E0,3.850810051E0,-6.020957232E-1,7.378222327E0
3.322772755E0,6.002526283E0,3.066435814E0,-5.082504749E-1,6.759561297E0
3.331012178E0,5.360786438E0,2.220357895E0,-6.117582321E-2,5.802737535E0
3.339226140E0,4.374562263E0,1.207186699E0,4.944934845E-1,4.564933573E0
3.347439794E0,3.172197342E0,3.802833557E-1,7.585854530E-1,3.283733134E0
3.355654101E0,2.099568605E0,-2.969532013E-1,6.421523094E-1,2.215565192E0
3.363871601E0,1.112814307E0,-9.283170700E-1,4.054946899E-1,1.504843583E0
3.372085832E0,4.216067791E-1,-1.484672546E0,3.409674168E-1,1.580589645E0
3.380299063E0,-1.794528961E-2,-1.786504269E0,3.767026663E-1,1.825876347E0
3.388538794E0,-3.724519014E-1,-1.771307945E0,4.455535412E-1,1.864073554E0
3.396752909E0,-5.027171373E-1,-1.684240341E0,3.911608458E-1,1.800665670E0
3.404966601E0,-5.165746212E-1,-1.751450062E0,2.491019964E-1,1.842953733E0
3.413206909E0,-6.444315910E-1,-2.081530571E0,-6.061911583E-3,2.179013157E0
3.421421409E0,-9.675929546E-1,-2.437349319E0,-1.888959408E-1,2.629180387E0
3.429635178E0,-1.363976598E0,-2.547150612E0,-4.583244920E-1,2.925486240E0
3.437849755E0,-1.649655223E0,-2.374384880E0,-8.041098714E-1,3.000942952E0
3.446064332E0,-1.897283554E0,-1.914529324E0,-9.986985922E-1,2.874457565E0
3.454279716E0,-2.197864771E0,-1.366686344E0,-1.225739479E0,2.863717581E0
3.462494793E0,-2.293323994E0,-9.394264221E-1,-1.293769360E0,2.795656649E0
3.470737216E0,-2.507293463E0,-5.810737610E-1,-1.149699926E0,2.818860966E0
3.478952639E0,-2.871352673E0,-1.243648529E-1,-8.134201169E-1,2.986935733E0
3.487166870E0,-3.258057833E0,3.130311966E-1,-5.434892178E-1,3.317877319E0
3.495407870E0,-3.610146523E0,8.255004883E-1,-3.278634548E-1,3.717808954E0
3.503634601E0,-4.032999039E0,1.364558220E0,-9.061634541E-2,4.258557467E0
3.511848601E0,-4.228227615E0,1.686225891E0,2.523125410E-1,4.559049039E0
3.520062293E0,-4.041160583E0,1.569241524E0,2.121274471E-1,4.340333613E0
3.528275639E0,-3.862578392E0,1.151009560E0,2.047884464E-2,4.030478163E0
3.536490101E0,-3.465482950E0,6.505899429E-1,-2.674251795E-1,3.536149824E0
3.544705062E0,-3.059603691E0,3.074264526E-2,-6.915579438E-1,3.136936762E0
3.552947870E0,-2.733955860E0,-5.256528854E-1,-9.958115816E-1,2.956766191E0
3.561163178E0,-2.539395332E0,-1.056013107E0,-1.141567111E0,2.977728632E0
3.569377101E0,-2.320067883E0,-1.530552387E0,-1.138850212E0,3.003711936E0
3.577620216E0,-2.078991175E0,-1.845777988E0,-8.989574909E-1,2.921853052E0
3.585836177E0,-1.930933118E0,-2.002315044E0,-5.035154819E-1,2.826888056E0
3.594050562E0,-1.734013557E0,-2.132583141E0,-8.074462414E-2,2.749769730E0
3.602265639E0,-1.396926761E0,-2.368568897E0,2.439651489E-1,2.760623478E0
3.610482100E0,-1.074176550E0,-2.678013325E0,3.887081146E-1,2.911478083E0
3.618697600E0,-9.163602591E-1,-3.268541336E0,3.675109148E-1,3.414402270E0
3.626912370E0,-8.534730673E-1,-3.832313538E0,2.223206758E-1,3.932489010E0
3.635154908E0,-1.020300865E0,-4.301290035E0,1.472508907E-2,4.420670385E0
3.643370139E0,-1.239412427E0,-4.689563274E0,-3.401699066E-1,4.862495494E0
3.651585485E0,-1.390984297E0,-5.129933834E0,-6.912149191E-1,5.359928779E0
3.659827331E0,-1.515072346E0,-5.508464813E0,-1.022876620E0,5.803869863E0
3.668040716E0,-1.650053024E0,-5.728353500E0,-1.308094978E0,6.103099318E0
3.676253677E0,-1.644098282E0,-5.778938770E0,-1.499679804E0,6.192594931E0
3.684466600E0,-1.473521829E0,-5.618856430E0,-1.564344406E0,6.015811465E0
3.692680446E0,-1.198561549E0,-5.439218998E0,-1.553611755E0,5.782331933E0
3.700894562E0,-1.246887922E0,-5.173077583E0,-1.314476013E0,5.481177644E0
3.709107985E0,-8.817865849E-1,-5.016430378E0,-1.302128673E0,5.257153260E0
3.717349254E0,-1.449754238E-1,-4.996175289E0,-1.618645787E0,5.253836653E0
3.725562792E0,5.456231833E-1,-4.749068737E0,-1.916253328E0,5.150085955E0
3.733776215E0,1.289729238E0,-4.266227722E0,-1.936130524E0,4.859290266E0
3.742017523E0,2.070424080E0,-3.672367573E0,-1.984742641E0,4.659629042E0
3.750240485E0,2.781590462E0,-3.097321987E0,-2.057972193E0,4.643909833E0
3.758453061E0,3.625542164E0,-2.151516438E0,-1.864781260E0,4.609879403E0
3.766666100E0,4.340118408E0,-9.066877365E-1,-1.658050179E0,4.733692095E0
3.774879408E0,5.319210052E0,9.907960892E-1,-1.257543445E0,5.554915660E0
3.783092600E0,6.413364887E0,3.311311722E0,-9.615621567E-1,7.281527057E0
3.791306792E0,7.332886696E0,5.461192131E0,-8.317937851E-1,9.180834803E0
3.799548292E0,8.175138474E0,7.144050598E0,-3.393578529E-1,1.086211360E1
3.807761946E0,8.709135056E0,8.120176315E0,3.666601181E-1,1.191304900E1
3.815975984E0,9.111754417E0,8.392689705E0,1.076689482E0,1.243465196E1
3.824217638E0,9.627387047E0,8.275789261E0,1.411689520E0,1.277372837E1
3.832430677E0,1.015288925E1,8.115323067E0,1.397107124E0,1.307254898E1
3.840644292E0,1.042893219E1,8.360278130E0,1.310692549E0,1.343036827E1
3.848856869E0,1.054790115E1,9.435894966E0,1.179310322E0,1.420158813E1
3.857070292E0,1.067124462E1,1.125719643E1,9.818599224E-1,1.554232872E1
3.865282292E0,1.073853683E1,1.359588528E1,1.003869534E0,1.735430851E1
3.873495369E0,1.086123276E1,1.600729370E1,1.648952007E0,1.941439856E1
3.881734715E0,1.066294765E1,1.810186005E1,2.872231722E0,2.120437466E1
3.889947561E0,1.032605362E1,1.928271675E1,3.855449915E0,2.221069658E1
3.898159522E0,9.636896133E0,1.977071762E1,4.846938133E0,2.252207476E1
3.906397638E0,8.819461823E0,1.984440613E1,5.922515869E0,2.250909940E1
3.914610253E0,8.254022598E0,1.937175369E1,6.453513622E0,2.202365928E1
3.922823330E0,7.799475193E0,1.834348106E1,6.343913078E0,2.091794311E1
3.931036561E0,7.380496979E0,1.755881500E1,6.364415169E0,2.008206913E1
3.939250330E0,6.940256119E0,1.647613907E1,6.698245049E0,1.909179930E1
3.947463638E0,6.143066406E0,1.489556599E1,7.314970493E0,1.769530854E1
3.955677599E0,5.179800510E0,1.321792412E1,7.725183964E0,1.616237354E1
3.963916868E0,4.057301998E0,1.115802193E1,7.842803955E0,1.422929115E1
3.972130253E0,2.956137419E0,9.099722862E0,7.327578545E0,1.205143609E1
3.980342868E0,1.866541147E0,6.898471832E0,6.380689621E0,9.580505702E0
3.988582061E0,6.944193840E-1,4.710777283E0,5.329514503E0,7.146843060E0
3.996805445E0,-2.279839516E-1,2.444633484E0,4.260881901E0,4.917654332E0
4.005018637E0,-8.361458778E-1,1.891613007E-2,3.127533197E0,3.237431335E0
4.013231599E0,-1.499671698E0,-2.168282032E0,2.396839619E0,3.563046776E0
4.021444983E0,-2.144724846E0,-3.847795963E0,1.808402777E0,4.761900780E0
4.029657522E0,-2.616792202E0,-4.931437492E0,1.247381926E0,5.720370516E0
4.037870637E0,-3.309894562E0,-5.768263817E0,7.339200974E-1,6.690807737E0
4.046111137E0,-4.136984825E0,-5.970093727E0,3.481528759E-1,7.271717334E0
4.054324099E0,-5.008395672E0,-5.587892532E0,1.811690331E-1,7.506090352E0
4.062537599E0,-5.649850845E0,-5.130116463E0,3.035295010E-2,7.631502526E0
4.070777483E0,-6.095700741E0,-4.754258633E0,-1.703407764E-1,7.732370830E0
4.078990945E0,-6.710728645E0,-4.354810715E0,-2.904701233E-1,8.005162597E0
4.087204214E0,-7.223826885E0,-3.857209682E0,-4.397196770E-1,8.200920363E0
4.095416637E0,-7.670797825E0,-3.514449596E0,-5.312247276E-1,8.454270811E0
4.103630906E0,-8.138606071E0,-3.216816425E0,-6.584995985E-1,8.776014951E0
4.111846099E0,-8.622034073E0,-2.756393433E0,-5.705837607E-1,9.069881043E0
4.120061291E0,-9.007212639E0,-2.050653458E0,-1.006262302E-1,9.238245762E0
4.128300829E0,-9.144317627E0,-1.548191071E0,4.052844048E-1,9.283301993E0
4.136514098E0,-9.450410843E0,-1.464653492E0,7.056629658E-1,9.589235380E0
4.144726906E0,-9.866998672E0,-1.668067932E0,1.017413020E0,1.005859049E1
4.152967214E0,-1.051737785E1,-2.007801056E0,1.094795585E0,1.076313520E1
4.161180637E0,-1.114831543E1,-2.406313896E0,7.109658718E-1,1.142719370E1
4.169394983E0,-1.160224533E1,-2.727802753E0,1.494536400E-1,1.191953611E1
4.177610406E0,-1.210105324E1,-3.012431622E0,-4.923641086E-1,1.248009039E1
4.185824752E0,-1.212509918E1,-3.261854172E0,-1.259454727E0,1.261918971E1
4.194039521E0,-1.239925575E1,-3.453473091E0,-1.840788245E0,1.300217370E1
4.202253367E0,-1.318692589E1,-3.418981552E0,-2.078391075E0,1.378057178E1
4.210493521E0,-1.404345703E1,-3.350205421E0,-2.064247847E0,1.458436426E1
4.218708367E0,-1.433125496E1,-3.321251392E0,-2.099275112E0,1.486009877E1
4.226923252E0,-1.436766624E1,-3.150117874E0,-1.999951601E0,1.484428787E1
4.235165752E0,-1.441930580E1,-2.839135647E0,-1.741540790E0,1.479898765E1
4.243392636E0,-1.421590614E1,-2.702071667E0,-1.448286057E0,1.454272022E1
4.251607521E0,-1.367448616E1,-2.675183296E0,-1.220699072E0,1.398707559E1
4.259822867E0,-1.304850578E1,-2.660796165E0,-1.020335436E0,1.335606319E1
4.268036752E0,-1.244562912E1,-2.508886814E0,-9.325581789E-1,1.273019489E1
4.276251598E0,-1.194531155E1,-2.442487001E0,-8.886287808E-1,1.222480559E1
4.284464059E0,-1.135935020E1,-2.478237152E0,-9.238346219E-1,1.166318854E1
4.292703290E0,-1.085537243E1,-2.326794386E0,-9.264238477E-1,1.114052709E1
4.300916021E0,-1.046715832E1,-1.931723356E0,-1.015416861E0,1.069224157E1
4.309129790E0,-1.020162964E1,-1.525015473E0,-1.028951883E0,1.036617873E1
4.317371905E0,-1.000267315E1,-1.027576923E0,-6.754384041E-1,1.007797606E1
4.325585136E0,-9.839696884E0,-5.279092789E-1,-2.606267631E-1,9.857294217E0
4.333799521E0,-9.367340088E0,1.581475735E-1,3.043393791E-1,9.373616881E0
4.342014559E0,-8.662630081E0,9.757351875E-1,7.681712508E-1,8.751188842E0
4.350229328E0,-7.487250328E0,1.939660788E0,9.610341191E-1,7.793894278E0
4.358445290E0,-6.007783890E0,3.003901720E0,1.131978273E0,6.811627384E0
4.366661059E0,-4.533208847E0,4.032806396E0,1.120360017E0,6.169985126E0
4.374902828E0,-3.350116730E0,4.802151680E0,1.011378527E0,5.941955014E0
4.383116482E0,-1.890748501E0,5.589357376E0,6.753203869E-1,5.939015356E0
4.391330367E0,-4.268579483E-1,6.262417793E0,2.810820937E-2,6.277011582E0
4.399571982E0,1.057800293E0,6.488123894E0,-9.381804466E-1,6.640397252E0
4.407785905E0,2.135537148E0,6.568324089E0,-1.781881809E0,7.132916867E0
4.416000597E0,2.713912964E0,7.087182999E0,-1.846081018E0,7.810345803E0
4.424214713E0,2.950533867E0,8.241808891E0,-1.549385071E0,8.890087626E0
4.432429367E0,3.425582886E0,9.738710403E0,-1.325527430E0,1.040836785E1
4.440643636E0,4.243751526E0,1.062439537E1,-1.010400414E0,1.148512573E1
4.448857905E0,4.860096931E0,1.127879715E1,-5.153027773E-1,1.229216597E1
4.457098020E0,5.096530914E0,1.162463665E1,3.455230594E-1,1.269748758E1
4.465311674E0,4.823668480E0,1.168938828E1,1.088730216E0,1.269231694E1
4.473527559E0,4.382337570E0,1.136908722E1,1.485946894E0,1.227473279E1
4.481769136E0,4.131678581E0,1.067081261E1,1.657632828E0,1.156221243E1
4.489994328E0,3.926962852E0,1.014365673E1,2.135686398E0,1.108494319E1
4.498210636E0,3.604909897E0,1.013283062E1,2.928434849E0,1.114654038E1
4.506424212E0,3.501131535E0,1.049598217E1,3.433569908E0,1.158503198E1
4.514638059E0,3.804319859E0,1.069963264E1,3.489991426E0,1.188002645E1
4.522852712E0,4.436458588E0,1.057577705E1,3.418498516E0,1.196726189E1
4.531065712E0,5.199443817E0,9.952745438E0,3.452335596E0,1.174776484E1
4.539306212E0,6.055458546E0,8.820374489E0,3.596423864E0,1.128724275E1
4.547520212E0,6.756468296E0,7.236333370E0,3.658410311E0,1.055454170E1
4.555735712E0,7.119402409E0,5.372713089E0,3.583868504E0,9.612286411E0
4.563976520E0,7.279010296E0,3.505146503E0,3.391917706E0,8.762142924E0
4.572190635E0,7.267868519E0,1.752571106E0,3.072268009E0,8.082836693E0
4.580405020E0,7.062939644E0,2.310290337E-1,2.608285904E0,7.532705104E0
4.588619058E0,6.768738270E0,-8.428211212E-1,2.046105385E0,7.121285871E0
4.596833135E0,6.317403793E0,-1.862468243E0,1.307509422E0,6.714756848E0
4.605047020E0,5.897099495E0,-2.674415588E0,7.034758329E-1,6.513306337E0
4.613261058E0,5.506000042E0,-3.305943966E0,4.120193720E-1,6.435453514E0
4.621502789E0,5.130230427E0,-3.846632481E0,2.968230247E-1,6.419030268E0
4.629717827E0,4.795868397E0,-4.206737518E0,1.972279549E-1,6.382467634E0
4.637932635E0,4.476483822E0,-4.487654686E0,2.212184668E-1,6.342467154E0
4.646174750E0,4.167826176E0,-4.571973801E0,2.672053576E-1,6.192343512E0
4.654390250E0,3.939388752E0,-4.562127113E0,3.420301676E-1,6.037281853E0
4.662605096E0,3.672570229E0,-4.431736469E0,1.890803576E-1,5.758802966E0
4.670818481E0,3.503452539E0,-4.254952908E0,-1.540453434E-1,5.513849282E0
4.679033866E0,3.412206888E0,-3.983376026E0,-2.811515331E-1,5.252569523E0
4.687248789E0,3.396077633E0,-3.545681953E0,-2.199345827E-1,4.914628676E0
4.695464635E0,3.473000050E0,-3.133906364E0,-1.727615595E-1,4.681126467E0
4.703707481E0,3.545559168E0,-2.783384323E0,-2.454677820E-1,4.514252157E0
4.711923058E0,3.666904449E0,-2.485934734E0,-4.445241690E-1,4.452377060E0
4.720137942E0,3.809738159E0,-2.158495903E0,-5.633043051E-1,4.414807034E0
4.728379481E0,3.933962107E0,-1.814246655E0,-5.344575644E-1,4.364996411E0
4.736605404E0,4.044775963E0,-1.538192749E0,-5.389163494E-1,4.360811892E0
4.744820058E0,4.230276585E0,-1.324305534E0,-6.529948711E-1,4.480561062E0
4.753035019E0,4.386740208E0,-1.070746422E0,-7.464721203E-1,4.576812010E0
4.761249635E0,4.416427612E0,-7.807455063E-1,-7.691171169E-1,4.550377736E0
4.769464634E0,4.338796139E0,-4.926109314E-1,-6.578680277E-1,4.415949253E0
4.777678942E0,4.076085091E0,-2.746496201E-1,-5.376863480E-1,4.120559269E0
4.785919288E0,3.723051071E0,-1.590061188E-1,-6.108040810E-1,3.776171851E0
4.794133057E0,3.525884867E0,-1.178207397E-1,-8.618673086E-1,3.631605854E0
4.802347942E0,3.403906822E0,-1.541681290E-1,-1.181893468E0,3.606552597E0
4.810589788E0,3.291382313E0,-1.718339920E-1,-1.304089546E0,3.544485011E0
4.818806250E0,3.292973518E0,-1.911830902E-2,-1.089794159E0,3.468672860E0
4.827019865E0,3.214301348E0,2.313385010E-1,-5.910013914E-1,3.276359764E0
4.835233673E0,3.170146704E0,3.720464706E-1,-2.814342976E-1,3.204286810E0
4.843448750E0,2.936349869E0,4.966888428E-1,5.022764206E-3,2.978065746E0
4.851663826E0,2.554232359E0,6.064414978E-1,2.281715870E-1,2.635135007E0
4.859879173E0,2.080655575E0,6.118144989E-1,3.458290100E-1,2.196142597E0
4.868118326E0,1.625003815E0,5.458421707E-1,3.840043545E-1,1.756712958E0
4.876332326E0,1.047483683E0,3.589763641E-1,3.867974281E-1,1.172901678E0
4.884545634E0,6.198720932E-1,1.807804108E-1,2.849221230E-1,7.057645393E-1
4.892786096E0,1.135413647E-1,-1.680374146E-2,2.405505180E-1,2.665305966E-1
4.901000172E0,-3.087415695E-1,-2.522487640E-1,1.942191124E-1,4.434770110E-1
4.909213249E0,-5.762104988E-1,-4.135332108E-1,1.623969078E-1,7.275994853E-1
4.917427057E0,-6.599633694E-1,-5.248956680E-1,3.026986122E-2,8.437910735E-1
4.925639672E0,-7.325046062E-1,-5.343809128E-1,-3.612494469E-2,9.074309724E-1
4.933853172E0,-8.000633717E-1,-5.216188431E-1,-1.498081684E-1,9.667626924E-1
4.942068134E0,-8.368775845E-1,-4.891605377E-1,-2.056422234E-1,9.909242388E-1
4.950310211E0,-1.011440277E0,-2.525177002E-1,-7.154417038E-2,1.044937889E0
4.958524749E0,-1.148908615E0,-5.498218536E-2,8.943438530E-2,1.153695175E0
4.966738711E0,-9.426441193E-1,-8.126258850E-3,1.055696011E-1,9.485720386E-1
4.974979403E0,-7.910263538E-1,2.889633179E-3,1.199162006E-1,8.000693330E-1
4.983204403E0,-6.480412483E-1,1.020460129E-1,1.337592602E-1,6.695240010E-1
4.991418595E0,-4.209001064E-1,1.764860153E-1,4.629540443E-2,4.587455478E-1
4.999633287E0,-1.596648693E-1,2.884349823E-1,-1.378271580E-1,3.573288891E-1
5.007846672E0,5.412101746E-4,4.375762939E-1,-2.970776558E-1,5.288935994E-1
5.016060826E0,8.457112312E-2,5.331287384E-1,-4.595606327E-1,7.089248914E-1
5.024274172E0,9.568858147E-2,4.990606308E-1,-5.460925102E-1,7.459456063E-1
5.032515364E0,4.722690582E-2,3.979578018E-1,-5.275807381E-1,6.625271525E-1
5.040731172E0,-6.070137024E-4,2.039909363E-1,-4.868574142E-1,5.278662826E-1
5.048946826E0,-3.919839859E-3,7.941246033E-3,-4.499404430E-1,4.500275889E-1
5.057189210E0,3.233289719E-2,-1.066675186E-1,-3.966469765E-1,4.120099510E-1
5.065404210E0,1.512503624E-1,-3.603239059E-1,-4.867589474E-1,6.242149166E-1
5.073619441E0,2.132966518E-1,-7.027301788E-1,-5.745866299E-1,9.324564125E-1
5.081834595E0,2.130284309E-1,-1.155136108E0,-6.912627220E-1,1.362925050E0
5.090048749E0,1.064147949E-1,-1.602609634E0,-8.120898008E-1,1.799769872E0
5.098264056E0,1.076321602E-1,-1.942541599E0,-9.682333469E-1,2.173137907E0
5.106477902E0,1.252367496E-1,-2.253974438E0,-1.180692315E0,2.547571265E0
5.114718364E0,-7.995843887E-3,-2.524615765E0,-1.357175231E0,2.866299583E0
5.122931710E0,-1.232323647E-1,-2.809308052E0,-1.418039441E0,3.149322753E0
5.131145633E0,-1.017646790E-1,-3.064594269E0,-1.353766680E0,3.351832082E0
5.139386787E0,8.617639542E-2,-3.307677269E0,-1.290835500E0,3.551677290E0
5.147601171E0,3.366186619E-1,-3.424805641E0,-1.152525902E0,3.629176457E0
5.155816556E0,4.721562862E-1,-3.617965698E0,-9.570386410E-1,3.772072416E0
5.164031133E0,4.837939739E-1,-3.818099976E0,-8.757736683E-1,3.947014511E0
5.172245018E0,5.848212242E-1,-4.025511265E0,-9.841308594E-1,4.185124891E0
5.180459902E0,6.994833946E-1,-4.215451717E0,-1.184583426E0,4.434247184E0
5.188674094E0,7.169525623E-1,-4.320154667E0,-1.384937167E0,4.593017339E0
5.196915210E0,8.622422218E-1,-4.356911182E0,-1.488355398E0,4.684158248E0
5.205127441E0,1.094811440E0,-4.420535088E0,-1.524641514E0,4.802527907E0
5.213340748E0,1.405548811E0,-4.395121574E0,-1.405030966E0,4.823564359E0
5.221579979E0,1.755532026E0,-4.201686859E0,-1.045579195E0,4.672183752E0
5.229804671E0,2.070518494E0,-4.005825520E0,-7.878444195E-1,4.577595849E0
5.238018940E0,2.462351322E0,-3.875145435E0,-5.366947651E-1,4.622549886E0
5.246231787E0,2.864841461E0,-3.788374424E0,-4.143474102E-1,4.767680899E0
5.254444056E0,3.229137897E0,-3.741409302E0,-3.793034554E-1,4.956747546E0
5.262657210E0,3.340859890E0,-3.768243790E0,-4.239320755E-1,5.053783184E0
5.270870863E0,3.463651657E0,-3.657926083E0,-6.292963028E-1,5.076743037E0
5.279111594E0,3.613311291E0,-3.359824657E0,-7.590169907E-1,4.992048378E0
5.287325171E0,3.611807346E0,-2.753084660E0,-5.429630280E-1,4.573777028E0
5.295541786E0,3.556452751E0,-1.865814209E0,-1.702594757E-2,4.016205761E0
5.303785479E0,3.658441067E0,-8.967123032E-1,5.635871887E-1,3.808663087E0
5.312000632E0,4.009884834E0,1.975660324E-1,1.133293390E0,4.171637883E0
5.320216171E0,4.360028744E0,1.597531319E0,1.849204779E0,4.998151186E0
5.328431209E0,4.528054714E0,3.213513374E0,2.601523638E0,6.131710442E0
5.336646978E0,4.749471664E0,4.953276634E0,3.283386707E0,7.607434441E0
5.344861017E0,5.487205029E0,6.590717316E0,3.769872665E0,9.367972762E0
5.353075671E0,5.800057411E0,7.798294067E0,3.608921528E0,1.036717758E1
5.361318748E0,5.885878563E0,8.704058647E0,3.280744076E0,1.100761033E1
5.369533055E0,5.973378181E0,9.552153587E0,3.076808214E0,1.167868288E1
5.377748171E0,6.452079296E0,1.064894009E1,2.905142546E0,1.278550372E1
5.385989248E0,7.294975758E0,1.228072166E1,2.817123175E0,1.455915447E1
5.394204517E0,8.233083725E0,1.417306900E1,2.765917540E0,1.662257057E1
5.402419440E0,8.814239502E0,1.608243370E1,3.094334602E0,1.859866657E1
5.410633209E0,8.767939568E0,1.764531708E1,3.823891878E0,2.007127620E1
5.418846940E0,8.255981445E0,1.914436913E1,4.818925858E0,2.139836782E1
5.427059863E0,8.080539703E0,2.014238358E1,5.468774796E0,2.238120273E1
5.435275363E0,8.119316101E0,2.059205246E1,5.952627182E0,2.292138060E1
5.443517440E0,7.625332355E0,2.020219231E1,6.281791687E0,2.248855652E1
5.451732901E0,6.814348698E0,1.899985504E1,6.346736431E0,2.115918011E1
5.459949747E0,5.983392239E0,1.734582901E1,5.907013893E0,1.927619205E1
5.468192440E0,5.130373001E0,1.567066956E1,5.179473877E0,1.728344760E1
5.476419247E0,4.228318691E0,1.401631737E1,4.549607277E0,1.533084335E1
5.484634747E0,3.237718105E0,1.221329308E1,4.303059578E0,1.334779637E1
5.492849786E0,2.279434204E0,1.056178188E1,4.353232861E0,1.164893528E1
5.501065478E0,1.455356598E0,8.269630432E0,4.234515190E0,9.404040047E0
5.509280247E0,6.954240799E-1,5.792435169E0,3.927436113E0,7.032828326E0
5.517494593E0,-2.039852142E-1,3.530624866E0,3.715039253E0,5.129175233E0
5.525735478E0,-1.049293995E0,1.536799908E0,3.414741039E0,3.888859500E0
5.533950208E0,-1.705539227E0,-3.262133598E-1,2.970407724E0,3.440726850E0
5.542164939E0,-2.541534901E0,-2.092324734E0,2.536913872E0,4.156098463E0
5.550406824E0,-3.470178843E0,-3.775982618E0,2.226185560E0,5.590714452E0
5.558622439E0,-4.308497906E0,-5.281791210E0,1.847549438E0,7.062146382E0
5.566836247E0,-4.908280373E0,-6.196763515E0,1.530436754E0,8.051914738E0
5.575050901E0,-5.643023491E0,-6.824388504E0,1.182410836E0,8.933873066E0
5.583264285E0,-6.284948826E0,-7.276535511E0,1.217216015E0,9.691757612E0
5.591477862E0,-6.734705448E0,-7.460885048E0,1.491444111E0,1.016097774E1
5.599691939E0,-7.431394577E0,-7.096687794E0,1.593563914E0,1.039846378E1
5.607932054E0,-8.234508514E0,-6.397286415E0,1.473790407E0,1.053111875E1
5.616147516E0,-8.953017235E0,-5.518877029E0,1.033842683E0,1.056803444E1
5.624361247E0,-9.433790207E0,-4.928227901E0,5.692235827E-1,1.065869802E1
5.632603747E0,-9.922005653E0,-4.580842018E0,5.135858059E-1,1.094047897E1
5.640820323E0,-1.025676250E1,-4.371436119E0,9.268605709E-1,1.118792659E1
5.649036516E0,-1.029017639E1,-4.221296310E0,1.692736864E0,1.125044136E1
5.657252323E0,-1.019729900E1,-4.192116261E0,2.370607853E0,1.127734576E1
5.665466285E0,-1.024396896E1,-4.179786205E0,2.706223249E0,1.139004641E1
5.673681631E0,-1.054279900E1,-4.194790840E0,2.659952879E0,1.165427948E1
5.681896016E0,-1.065304279E1,-4.259374142E0,2.379249096E0,1.171709926E1
5.690137439E0,-1.065530872E1,-4.344034195E0,1.970348120E0,1.167426695E1
5.698353400E0,-1.086695099E1,-4.410569668E0,1.523797750E0,1.182648334E1
5.706568939E0,-1.114651203E1,-4.512797356E0,1.205549002E0,1.208566998E1
5.714812554E0,-1.135012627E1,-4.692912102E0,9.461122751E-1,1.231843816E1
5.723038439E0,-1.158183861E1,-4.697361946E0,9.034333825E-1,1.253077758E1
5.731253323E0,-1.161022091E1,-4.579376221E0,8.709388971E-1,1.251105314E1
5.739468554E0,-1.149533844E1,-4.475419521E0,8.277359009E-1,1.236354854E1
5.747682208E0,-1.137223816E1,-4.220744133E0,8.800880313E-1,1.216211481E1
5.755897208E0,-1.136359024E1,-3.856935978E0,1.028951168E0,1.204432974E1
5.764112515E0,-1.111811447E1,-3.616125107E0,9.880763888E-1,1.173307825E1
5.772354169E0,-1.083845139E1,-3.575783730E0,9.554761052E-1,1.145299927E1
5.780568900E0,-1.078806114E1,-3.428388834E0,1.126318455E0,1.137561895E1
5.788784054E0,-1.097095776E1,-3.105389118E0,1.637570620E0,1.151898403E1
5.797026515E0,-1.104230499E1,-2.872820616E0,2.066596270E0,1.159553440E1
5.805241092E0,-1.100423622E1,-2.880170822E0,2.138038635E0,1.157410074E1
5.813455977E0,-1.096981812E1,-3.023735285E0,1.964145184E0,1.154719667E1
5.821671284E0,-1.105115891E1,-3.070161581E0,1.713356495E0,1.159696494E1
5.829885900E0,-1.103680992E1,-2.896276712E0,1.589078546E0,1.152062336E1
5.838101361E0,-1.056708717E1,-2.667268753E0,1.309845448E0,1.097694625E1
5.846316707E0,-1.015066910E1,-2.222605228E0,1.288200021E0,1.047069799E1
5.854558515E0,-9.652861595E0,-1.164205790E0,1.756354451E0,9.880176772E0
5.862771976E0,-9.218824387E0,3.473849297E-1,2.252075672E0,9.496275280E0
5.870985592E0,-8.494524956E0,1.830839396E0,2.265503645E0,8.980057566E0
5.879226746E0,-7.574320793E0,3.309118032E0,1.917171359E0,8.485054134E0
5.887442015E0,-6.534768105E0,4.709049225E0,1.539044976E0,8.200426710E0
5.895659207E0,-5.391668320E0,5.907480240E0,1.190968275E0,8.086211442E0
5.903873976E0,-3.779099941E0,7.066907406E0,6.609869599E-1,8.041124325E0
5.912088322E0,-2.121430874E0,7.984882355E0,-3.443145752E-2,8.261961068E0
5.920302822E0,-1.185119629E0,8.928752899E0,-8.358163834E-1,9.045757342E0
5.928516322E0,-1.635866165E-1,9.920995712E0,-1.026441574E0,9.975294422E0
5.936757784E0,9.214525223E-1,1.153103447E1,-4.491159320E-1,1.157650793E1
5.944972053E0,2.041598320E0,1.401459789E1,6.389525533E-2,1.416266784E1
5.953184515E0,3.499352455E0,1.642139053E1,-3.128989339E-1,1.679301761E1
5.961424938E0,5.807990074E0,1.773003578E1,-1.307671785E0,1.870285869E1
5.969649245E0,8.965085030E0,1.819153786E1,-1.867606997E0,2.036646153E1
5.977863361E0,1.057495594E1,1.755727386E1,-1.043723226E0,2.052259528E1
5.986077553E0,1.061876106E1,1.633192635E1,8.130155802E-1,1.949745878E1
5.994290861E0,9.909384727E0,1.453678608E1,3.231215000E0,1.788728055E1
6.002504784E0,8.747632980E0,1.302203083E1,5.224054813E0,1.653436175E1
6.010720361E0,7.390136719E0,1.253032303E1,6.393759727E0,1.589035177E1
6.018963399E0,6.236264229E0,1.311495972E1,6.361465454E0,1.585438118E1
6.027178053E0,5.531727791E0,1.388780594E1,5.471864700E0,1.591893431E1
6.035393207E0,5.575541019E0,1.383337593E1,4.440963268E0,1.556184764E1
6.043636553E0,6.202820301E0,1.290871143E1,4.154498577E0,1.491206454E1
6.051852130E0,7.144218445E0,1.150408459E1,4.418440819E0,1.424452311E1
6.060068283E0,8.086559296E0,9.372817039E0,4.745998383E0,1.325770120E1
6.068282822E0,9.131094933E0,6.902241707E0,5.071675301E0,1.251957370E1
6.076497129E0,9.982120514E0,4.222839355E0,5.267098427E0,1.205061940E1
6.084711822E0,1.037598610E1,1.682817459E0,5.312369347E0,1.177770055E1
6.092925976E0,1.051582909E1,-5.822067261E-1,5.033062935E0,1.167276097E1
6.101167052E0,1.025472450E1,-2.624373913E0,4.365440845E0,1.145005619E1
6.109382283E0,9.756635666E0,-4.411255836E0,3.398315907E0,1.123386258E1
6.117597475E0,8.982733727E0,-5.885893822E0,2.534666538E0,1.103439105E1
6.125838437E0,8.154893875E0,-6.795058250E0,2.098028183E0,1.082020485E1
6.134052475E0,6.965785027E0,-7.302854538E0,1.779217720E0,1.024790033E1
6.142266591E0,5.906157970E0,-7.345699310E0,1.762396574E0,9.588954167E0
6.150479937E0,5.087738991E0,-7.212040424E0,1.947807670E0,9.038394207E0
6.158694860E0,4.431515217E0,-7.097818375E0,1.983560920E0,8.599527122E0
6.166909398E0,3.845379114E0,-7.024359703E0,1.916428208E0,8.234152467E0
6.175123552E0,3.372202158E0,-6.888363361E0,1.871614695E0,7.894570207E0
6.183364206E0,2.958732367E0,-6.652994156E0,1.828463793E0,7.507310324E0
6.191578821E0,2.676887274E0,-6.335946560E0,1.881629586E0,7.130951843E0
6.199793975E0,2.532040358E0,-5.875537872E0,2.040091515E0,6.715292030E0
6.208035206E0,2.386643171E0,-5.371133804E0,2.266160011E0,6.299255922E0
6.216260898E0,2.364400625E0,-5.030142784E0,2.447382450E0,6.073088802E0
6.224474706E0,2.421108723E0,-4.847482204E0,2.619615316E0,6.018491138E0
6.232689167E0,2.329087973E0,-4.748331547E0,2.645740271E0,5.913649029E0
6.240904360E0,2.325251341E0,-4.585927963E0,2.452200413E0,5.696561765E0
6.249119129E0,2.415782213E0,-4.332615376E0,2.215961218E0,5.433051059E0
6.257334629E0,2.656640768E0,-4.097738266E0,1.787926912E0,5.200565518E0
6.265576321E0,2.921208382E0,-3.867372990E0,1.328979731E0,5.025556623E0
6.273792167E0,3.234018326E0,-3.472075939E0,7.671461105E-1,4.806526710E0
6.282007975E0,3.484124422E0,-2.747722626E0,3.390289545E-1,4.450173395E0
6.290248590E0,3.697458982E0,-1.773196220E0,-4.295152426E-2,4.100886806E0
6.298462629E0,3.904169559E0,-7.164096832E-1,-3.830960393E-1,3.987799564E0
6.306676821E0,4.137065411E0,3.280124664E-1,-5.702922344E-1,4.189049489E0
6.314892244E0,4.268386841E0,1.198793411E0,-7.269589901E-1,4.492738724E0
6.323107398E0,4.327344894E0,1.792969704E0,-8.312282562E-1,4.757267557E0
6.331322129E0,4.380120277E0,2.099194527E0,-9.607054591E-1,4.951265120E0
6.339536898E0,4.357137203E0,2.232396126E0,-1.004535913E0,4.997732433E0
6.347779513E0,3.862634659E0,2.175442696E0,-8.872946501E-1,4.521038512E0
6.355994398E0,2.941786051E0,2.059380531E0,-5.641896725E-1,3.635032782E0
6.364209705E0,1.871909618E0,1.959127426E0,-5.505323410E-2,2.710213414E0
6.372452667E0,8.191516399E-1,1.839444160E0,3.658516407E-1,2.046560933E0
6.380668821E0,-2.760996819E-1,1.782911301E0,5.754058361E-1,1.893698924E0
6.388884667E0,-1.163513899E0,1.962102890E0,7.779433727E-1,2.410146932E0
6.397100128E0,-1.979100585E0,2.160351753E0,6.258864403E-1,2.995946037E0
6.405314744E0,-2.846613407E0,2.416728973E0,5.557067394E-1,3.775261157E0
6.413530667E0,-3.713772058E0,2.702631950E0,8.023278713E-1,4.662622907E0
6.421746705E0,-4.172074795E0,2.718092918E0,1.040129185E0,5.086856193E0
6.429988359E0,-4.362319946E0,2.441302299E0,9.829585552E-1,5.094703107E0
6.438202474E0,-4.285130501E0,2.109136581E0,8.015785217E-1,4.842863683E0
6.446415397E0,-4.314168930E0,1.819200516E0,5.191781521E-1,4.710741983E0
6.454657013E0,-4.600695133E0,1.562219620E0,3.354903460E-1,4.870264841E0
6.462881205E0,-4.222175598E0,1.332443237E0,1.869056225E-1,4.431377379E0
6.471095243E0,-4.417842865E0,1.415899277E0,-1.863106489E-1,4.642932048E0
6.479310513E0,-4.291999340E0,1.650922775E0,-1.481803656E-1,4.600952267E0
6.487525397E0,-4.345625401E0,2.036653519E0,-7.989883423E-2,4.799875155E0
6.495740474E0,-4.601768494E0,2.222699165E0,2.452582121E-1,5.116328414E0
6.503956782E0,-4.830055714E0,2.400099754E0,6.319992542E-1,5.430408832E0
6.512199282E0,-4.991692066E0,2.606397629E0,9.170848131E-1,5.705378413E0
6.520413628E0,-5.047396660E0,2.755839348E0,1.062651634E0,5.848084477E0
6.528627474E0,-5.158905029E0,2.897916794E0,1.119826794E0,6.022145373E0
6.536869743E0,-5.223793983E0,3.069828987E0,1.229808331E0,6.182580539E0
6.545083551E0,-4.925983906E0,3.114371300E0,1.289857626E0,5.968949550E0
6.553298935E0,-4.444660664E0,2.959944725E0,1.296641827E0,5.495230770E0
6.561515089E0,-4.022115231E0,2.727795601E0,1.424942493E0,5.064458597E0
6.569729666E0,-3.776578188E0,2.438151360E0,1.484064341E0,4.733874927E0
6.577944781E0,-3.487776279E0,2.107659340E0,1.379811764E0,4.302405347E0
6.586158820E0,-3.131683350E0,1.844540596E0,8.959634304E-1,3.743330213E0
6.594401358E0,-2.807461977E0,1.593486786E0,2.735905647E-1,3.239736824E0
6.602616666E0,-2.411936045E0,1.395999908E0,-2.832337618E-1,2.801155582E0
6.610831397E0,-2.019306660E0,1.199700356E0,-6.605877876E-1,2.439929621E0
6.619072589E0,-1.539768338E0,9.583797455E-1,-9.297193289E-1,2.038076618E0
6.627287127E0,-9.096488953E-1,5.837945938E-1,-1.158030748E0,1.584080950E0
6.635502089E0,-2.937312126E-1,2.656059265E-1,-1.149369955E0,1.215679163E0
6.643715397E0,6.211018562E-2,6.595039368E-2,-9.684855938E-1,9.727134599E-1
6.651930166E0,5.617208481E-1,-1.007127762E-1,-7.386190891E-1,9.333978430E-1
6.660145012E0,1.245571136E0,-3.034534454E-1,-7.343434095E-1,1.477427390E0
6.668359935E0,1.858130455E0,-5.475482941E-1,-8.577694893E-1,2.118543466E0
6.676601089E0,2.196780682E0,-8.209762573E-1,-8.290206194E-1,2.487392724E0
6.684816473E0,2.393736839E0,-9.595832825E-1,-7.228633165E-1,2.678303102E0
6.693031435E0,2.630436182E0,-1.166746140E0,-6.114616394E-1,2.941832150E0
6.701273281E0,2.928971291E0,-1.461990833E0,-6.172764301E-1,3.331264056E0
6.709498627E0,3.317100048E0,-1.855841160E0,-6.765599251E-1,3.860703624E0
6.717714704E0,3.658458233E0,-2.358533382E0,-7.459104061E-1,4.416262978E0
6.725929896E0,3.948769331E0,-2.971023083E0,-8.256771564E-1,5.010139734E0
6.734145435E0,4.223601341E0,-3.640853405E0,-9.773653746E-1,5.661260008E0
6.742362281E0,4.451886177E0,-4.332116604E0,-1.193885684E0,6.325495066E0
6.750578550E0,4.662958145E0,-4.979837418E0,-1.422550678E0,6.968903056E0
6.758822088E0,4.879530430E0,-5.478208065E0,-1.595299482E0,7.507700131E0
6.767037973E0,4.977196217E0,-5.949444294E0,-1.603152275E0,7.920761756E0
6.775254358E0,5.113657951E0,-6.161016464E0,-1.447689533E0,8.136548808E0
6.783497319E0,5.333265781E0,-6.178041458E0,-1.266794562E0,8.259339478E0
6.791713973E0,5.540440083E0,-6.161351204E0,-1.172367930E0,8.368582409E0
6.799930242E0,5.778356552E0,-6.158914566E0,-1.224816918E0,8.533569567E0
6.808145319E0,5.860468388E0,-6.168521881E0,-1.147009015E0,8.585533274E0
6.816360781E0,5.940001965E0,-6.151840210E0,-1.151412845E0,8.628702848E0
6.824576127E0,6.165253639E0,-6.187842369E0,-1.207002163E0,8.817970279E0
6.832792319E0,6.408782005E0,-6.199766159E0,-1.333462119E0,9.015969634E0
6.841035896E0,6.814063549E0,-6.139287949E0,-1.418685436E0,9.280893650E0
6.849251973E0,7.073181152E0,-5.986852169E0,-1.355512142E0,9.365345892E0
6.857468511E0,7.319001198E0,-5.507363319E0,-1.203601718E0,9.238370330E0
6.865710357E0,7.615269661E0,-4.731601238E0,-1.071845770E0,9.029354110E0
6.873927050E0,7.822240829E0,-3.673198223E0,-7.947369814E-1,8.678216617E0
6.882142357E0,7.968968868E0,-2.329296112E0,-4.253067970E-1,8.313300853E0
6.890358665E0,7.926018238E0,-6.659069061E-1,6.940603256E-2,7.954245050E0
6.898575165E0,8.052755356E0,1.147194862E0,5.338368416E-1,8.151558541E0
6.906791511E0,8.552895546E0,3.424056053E0,8.253915310E-1,9.249727199E0
6.915010280E0,8.908321381E0,5.387070656E0,1.220274448E0,1.048178371E1
6.923253395E0,9.105678558E0,6.944803238E0,1.791904926E0,1.159114305E1
6.931470819E0,9.188412666E0,8.142234802E0,2.775617599E0,1.258677750E1
6.939687780E0,8.925300598E0,9.099266052E0,3.769892216E0,1.329171625E1
6.947931165E0,8.816102982E0,1.037451267E1,4.503035545E0,1.433985753E1
6.956159242E0,8.840318680E0,1.217127228E1,4.728575706E0,1.576865661E1
6.964376165E0,8.971856117E0,1.383423519E1,4.592364311E0,1.711636864E1
6.972591241E0,8.912158012E0,1.500178146E1,4.547945976E0,1.803229936E1
6.980806895E0,8.540061951E0,1.625666809E1,4.843544960E0,1.899136233E1
6.989022780E0,8.039583206E0,1.754643822E1,5.314376831E0,2.001886594E1
6.997239357E0,7.594037056E0,1.877046394E1,5.719085217E0,2.104061908E1
7.005481049E0,7.123279572E0,1.982676697E1,5.829597473E0,2.185923162E1
7.013696587E0,6.689931870E0,2.066151428E1,5.619279861E0,2.243278108E1
7.021911895E0,6.314575195E0,2.115553665E1,5.542979717E0,2.276302298E1
7.030153203E0,5.844380856E0,2.135348511E1,5.672429085E0,2.285398358E1
7.038369087E0,5.435578346E0,2.115652084E1,5.898347855E0,2.262596724E1
7.046585280E0,4.691819191E0,2.058788300E1,6.423345566E0,2.207110015E1
7.054800549E0,4.032588005E0,1.944522858E1,6.714956760E0,2.096352367E1
7.063016356E0,3.451148510E0,1.748103714E1,6.522022724E0,1.897455839E1
7.071231395E0,2.682453871E0,1.501430416E1,6.051574230E0,1.640873057E1
7.079446587E0,1.415915966E0,1.223612881E1,5.640192032E0,1.354767258E1
7.087686818E0,7.117366791E-2,9.462437630E0,5.282565117E0,1.083735603E1
7.095900895E0,-1.123898983E0,6.858490944E0,4.635332108E0,8.353942225E0
7.104115010E0,-2.586718798E0,4.747929573E0,3.934939861E0,6.687129510E0
7.112356472E0,-4.078922749E0,3.426700592E0,3.435981274E0,6.339231424E0
7.120571741E0,-5.228563309E0,1.932549953E0,2.481734276E0,6.101772579E0
7.128787356E0,-6.035642624E0,3.119130135E-1,1.468493819E0,6.219545458E0
7.137003241E0,-6.464494228E0,-1.284388542E0,7.605608702E-1,6.634590597E0
7.145218279E0,-6.531532764E0,-2.798580647E0,4.638696909E-1,7.120965453E0
7.153433241E0,-6.636800766E0,-3.592320442E0,5.214185715E-1,7.564639310E0
7.161648972E0,-6.997914791E0,-3.695484400E0,9.197889566E-1,7.967021281E0
7.169892125E0,-7.223091125E0,-3.289856434E0,1.164413452E0,8.021973538E0
7.178108241E0,-7.247978210E0,-2.789299250E0,1.257808924E0,7.867366887E0
7.186323164E0,-7.476671696E0,-2.147710800E0,1.386266708E0,7.901583178E0
7.194565356E0,-7.556216240E0,-1.565194130E0,1.645366311E0,7.890086617E0
7.202792087E0,-7.508237839E0,-1.062726498E0,2.090026379E0,7.865826931E0
7.211007933E0,-7.499664307E0,-6.129097939E-1,2.450278997E0,7.913563691E0
7.219224548E0,-7.572432995E0,-3.246440887E-1,2.658344984E0,8.032056605E0
7.227440356E0,-7.822237968E0,-1.786913872E-1,2.687979937E0,8.273123569E0
7.235656202E0,-8.100039482E0,-2.113318443E-1,2.562990904E0,8.498483578E0
7.243872433E0,-8.471437454E0,-3.009891510E-1,2.330490589E0,8.791304419E0
7.252113933E0,-8.825607300E0,-3.001561165E-1,2.147783756E0,9.088146839E0
7.260328625E0,-9.224305153E0,-2.770092487E-1,1.956781387E0,9.433638380E0
7.268544125E0,-9.706525803E0,-1.134834290E-1,1.930326343E0,9.897256258E0
7.276787317E0,-1.055891991E1,2.708678246E-1,2.400616169E0,1.083176426E1
7.285002356E0,-1.134993267E1,5.804951191E-1,2.766135693E0,1.169655731E1
7.293216663E0,-1.159720421E1,5.553209782E-1,2.842563152E0,1.195339668E1
7.301431048E0,-1.186940002E1,6.132626534E-1,2.949938774E0,1.224585182E1
7.309646702E0,-1.241287041E1,7.900743484E-1,2.987739801E0,1.279180043E1
7.317863009E0,-1.280422592E1,9.532812834E-1,2.981048107E0,1.318118335E1
7.326079240E0,-1.308786583E1,1.084701896E0,3.115939140E0,1.349732888E1
7.334321932E0,-1.323782539E1,1.232754707E0,3.339414597E0,1.370807773E1
7.342537625E0,-1.317689800E1,1.348499060E0,3.593423367E0,1.372449570E1
7.350754125E0,-1.315659428E1,1.342828870E0,3.908017159E0,1.379027775E1
7.358995509E0,-1.333981991E1,1.412834764E0,4.104047775E0,1.402818967E1
7.367210394E0,-1.371636772E1,1.445570946E0,4.118934631E0,1.439423639E1
7.375426663E0,-1.425535297E1,1.340367794E0,3.828938007E0,1.482135083E1
7.383642932E0,-1.477104473E1,1.370706201E0,3.388333797E0,1.521655033E1
7.391858201E0,-1.523256016E1,1.461526036E0,3.213357210E0,1.563625952E1
7.400073163E0,-1.560355186E1,1.404459715E0,3.030775785E0,1.595709685E1
7.408287817E0,-1.550812912E1,1.356730223E0,2.824222803E0,1.582147339E1
7.416529894E0,-1.544487476E1,1.919988155E0,2.508399248E0,1.576459888E1
7.424744778E0,-1.552059364E1,2.822705984E0,2.369854450E0,1.595220067E1
7.432958470E0,-1.482950401E1,3.701536179E0,2.692998171E0,1.551991619E1
7.441200086E0,-1.345125961E1,4.465117455E0,3.326234579E0,1.455807321E1
7.449426163E0,-1.208505344E1,4.990789413E0,3.783895969E0,1.361155261E1
7.457640778E0,-1.070881462E1,5.220011711E0,3.890981674E0,1.253263624E1
7.465854778E0,-9.284626961E0,5.297158241E0,3.862366199E0,1.136582843E1
7.474069316E0,-7.415919781E0,5.737559319E0,3.428056002E0,9.983337171E0
7.482283663E0,-5.743452072E0,6.689052105E0,2.460447073E0,9.153385142E0
7.490499201E0,-4.530973911E0,7.691576004E0,1.001201868E0,8.982898819E0
7.498740778E0,-3.447984219E0,8.591424942E0,-6.389675140E-1,9.279518155E0
7.506955624E0,-1.812037468E0,9.360482216E0,-1.941136479E0,9.729857035E0
7.515170393E0,-1.509580612E-1,1.007581425E1,-2.381561995E0,1.035454773E1
7.523411624E0,1.074728012E0,1.107434654E1,-1.854009628E0,1.127978472E1
7.531627278E0,2.112897873E0,1.208012486E1,-8.774354458E-1,1.229486262E1
7.539842701E0,2.948316574E0,1.377347565E1,1.228301167E0,1.413895066E1
7.548057008E0,3.615932465E0,1.528188229E1,3.547995567E0,1.609966355E1
7.556271162E0,4.831935883E0,1.576494026E1,4.779123306E0,1.716743910E1
7.564485585E0,6.099143028E0,1.540764332E1,4.548124313E0,1.718372640E1
7.572701355E0,6.889932632E0,1.531562042E1,3.963113546E0,1.725530845E1
7.580943470E0,7.314012527E0,1.528230000E1,3.802932978E0,1.736392155E1
7.589158393E0,7.819435120E0,1.475463104E1,4.236296654E0,1.722756257E1
7.597374047E0,7.764813423E0,1.384293365E1,4.962590218E0,1.662968555E1
7.605616354E0,7.507075310E0,1.306701374E1,5.637719154E0,1.608996287E1
7.613831893E0,7.396049976E0,1.264633751E1,6.046822548E0,1.584914731E1
7.622047085E0,7.377827168E0,1.319452095E1,5.929074287E0,1.623827696E1
7.630262124E0,7.434834480E0,1.425622368E1,5.160359859E0,1.688626635E1
7.638478162E0,7.855743408E0,1.500224113E1,4.113773346E0,1.742707878E1
7.646693816E0,8.805648804E0,1.478431320E1,3.557210922E0,1.757182737E1
7.654908123E0,1.007543850E1,1.381042290E1,3.769292355E0,1.750570782E1
7.663149239E0,1.134568882E1,1.209832382E1,4.467597961E0,1.717712216E1
7.671363085E0,1.228402328E1,1.000333977E1,4.844456673E0,1.656601325E1
7.679577931E0,1.275795841E1,7.185245514E0,4.823274612E0,1.541613551E1
7.687821162E0,1.258048248E1,4.673816681E0,4.226959229E0,1.407054676E1
7.696047585E0,1.191382027E1,2.557506561E0,3.113256454E0,1.257665770E1
7.704261239E0,1.103409672E1,9.080982208E-1,2.007767200E0,1.125198035E1
7.712475777E0,1.013646507E1,-3.566722870E-1,1.149979353E0,1.020772217E1
7.720690854E0,9.278909683E0,-1.278190613E0,7.798964977E-1,9.398945404E0
7.728903469E0,8.450984955E0,-2.014651775E0,6.675539017E-1,8.713414755E0
7.737118431E0,7.509263039E0,-2.501434803E0,7.617921829E-1,7.951511478E0
7.745359662E0,6.678331375E0,-2.794260025E0,8.858623505E-1,7.293336078E0
7.753573662E0,5.782428265E0,-3.090358257E0,8.425710201E-1,6.610349213E0
7.761786431E0,5.012146950E0,-3.423642635E0,5.961375237E-1,6.099043030E0
7.770026546E0,4.429997444E0,-3.770051003E0,3.618080616E-1,5.828298808E0
7.778241161E0,4.023375034E0,-3.975582600E0,1.654133797E-1,5.658636343E0
7.786455123E0,3.890527248E0,-4.091178417E0,5.411815643E-2,5.645960670E0
7.794668623E0,3.794023037E0,-4.185630798E0,-1.721978188E-2,5.649284247E0
7.802883623E0,3.729201078E0,-4.179000378E0,-4.473710060E-2,5.601159366E0
7.811097546E0,3.829967260E0,-4.082351208E0,-8.667182922E-2,5.598370531E0
7.819311700E0,3.952895880E0,-3.875897884E0,-4.801344872E-2,5.536269099E0
7.827552007E0,3.951177835E0,-3.709719658E0,6.058681011E-2,5.420101197E0
7.835767546E0,4.003619671E0,-3.665769577E0,7.826745510E-2,5.428900704E0
7.843981392E0,4.212911606E0,-3.491348267E0,1.225478649E-1,5.472947551E0
7.852223661E0,4.368414402E0,-3.111701012E0,2.599929571E-1,5.369667021E0
7.860439161E0,4.281308651E0,-2.736551762E0,2.158290148E-1,5.085754759E0
7.868654161E0,4.085749626E0,-2.447043419E0,1.446533203E-2,4.762518320E0
7.876868276E0,3.741154671E0,-2.117496967E0,-2.167154551E-1,4.304299858E0
7.885082507E0,3.434110165E0,-1.671497345E0,-3.529843092E-1,3.835572176E0
7.893297699E0,2.956597805E0,-9.149007797E-1,-3.116275072E-1,3.110566784E0
7.901512315E0,2.494767427E0,-4.085435867E-1,-3.834881783E-1,2.556919154E0
7.909754199E0,2.562474251E0,-2.147960663E-1,-5.270087719E-1,2.624909500E0
7.917970199E0,2.640873432E0,1.827716827E-2,-2.583798170E-1,2.653546056E0
7.926185007E0,2.476017237E0,5.696754456E-1,2.177367210E-1,2.550019755E0
7.934427892E0,2.171034575E0,1.399475098E0,8.268158436E-1,2.712111007E0
7.942654392E0,1.559841156E0,2.180732727E0,1.474032402E0,3.059652134E0
7.950869199E0,8.739037514E-1,2.430750847E0,1.884078026E0,3.197187429E0
7.959084584E0,7.452058792E-2,2.342632294E0,2.022417545E0,3.095747423E0
7.967300353E0,-1.018491268E0,2.303377151E0,1.903530836E0,3.156944790E0
7.975513853E0,-1.914282441E0,2.502344131E0,1.659241915E0,3.560798667E0
7.983728161E0,-2.332240343E0,2.768407822E0,1.389840603E0,3.877509998E0
7.991969199E0,-2.470593929E0,2.831480980E0,1.379530430E0,4.003026744E0
8.000184084E0,-2.626496315E0,2.629190445E0,1.632959366E0,4.059271065E0
8.008399045E0,-2.592648506E0,2.037799835E0,1.829818249E0,3.771298088E0
8.016640814E0,-2.517734289E0,1.314132690E0,1.933485746E0,3.435738321E0
8.024856891E0,-2.663258791E0,7.319087982E-1,1.851460934E0,3.325138413E0
8.033071276E0,-2.920140266E0,1.375684738E-1,1.439040184E0,3.258370898E0
8.041286084E0,-3.151060820E0,-4.120531082E-1,7.412788868E-1,3.263198805E0
8.049501507E0,-3.043919086E0,-8.248891830E-1,-9.408926964E-2,3.155113050E0
8.057716545E0,-2.663157463E0,-1.118160725E0,-7.944533825E-1,2.995638038E0
8.065930507E0,-2.112190008E0,-1.369198799E0,-1.070520163E0,2.735336433E0
8.074173545E0,-1.568667412E0,-1.468003750E0,-9.906955957E-1,2.365846618E0
8.082388006E0,-1.069538355E0,-1.571253300E0,-8.850195408E-1,2.096666118E0
8.090602237E0,-6.252521276E-1,-1.714975834E0,-8.053137064E-1,1.995147238E0
8.098843276E0,-3.401620388E-1,-1.739217281E0,-9.068089724E-1,1.990700750E0
8.107058314E0,-7.650279999E-2,-1.729508877E0,-1.171739817E0,2.090461153E0
8.115275622E0,2.067813873E-1,-1.756267548E0,-1.598276377E0,2.383636217E0
8.123492814E0,4.257133007E-1,-1.956571102E0,-2.005718470E0,2.834132825E0
8.131709468E0,6.069357395E-1,-2.167034149E0,-2.299082756E0,3.217171042E0
8.139926391E0,8.527579308E-1,-2.461511612E0,-2.519070387E0,3.623803405E0
8.148142468E0,1.172104597E0,-2.772537231E0,-2.746641397E0,4.074902557E0
8.156385391E0,1.537819743E0,-3.072869778E0,-2.945712090E0,4.525995796E0
8.164601006E0,1.769635797E0,-3.304626942E0,-3.099530935E0,4.864078751E0
8.172816275E0,1.828421474E0,-3.486094952E0,-3.283652782E0,5.126242161E0
8.181058160E0,1.943942785E0,-3.626969814E0,-3.561953306E0,5.442548570E0
8.189284160E0,2.207011700E0,-3.736300945E0,-3.825698137E0,5.785050703E0
8.197499698E0,2.445776939E0,-3.732587337E0,-3.974452734E0,5.975810205E0
8.205714814E0,2.319016457E0,-3.613012314E0,-4.012298584E0,5.876243293E0
8.213929544E0,2.309581280E0,-3.625408649E0,-4.163305759E0,5.984218279E0
8.222144044E0,2.522859812E0,-3.825744629E0,-4.369904995E0,6.332236040E0
8.230359544E0,2.633977890E0,-4.045194149E0,-4.568265915E0,6.646088225E0
8.238602852E0,2.525708199E0,-4.256228447E0,-4.688811779E0,6.817597700E0
8.246818083E0,2.357432842E0,-4.363428116E0,-4.741774082E0,6.861589901E0
8.255034506E0,2.509453297E0,-4.548307419E0,-4.804255962E0,7.075685944E0
8.263275621E0,2.546343327E0,-4.708724022E0,-5.038225174E0,7.351167197E0
8.271490160E0,2.469398975E0,-4.721642494E0,-5.273104191E0,7.496496979E0
8.279705736E0,2.473848820E0,-4.516819000E0,-5.280241489E0,7.375807213E0
8.287920967E0,2.687916279E0,-4.100536346E0,-5.250906944E0,7.184101613E0
8.296136506E0,3.008768082E0,-3.815652370E0,-5.134927273E0,7.069608651E0
8.304352621E0,3.158536196E0,-3.705533504E0,-4.964035988E0,6.953343278E0
8.312568159E0,3.077120304E0,-3.511871815E0,-4.712223530E0,6.633774461E0
8.320810390E0,2.977901936E0,-3.112974644E0,-4.542654991E0,6.260529166E0
8.329026582E0,3.172552347E0,-2.430174828E0,-4.308656693E0,5.876679384E0
8.337243505E0,3.518970490E0,-1.221701622E0,-3.740473509E0,5.278906158E0
8.345487044E0,4.229392529E0,4.283618927E-1,-2.955965996E0,5.177739858E0
8.353704890E0,5.101715088E0,2.135583401E0,-2.181785822E0,5.945452268E0
8.361921659E0,6.307012081E0,3.888013840E0,-1.294843674E0,7.521414305E0
8.370138621E0,7.509428501E0,5.604653835E0,-6.392431259E-2,9.370578816E0
8.378355890E0,8.035625458E0,6.873669147E0,1.004268646E0,1.062201297E1
8.386572121E0,8.375102043E0,7.569350243E0,2.155515671E0,1.149276490E1
8.394788467E0,8.825963020E0,7.572896957E0,3.320318699E0,1.209425102E1
8.403030005E0,9.322784424E0,7.309512138E0,4.030504227E0,1.251352234E1
8.411244505E0,9.644217491E0,7.281021118E0,4.227031231E0,1.280203080E1
8.419461813E0,9.625102043E0,7.913156509E0,4.233169556E0,1.315980090E1
8.427705005E0,9.588327408E0,9.453715324E0,3.860323906E0,1.400752857E1
8.435932967E0,9.806955338E0,1.235602760E1,4.023514271E0,1.627994036E1
8.444149313E0,9.771348000E0,1.530922699E1,5.267223358E0,1.891019076E1
8.452364928E0,9.697404861E0,1.862693787E1,7.418838501E0,2.227199228E1
8.460581082E0,9.752632141E0,2.219044495E1,9.174907684E0,2.591734191E1
8.468796390E0,1.029385567E1,2.479943848E1,1.002513123E1,2.866145267E1
8.477012851E0,1.074849892E1,2.578034973E1,1.022235298E1,2.974311957E1
8.485257120E0,9.960690498E0,2.562969017E1,1.050904083E1,2.943698885E1
8.493473620E0,8.040317535E0,2.454086685E1,1.067890263E1,2.794530038E1
8.501688697E0,6.006294727E0,2.349502945E1,1.059886169E1,2.646559756E1
8.509931582E0,4.577786922E0,2.271596909E1,9.945237160E0,2.521664384E1
8.518149505E0,3.742513180E0,2.176967049E1,9.392233849E0,2.400289596E1
8.526367389E0,2.980290413E0,1.996643066E1,8.793109894E0,2.201952011E1
8.534584774E0,2.095293045E0,1.743434906E1,8.444877625E0,1.948493619E1
8.542800928E0,1.145864964E0,1.467243576E1,8.263521194E0,1.687836367E1
8.551016466E0,-2.951812744E-2,1.182895184E1,7.903576851E0,1.422643665E1
8.559232620E0,-1.051159382E0,8.880229950E0,7.013399124E0,1.136447039E1
8.567474582E0,-1.627361298E0,6.064762592E0,5.858355522E0,8.587780826E0
8.575690889E0,-2.353668690E0,3.731436729E0,5.072911263E0,6.722931284E0
8.583906581E0,-3.203048944E0,2.338191986E0,4.568763733E0,6.049815398E0
8.592150351E0,-4.471067429E0,1.170761108E0,4.458736897E0,6.421951435E0
8.600367158E0,-5.804594040E0,3.111543655E-1,4.572914124E0,7.396057909E0
8.608580658E0,-6.626922607E0,-6.480779648E-1,4.568076611E0,8.074864223E0
8.616795081E0,-7.403009415E0,-1.561299801E0,4.190299988E0,8.648746698E0
8.625007504E0,-8.213255882E0,-2.160529613E0,3.929457188E0,9.357675683E0
8.633220081E0,-8.811752319E0,-2.420556545E0,3.782652855E0,9.890123131E0
8.641432889E0,-9.229812622E0,-2.458237171E0,3.571290970E0,1.019737663E1
8.649670966E0,-1.005678177E1,-2.387868881E0,3.601989031E0,1.094600851E1
8.657884004E0,-1.080722332E1,-2.300673246E0,3.668845177E0,1.164257696E1
8.666096543E0,-1.170076942E1,-2.170528173E0,3.902900219E0,1.252404998E1
8.674337081E0,-1.276091194E1,-1.801418781E0,4.346374512E0,1.360062332E1
8.682561043E0,-1.350679207E1,-1.506219864E0,4.511049271E0,1.431962624E1
8.690774350E0,-1.373585892E1,-1.515176058E0,4.219648361E0,1.444904879E1
8.698987043E0,-1.364440727E1,-1.813164949E0,3.561508894E0,1.421765672E1
8.707199273E0,-1.351963043E1,-2.176355124E0,2.786815166E0,1.397437896E1
8.715413350E0,-1.349312401E1,-2.350596666E0,2.040114403E0,1.384744623E1
8.723625350E0,-1.358231068E1,-2.257165432E0,1.622853518E0,1.386389601E1
8.731865773E0,-1.354097748E1,-2.033252001E0,1.285028934E0,1.375294456E1
8.740078812E0,-1.343298912E1,-1.798007965E0,9.252344370E-1,1.358433245E1
8.748291542E0,-1.316273594E1,-1.539097428E0,6.175535321E-1,1.326679353E1
8.756532350E0,-1.319484615E1,-1.125483871E0,6.971324086E-1,1.326109620E1
8.764745619E0,-1.376261711E1,-5.833827257E-1,1.123225451E0,1.382069465E1
8.772958927E0,-1.403064919E1,-3.889206648E-1,1.463613629E0,1.411214161E1
8.781172427E0,-1.404015732E1,-5.074788332E-1,1.507181168E0,1.412993798E1
8.789387042E0,-1.416397095E1,-6.145806313E-1,1.455705881E0,1.425183714E1
8.797602542E0,-1.435107803E1,-7.203814983E-1,1.235463262E0,1.442216210E1
8.805816965E0,-1.439252090E1,-8.574769497E-1,8.278262615E-1,1.444178732E1
8.814058311E0,-1.450859261E1,-9.166609049E-1,6.183668375E-1,1.455066679E1
8.822271157E0,-1.459411621E1,-8.658069968E-1,6.181116700E-1,1.463283676E1
8.830484234E0,-1.445593548E1,-8.542335033E-1,6.374123096E-1,1.449517437E1
8.838724234E0,-1.424626064E1,-8.373173475E-1,6.015592217E-1,1.428351904E1
8.846937811E0,-1.406722260E1,-8.143658638E-1,6.522077918E-1,1.410586113E1
8.855151157E0,-1.380538368E1,-6.271198392E-1,7.511469126E-1,1.384001877E1
8.863365427E0,-1.333200932E1,-4.000164270E-1,7.766636014E-1,1.336060223E1
8.871579503E0,-1.284096241E1,-1.466358900E-1,7.540797591E-1,1.286392063E1
8.879793542E0,-1.232681370E1,1.410623789E-1,8.464885354E-1,1.235664912E1
8.888006311E0,-1.200233555E1,2.558910847E-1,1.058883429E0,1.205167096E1
8.896246580E0,-1.153904438E1,3.769921064E-1,1.451703072E0,1.163611233E1
8.904459273E0,-1.097973347E1,7.219141722E-1,1.854117513E0,1.115855989E1
8.912672042E0,-1.045545864E1,1.137809753E0,2.071878910E0,1.071932408E1
8.920912042E0,-9.625668526E0,1.606048703E0,2.244479656E0,1.001351966E1
8.929135349E0,-8.529985428E0,2.189636707E0,2.125853539E0,9.059493009E0
8.937349119E0,-7.332111359E0,2.718525887E0,1.793854952E0,8.022976727E0
8.945561695E0,-5.924491882E0,3.452233791E0,1.652108788E0,7.053154306E0
8.953774580E0,-4.748509884E0,4.577769279E0,1.801264763E0,6.837314710E0
8.961988465E0,-3.714219093E0,5.655187607E0,1.980524421E0,7.049755125E0
8.970201080E0,-2.910017014E0,6.664555550E0,1.885345221E0,7.512591184E0
8.978439388E0,-2.203278542E0,7.631775856E0,1.367200732E0,8.060252905E0
8.986650849E0,-1.305844307E0,8.598829269E0,6.336848736E-1,8.720473076E0
8.994863965E0,-1.061544418E-1,9.856260300E0,3.856807202E-2,9.856907393E0
9.003103503E0,1.199785233E0,1.117532921E1,-2.473813444E-1,1.124227135E1
9.011316080E0,2.715889931E0,1.357257462E1,1.120483875E-2,1.384163882E1
9.019529618E0,4.509672165E0,1.611410522E1,1.067131162E-1,1.673358652E1
9.027741734E0,6.743382454E0,1.831841278E1,2.836184502E-1,1.952224099E1
9.035954195E0,8.877645493E0,1.991595078E1,8.678576946E-1,2.182225611E1
9.044165810E0,1.016741943E1,2.017527199E1,1.730503082E0,2.265861114E1
9.052378041E0,1.012805367E1,1.959328842E1,3.929331541E0,2.240343877E1
9.060617695E0,9.389669418E0,1.825701332E1,5.890820980E0,2.135851584E1
9.068830041E0,8.413898468E0,1.701498795E1,7.373001099E0,2.036331622E1
9.077042657E0,7.423240185E0,1.620980072E1,7.564539909E0,1.936709576E1
9.085280926E0,6.504738331E0,1.617572021E1,6.968585968E0,1.877569534E1
9.093492926E0,6.159568310E0,1.669392776E1,5.738175392E0,1.869636764E1
9.101706041E0,6.125668526E0,1.741153526E1,4.745356083E0,1.905790596E1
9.109919810E0,6.612857819E0,1.742917633E1,4.500429153E0,1.917706804E1
9.118133041E0,8.210088730E0,1.607157707E1,4.918915272E0,1.870553057E1
9.126346541E0,1.005474663E1,1.348752689E1,5.972907066E0,1.785180468E1
9.134558579E0,1.148600006E1,1.017143250E1,7.418709755E0,1.704181595E1
9.142797425E0,1.227963161E1,7.156392097E0,8.449300766E0,1.653462984E1
9.151009079E0,1.275200653E1,3.899543762E0,8.640809059E0,1.588973547E1
9.159222118E0,1.300365162E1,5.560131073E-1,7.274577618E0,1.491051929E1
9.167459079E0,1.230914021E1,-2.278848171E0,5.226076126E0,1.356539543E1
9.175680964E0,1.085378265E1,-4.315800667E0,3.201792955E0,1.211124318E1
9.183892695E0,8.888197899E0,-5.555271149E0,1.375610352E0,1.057134822E1
9.192103002E0,7.370588303E0,-6.044136047E0,6.140503883E-1,9.551660084E0
9.200315771E0,5.999444008E0,-5.975880623E0,6.147668362E-1,8.490136388E0
9.208529425E0,5.029500961E0,-5.811158657E0,8.983368874E-1,7.737729255E0
9.216743271E0,4.419992447E0,-5.709883690E0,1.263923645E0,7.330525763E0
9.224984464E0,3.712378979E0,-5.627057076E0,1.482288361E0,6.902369723E0
9.233198502E0,3.138983727E0,-5.701895714E0,1.342464924E0,6.645829191E0
9.241412964E0,2.626609802E0,-5.841740608E0,9.550030231E-1,6.475881651E0
9.249652694E0,2.203128815E0,-6.027470589E0,6.300776005E-1,6.448346769E0
9.257867040E0,1.744564772E0,-6.068958282E0,3.447022438E-1,6.324126858E0
9.266080194E0,1.410105944E0,-5.928548336E0,5.386424065E-2,6.094176360E0
9.274294425E0,1.197901487E0,-5.584440231E0,-2.855697870E-1,5.718609164E0
9.282507425E0,1.100422621E0,-5.169706821E0,-5.251892805E-1,5.311555548E0
9.290721925E0,1.095104933E0,-4.725817204E0,-7.367016077E-1,4.906662034E0
9.298935040E0,1.279684782E0,-4.249423981E0,-7.875137329E-1,4.507258057E0
9.307173925E0,1.742218494E0,-3.677757263E0,-6.533507109E-1,4.121661185E0
9.315387848E0,2.325206041E0,-2.874513149E0,-5.544335842E-1,3.738556617E0
9.323601463E0,2.901914597E0,-1.885500431E0,-6.309475899E-1,3.517714466E0
9.331842732E0,3.510948181E0,-7.177028656E-1,-8.360285759E-1,3.679782373E0
9.340056886E0,4.097807407E0,5.097150803E-1,-1.085659862E0,4.269718064E0
9.348270309E0,4.690165520E0,1.524587631E0,-1.177049279E0,5.070252958E0
9.356484848E0,5.457389832E0,2.331614494E0,-1.190210938E0,6.052778866E0
9.364698771E0,6.249284744E0,2.478040695E0,-9.187914133E-1,6.785161985E0
9.372913117E0,6.556449890E0,2.017304420E0,-4.173996449E-1,6.872464969E0
9.381127425E0,6.202335358E0,1.195189476E0,-2.778339386E-2,6.316503280E0
9.389367694E0,5.731993675E0,2.420902252E-1,5.614662170E-2,5.737378462E0
9.397581732E0,4.970324516E0,-6.370773315E-1,-2.677695751E-1,5.018136494E0
9.405796078E0,4.052157402E0,-1.237225056E0,-8.290395737E-1,4.317176399E0
9.414038232E0,3.110869884E0,-1.270468712E0,-1.165056825E0,3.556537585E0
9.422263847E0,2.350718975E0,-8.625602722E-1,-1.097823381E0,2.734064026E0
9.430478424E0,1.820255756E0,-2.997026443E-1,-6.976690292E-1,1.972281615E0
9.438693809E0,1.226875067E0,3.545856476E-2,-5.475449562E-2,1.228608072E0
9.446909117E0,4.895514250E-1,2.453737259E-1,6.301004887E-1,8.348026646E-1
9.455125694E0,-3.659167290E-1,3.638086319E-1,1.046580315E0,1.166868514E0
9.463341270E0,-1.239509821E0,4.705324173E-1,1.063826561E0,1.699856554E0
9.471584270E0,-1.792933941E0,6.124372482E-1,7.798955441E-1,2.048884711E0
9.479799078E0,-1.998529673E0,8.339729309E-1,3.391571045E-1,2.191953294E0
9.488013809E0,-1.971287251E0,9.414415359E-1,4.879689217E-2,2.185101079E0
9.496255232E0,-1.993046761E0,1.058665276E0,-1.895236969E-2,2.256848854E0
9.504468847E0,-2.307588339E0,1.092837334E0,1.939537525E-1,2.560639654E0
9.512682578E0,-2.799234390E0,9.269075394E-1,3.629634380E-1,2.970961665E0
9.520897655E0,-3.268019915E0,7.368526459E-1,4.740390778E-1,3.383433025E0
9.529111347E0,-3.605724573E0,7.009477615E-1,4.744739532E-1,3.703741756E0
9.537325078E0,-3.922117949E0,9.125251770E-1,4.185695648E-1,4.048569115E0
9.545538501E0,-4.319914818E0,1.262525558E0,3.770434856E-1,4.516391990E0
9.553780693E0,-4.470872879E0,1.496491432E0,4.023094177E-1,4.731811891E0
9.561995193E0,-4.497913837E0,1.567925453E0,5.776064396E-1,4.798254715E0
9.570210885E0,-4.487779140E0,1.555831909E0,9.880032539E-1,4.851486883E0
9.578452462E0,-4.363302231E0,1.392560959E0,1.257166147E0,4.749536725E0
9.586668424E0,-4.146100998E0,1.155930519E0,1.382150888E0,4.520693523E0
9.594883693E0,-3.825328350E0,9.596042633E-1,1.243804932E0,4.135338926E0
9.603099116E0,-3.309319258E0,6.729726791E-1,7.642476559E-1,3.462450094E0
9.611314078E0,-3.010096073E0,3.360347748E-1,2.357177734E-1,3.037953358E0
9.619529116E0,-2.970922470E0,1.844501495E-2,-2.580170631E-1,2.982162529E0
9.627743462E0,-2.799151659E0,-2.328510284E-1,-5.484464169E-1,2.861863568E0
9.635985616E0,-2.459175348E0,-4.854431152E-1,-8.772649765E-1,2.655709369E0
9.644200962E0,-2.145156384E0,-6.614151001E-1,-1.062990904E0,2.483770421E0
9.652415808E0,-1.912708163E0,-8.156309128E-1,-1.142384291E0,2.372498297E0
9.660658539E0,-1.632848263E0,-9.417238235E-1,-1.211817265E0,2.240878911E0
9.668884154E0,-1.207578659E0,-1.084713936E0,-1.263553381E0,2.057041003E0
9.677099000E0,-7.426680326E-1,-1.004935265E0,-1.341915011E0,1.833626622E0
9.685313423E0,-2.366515398E-1,-9.588451385E-1,-1.435217500E0,1.742193222E0
9.693528077E0,1.774655581E-1,-1.106975555E0,-1.515899062E0,1.885428034E0
9.701743270E0,4.329351187E-1,-1.394773960E0,-1.613717914E0,2.176444973E0
9.709959385E0,6.115814447E-1,-1.902144432E0,-1.824368238E0,2.705643135E0
9.718202193E0,7.962150574E-1,-2.376261711E0,-1.941168427E0,3.169970505E0
9.726417000E0,1.036102414E0,-2.819985390E0,-2.071557045E0,3.649270393E0
9.734632731E0,1.320153832E0,-3.172269821E0,-2.081148148E0,4.017123296E0
9.742874539E0,1.328372121E0,-3.515744209E0,-1.898790240E0,4.210752215E0
9.751088923E0,1.294437170E0,-3.880488873E0,-1.660535097E0,4.414876928E0
9.759305500E0,1.446892142E0,-4.332977295E0,-1.574442744E0,4.831879455E0
9.767521769E0,1.391488552E0,-4.778627396E0,-1.545532823E0,5.211544098E0
9.775736885E0,1.005693555E0,-5.222917080E0,-1.600779176E0,5.554527551E0
9.783951000E0,6.661624908E-1,-5.679803371E0,-1.586928248E0,5.934836145E0
9.792165192E0,7.990509868E-1,-6.171888351E0,-1.906143665E0,6.508768852E0
9.800405423E0,1.330880880E0,-6.552607536E0,-2.255471230E0,7.056561479E0
9.808618000E0,1.689436555E0,-6.787503719E0,-2.380024433E0,7.388431425E0
9.816832500E0,2.006523609E0,-6.925565720E0,-2.262213469E0,7.556931077E0
9.825072692E0,2.591560841E0,-7.011347771E0,-2.225437641E0,7.799215207E0
9.833287654E0,3.240954876E0,-6.965050697E0,-2.245984077E0,8.003759379E0
9.841503615E0,3.693174124E0,-6.794437408E0,-2.261971951E0,8.057321634E0
9.849717538E0,4.350787163E0,-6.328449249E0,-2.331904888E0,8.025982759E0
9.857931230E0,5.122615337E0,-5.642992020E0,-2.220736504E0,7.938275471E0
9.866146577E0,6.015004635E0,-4.806116104E0,-1.980766177E0,7.949997950E0
9.874361269E0,6.928813934E0,-3.865454197E0,-1.509959102E0,8.076519992E0
9.882603577E0,7.718151569E0,-2.410000801E0,-9.089195728E-1,8.136590336E0
9.890817653E0,8.298439980E0,-6.583690643E-1,-1.874003410E-1,8.326624455E0
9.899033538E0,8.984601974E0,1.180039406E0,6.583924294E-1,9.085650567E0
9.907277076E0,9.736198425E0,2.764410019E0,1.722757101E0,1.026661651E1
9.915504461E0,1.013107491E1,4.208193779E0,2.537380695E0,1.125992338E1
9.923718884E0,1.042593384E1,4.961384773E0,2.865556955E0,1.189650587E1
9.931934269E0,1.132828331E1,5.268276215E0,2.527682304E0,1.274652560E1
9.940149576E0,1.175327301E1,5.941583633E0,2.495759487E0,1.340412839E1
9.948364153E0,1.141804981E1,6.997880936E0,2.757866859E0,1.367289394E1
9.956578345E0,1.109504890E1,8.206880569E0,2.734774113E0,1.406883038E1
9.964818961E0,1.082346344E1,9.855294228E0,2.806992531E0,1.490481104E1
9.973032499E0,1.036089420E1,1.212973595E1,3.271515608E0,1.628439244E1
9.981245884E0,9.945508957E0,1.449684238E1,4.031566620E0,1.803677124E1
9.989485076E0,9.803190231E0,1.730603790E1,5.055697441E0,2.052222121E1
9.997699922E0,9.844665527E0,2.001805878E1,5.991615295E0,2.309847550E1
1.000591396E1,9.905786514E0,2.196260071E1,6.753338814E0,2.502175097E1
1.001412796E1,9.661431313E0,2.267495346E1,7.113680363E0,2.565348354E1
1.002234215E1,9.035838127E0,2.246766663E1,7.045979500E0,2.522078986E1
1.003055784E1,8.663005829E0,2.198830795E1,6.537957668E0,2.452097566E1
1.003877323E1,8.057002068E0,2.164009285E1,6.238864899E0,2.391928795E1
1.004701419E1,7.631132126E0,2.139073181E1,6.216587543E0,2.354662493E1
1.005522831E1,7.395280838E0,2.093754005E1,6.189874649E0,2.305179625E1
1.006344358E1,7.110657692E0,2.014586639E1,6.291788101E0,2.227114687E1
1.007168469E1,6.178933620E0,1.879887962E1,6.403913498E0,2.079873082E1
1.007990000E1,4.909793854E0,1.701370430E1,6.218688965E0,1.876817258E1
1.008811435E1,3.296076775E0,1.497963238E1,5.702683449E0,1.636380478E1
1.009632946E1,1.401119709E0,1.281802654E1,5.078841209E0,1.385855580E1
1.010454377E1,-7.826375961E-2,1.077686501E1,4.560499668E0,1.170235454E1
1.011275819E1,-1.388362408E0,9.012187958E0,4.176253319E0,1.002936557E1
1.012097400E1,-3.116612434E0,7.726597786E0,4.032917023E0,9.256241469E0
1.012921565E1,-5.040210247E0,5.894240856E0,3.889764786E0,8.676178000E0
1.013743073E1,-6.499042988E0,3.886699677E0,3.673206806E0,8.416438818E0
1.014564515E1,-7.728138447E0,2.257447243E0,3.636272430E0,8.834176198E0
1.015388588E1,-8.726609230E0,7.929425240E-1,3.610785484E0,9.477353972E0
1.016211054E1,-9.152994156E0,-6.352725029E-1,3.711248875E0,9.897183507E0
1.017032558E1,-9.388701439E0,-1.684592247E0,4.242812157E0,1.043968490E1
1.017853996E1,-9.912769318E0,-2.449792385E0,3.840053558E0,1.090919289E1
1.018675234E1,-1.002195740E1,-2.630265951E0,4.057765484E0,1.112759587E1
1.019496546E1,-1.013314915E1,-2.395518541E0,4.245079994E0,1.124455090E1
1.020318011E1,-1.104124069E1,-1.982500315E0,4.586180687E0,1.211909059E1
1.021142165E1,-1.232271004E1,-1.807141542E0,4.760685921E0,1.333338193E1
1.021963588E1,-1.280415058E1,-2.008731842E0,4.545527458E0,1.373474046E1
1.022784969E1,-1.302343178E1,-2.258790016E0,4.173605442E0,1.386112874E1
1.023609042E1,-1.321306229E1,-2.414846182E0,3.575876713E0,1.389976228E1
1.024430442E1,-1.329712009E1,-2.529938221E0,3.012478352E0,1.386683151E1
1.025251765E1,-1.343519783E1,-2.511675119E0,2.481928349E0,1.389147296E1
1.026073115E1,-1.341129112E1,-2.422446012E0,1.897659421E0,1.375979962E1
1.026894373E1,-1.336063671E1,-2.359604597E0,1.350071669E0,1.363440650E1
1.027715865E1,-1.334915638E1,-2.143230915E0,1.079419017E0,1.356313239E1
1.028537142E1,-1.324018669E1,-1.876883268E0,9.566402435E-1,1.340672947E1
1.029361242E1,-1.314219284E1,-1.537420511E0,7.154135704E-1,1.325113999E1
1.030182554E1,-1.296558666E1,-1.297756433E0,3.827292919E-1,1.303599214E1
1.031003988E1,-1.289714432E1,-1.089084625E0,8.851677179E-2,1.294334857E1
1.031828165E1,-1.281654739E1,-9.771296978E-1,-9.151303768E-2,1.285406722E1
1.032649681E1,-1.248829842E1,-1.044215202E0,-1.373392344E-2,1.253188618E1
1.033470904E1,-1.227072811E1,-1.164780140E0,2.536951005E-1,1.232849717E1
1.034292165E1,-1.209568787E1,-1.240016222E0,5.409048796E-1,1.217110855E1
1.035113477E1,-1.189963055E1,-1.382580042E0,5.635296702E-1,1.199292710E1
1.035934788E1,-1.178692055E1,-1.439187527E0,5.037684441E-1,1.188513943E1
1.036756115E1,-1.178759384E1,-1.498990774E0,3.321878612E-1,1.188716496E1
1.037580161E1,-1.194638062E1,-1.528432131E0,1.770464182E-1,1.204505957E1
1.038401427E1,-1.186140823E1,-1.775961399E0,-1.560767293E-1,1.199464064E1
1.039222838E1,-1.165992355E1,-2.111989021E0,-3.220803142E-1,1.185403099E1
1.040046911E1,-1.149310207E1,-2.346913815E0,-2.698038816E-1,1.173337947E1
1.040869311E1,-1.131336308E1,-2.611740112E0,-1.621752977E-1,1.161204854E1
1.041690850E1,-1.107540798E1,-2.701819897E0,-1.299862862E-1,1.140093808E1
1.042512377E1,-1.077970219E1,-2.739972830E0,-1.901537180E-1,1.112409946E1
1.043333831E1,-1.036409092E1,-2.811501265E0,-2.748246193E-1,1.074218081E1
1.044155277E1,-9.895755768E0,-2.882304192E0,-4.282946587E-1,1.031586623E1
1.044976696E1,-9.479922295E0,-2.672795534E0,-5.079363585E-1,9.862594082E0
1.045800857E1,-9.154276848E0,-2.309148788E0,-4.603006840E-1,9.452239388E0
1.046622242E1,-8.750564575E0,-2.017944336E0,-2.590007782E-1,8.983961327E0
1.047443788E1,-8.459771156E0,-1.518453002E0,9.321105480E-2,8.595470658E0
1.048267888E1,-8.106884956E0,-8.286621571E-1,6.177954674E-1,8.172510991E0
1.049089357E1,-7.571629524E0,-3.407979012E-2,1.034785271E0,7.642088435E0
1.049910854E1,-6.872413158E0,7.861571312E-1,1.320920229E0,7.042225210E0
1.050732334E1,-5.984311104E0,1.782116890E0,1.464882612E0,6.413563835E0
1.051553877E1,-5.153095245E0,3.025231838E0,1.448785543E0,6.148609423E0
1.052375280E1,-4.045720100E0,4.121742725E0,8.867752552E-1,5.843199858E0
1.053196642E1,-2.683025837E0,4.999488354E0,-2.276802063E-2,5.673978307E0
1.054020677E1,-1.242319107E0,5.672260284E0,-9.378858805E-1,5.881965949E0
1.054842138E1,5.186319351E-1,6.294143200E0,-1.969827175E0,6.615545088E0
1.055663438E1,1.508337021E0,6.937639713E0,-2.506807804E0,7.529276906E0
1.056487538E1,2.119550705E0,7.963891983E0,-2.154603004E0,8.518120967E0
1.057308950E1,2.951584816E0,9.430131912E0,-1.475536346E0,9.990818201E0
1.058130484E1,4.191982269E0,1.161383247E1,-9.983381033E-1,1.238751384E1
1.058951873E1,5.675375938E0,1.416168308E1,-1.163389325E0,1.530087038E1
1.059773300E1,7.400636673E0,1.620782852E1,-1.232388616E0,1.786006468E1
1.060594927E1,8.810564995E0,1.730823517E1,-6.185178161E-1,1.943151112E1
1.061416477E1,9.001197815E0,1.775204086E1,1.109158874E0,1.993456170E1
1.062240684E1,8.517240524E0,1.724305153E1,3.249137402E0,1.950443811E1
1.063062104E1,7.892492771E0,1.642385101E1,5.143424511E0,1.893380944E1
1.063883604E1,7.391489029E0,1.563090134E1,5.983537197E0,1.829649978E1
1.064707573E1,6.968840599E0,1.513556957E1,5.634271145E0,1.758963379E1
1.065530127E1,6.561375141E0,1.496656227E1,4.689557076E0,1.700122277E1
1.066351496E1,6.786832809E0,1.458352089E1,3.999366045E0,1.657513529E1
1.067172830E1,7.679936409E0,1.364325333E1,3.726763248E0,1.609374254E1
1.067994157E1,8.706637383E0,1.246376228E1,4.014393806E0,1.572470230E1
1.068815465E1,9.874928474E0,1.092975712E1,4.649700165E0,1.544647256E1
1.069636838E1,1.058943939E1,9.143177986E0,5.352584362E0,1.497945559E1
1.070460784E1,1.089037704E1,6.898745537E0,5.621260643E0,1.406383921E1
1.071282292E1,1.079871845E1,4.260168076E0,5.260871887E0,1.274512163E1
1.072103742E1,1.033512306E1,1.723046303E0,4.994435310E0,1.160724090E1
1.072927757E1,9.547252655E0,-5.861558914E-1,4.495401382E0,1.056892831E1
1.073749138E1,8.612560272E0,-2.667692184E0,3.685228109E0,9.740312226E0
1.074570454E1,7.426787853E0,-4.214982510E0,2.911899090E0,9.022328507E0
1.075391861E1,6.372901917E0,-5.591557503E0,2.281182528E0,8.779703177E0
1.076213238E1,5.156753063E0,-6.406980515E0,1.855340004E0,8.431120210E0
1.077034461E1,4.239419460E0,-6.651457787E0,1.913295031E0,8.116357922E0
1.077855834E1,3.742166519E0,-6.577755928E0,2.218349934E0,7.886175228E0
1.078679807E1,3.200076342E0,-6.311728477E0,2.797728539E0,7.609578828E0
1.079501096E1,2.797873020E0,-6.169286728E0,3.255063295E0,7.515559143E0
1.080322373E1,2.467721701E0,-6.170019150E0,3.404012203E0,7.466330141E0
1.081146350E1,2.006672859E0,-6.218134880E0,3.414930105E0,7.372495166E0
1.081967842E1,1.399668455E0,-6.089055538E0,3.221076727E0,7.029296153E0
1.082789315E1,9.010479450E-1,-5.901652336E0,2.657326937E0,6.534735966E0
1.083610711E1,8.004000187E-1,-5.597641468E0,1.863527894E0,5.953735500E0
1.084432153E1,1.031643391E0,-5.127640247E0,1.175904989E0,5.360945358E0
1.085253523E1,1.281118155E0,-4.628255367E0,5.967611074E-1,4.839228791E0
1.086074873E1,1.571692705E0,-4.036560535E0,2.486953139E-1,4.338880993E0
1.086899046E1,1.961188197E0,-3.294389725E0,-3.052496910E-2,3.834083277E0
1.087720538E1,2.360291958E0,-2.425327778E0,-2.087180018E-1,3.390686680E0
1.088541869E1,2.639503479E0,-1.636711121E0,-3.440807462E-1,3.124770946E0
1.089365773E1,2.874766588E0,-6.832466125E-1,-5.432755351E-1,3.004373009E0
1.090188192E1,3.454069138E0,1.240253448E-2,-7.237412930E-1,3.529100295E0
1.091009538E1,3.996146441E0,4.504966736E-1,-6.297359467E-1,4.070466925E0
1.091825423E1,4.491936684E0,4.261054993E-1,-5.332692862E-1,4.543504946E0
1.092646796E1,4.840847969E0,2.323875427E-1,-1.657623053E-1,4.849256662E0
1.093468192E1,4.859323502E0,1.325607300E-1,2.143923044E-1,4.865856687E0
1.094289600E1,4.592432022E0,4.483890533E-2,4.527907372E-1,4.614917319E0
1.095113584E1,4.088446617E0,8.710098267E-2,5.641353130E-1,4.128102588E0
1.095934807E1,3.533550978E0,1.627798080E-1,5.462207794E-1,3.579222949E0
1.096756038E1,3.014980793E0,4.200534821E-1,5.672583580E-1,3.096503860E0
1.097579888E1,2.484681129E0,7.001161575E-1,5.194745064E-1,2.633183760E0
1.098401015E1,2.220151901E0,7.280998230E-1,3.048892021E-1,2.356302451E0
1.099222300E1,2.205428123E0,7.559633255E-1,3.052625656E-1,2.351293047E0
1.100043569E1,1.832356334E0,7.464418411E-1,3.139894009E-1,2.003320868E0
1.100864876E1,1.374876380E0,4.974946976E-1,6.327533722E-2,1.463485498E0
1.101686184E1,9.128214121E-1,3.269290924E-2,-1.449182034E-1,9.248313589E-1
1.102507380E1,5.579240322E-1,-3.162946701E-1,-2.374227047E-1,6.838794373E-1
1.103331261E1,4.391939640E-1,-4.633426666E-1,-2.833185196E-1,6.984605560E-1
1.104152419E1,5.160708427E-1,-4.331903458E-1,-3.665201664E-1,7.670202232E-1
1.104973626E1,2.853300571E-1,-2.584524155E-1,-2.828326225E-1,4.777082634E-1
1.105797569E1,-1.862473488E-1,-5.123329163E-2,6.680798531E-2,2.043923482E-1
1.106618884E1,-8.704830408E-1,1.439666748E-1,5.485963821E-1,1.038953858E0
1.107440353E1,-1.561398029E0,3.279905319E-1,8.561780453E-1,1.810685627E0
1.108261784E1,-2.175515175E0,4.764375687E-1,8.254365921E-1,2.375122018E0
1.109083250E1,-2.685330153E0,5.991973877E-1,7.288010120E-1,2.846258325E0
1.109904792E1,-3.236488819E0,7.976846695E-1,6.986999512E-1,3.405780723E0
1.110726150E1,-3.710353136E0,1.214541435E0,6.899232864E-1,3.964571280E0
1.111550261E1,-3.987506390E0,1.719219208E0,7.389783859E-1,4.404771384E0
1.112371830E1,-4.117463112E0,2.176723480E0,8.463423252E-1,4.733700764E0
1.113193346E1,-4.248230457E0,2.484849930E0,1.154629469E0,5.055206267E0
1.114017446E1,-4.256188393E0,2.724439621E0,1.473030329E0,5.263794186E0
1.114840015E1,-4.178806782E0,2.874961853E0,1.545240641E0,5.302414583E0
1.115661700E1,-3.905319691E0,3.088992119E0,1.583918571E0,5.225149973E0
1.116483157E1,-3.785471201E0,3.219938278E0,1.680070400E0,5.245991925E0
1.117304519E1,-3.590215683E0,3.104643822E0,1.697087288E0,5.040691140E0
1.118125965E1,-3.601242065E0,2.843583107E0,1.589124918E0,4.855947622E0
1.118947419E1,-3.811157227E0,2.409962654E0,1.370043039E0,4.712733530E0
1.119771630E1,-4.045339584E0,1.931155205E0,1.093441248E0,4.614081332E0
1.120593100E1,-4.248991013E0,1.551371574E0,8.247618675E-1,4.597924589E0
1.121414511E1,-4.356091499E0,1.226136208E0,4.702792168E-1,4.549736882E0
1.122238426E1,-4.428658485E0,9.561023712E-1,2.478218079E-1,4.537462217E0
1.123059711E1,-4.521546364E0,8.065404892E-1,1.887207031E-1,4.596792859E0
1.123881003E1,-4.396130085E0,5.700864792E-1,7.716798782E-2,4.433611758E0
1.124702234E1,-3.971307278E0,2.659959793E-1,-1.102790833E-1,3.981732893E0
1.125523503E1,-3.496160746E0,3.562259674E-2,-4.468413591E-1,3.524780295E0
1.126344734E1,-2.940628529E0,-1.255626678E-1,-7.225700617E-1,3.030704476E0
1.127166092E1,-2.352553606E0,-3.373813629E-1,-1.058247209E0,2.601580636E0
1.127990115E1,-1.694685936E0,-4.749717712E-1,-1.356307387E0,2.221964971E0
1.128811322E1,-1.036053419E0,-6.744451523E-1,-1.543910980E0,1.977863510E0
1.129632519E1,-2.003912926E-1,-9.164485931E-1,-1.681183577E0,1.925204642E0
1.130456415E1,5.382263660E-1,-1.209594727E0,-1.771597385E0,2.211642901E0
1.131277696E1,1.332740784E0,-1.487075806E0,-1.866817713E0,2.733605828E0
1.132099092E1,2.178780079E0,-1.867293358E0,-2.108850718E0,3.561055808E0
1.132920376E1,2.985463142E0,-2.333687305E0,-2.319094896E0,4.442666739E0
1.133741676E1,3.710793018E0,-2.789608002E0,-2.500183582E0,5.272837526E0
1.134562969E1,4.295764446E0,-3.319332123E0,-2.679586649E0,6.054068263E0
1.135384257E1,4.879946709E0,-3.827477932E0,-2.837102413E0,6.820015931E0
1.136208319E1,5.299495697E0,-4.379343033E0,-2.963564396E0,7.486388580E0
1.137029488E1,5.634973526E0,-4.859943867E0,-3.049962997E0,8.042030547E0
1.137850876E1,5.999801636E0,-5.372919559E0,-3.075639486E0,8.621220477E0
1.138674930E1,6.282640934E0,-5.776656628E0,-3.116501570E0,9.085918827E0
1.139497476E1,6.409687996E0,-6.105401993E0,-3.178676844E0,9.405531361E0
1.140318734E1,6.668862343E0,-6.421894073E0,-3.205394030E0,9.797397579E0
1.141140046E1,7.038328171E0,-6.738066196E0,-3.250866652E0,1.027169575E1
1.141961472E1,7.330186367E0,-6.932062149E0,-3.323095322E0,1.062205631E1
1.142782896E1,7.647775650E0,-7.001139641E0,-3.299552917E0,1.088078481E1
1.143604372E1,7.989021301E0,-6.985750198E0,-3.203307867E0,1.108541152E1
1.144428534E1,8.316475868E0,-6.770956993E0,-3.016533852E0,1.114042665E1
1.145249996E1,8.730353355E0,-6.622510910E0,-2.855008364E0,1.132377116E1
1.146071392E1,9.054792404E0,-6.267348289E0,-2.508526802E0,1.129431834E1
1.146895346E1,9.490090370E0,-5.617780685E0,-2.016837597E0,1.121110650E1
1.147716769E1,9.545791626E0,-4.985698223E0,-1.653620124E0,1.089558553E1
1.148538134E1,9.400547028E0,-4.149298668E0,-1.088750601E0,1.033307030E1
1.149359630E1,9.400688171E0,-2.829655170E0,-2.214312553E-1,9.819822721E0
1.150181053E1,9.684406281E0,-1.008084297E0,5.521686077E-1,9.752376589E0
1.151002407E1,1.016207886E1,5.937995911E-1,1.409677982E0,1.027655763E1
1.151823684E1,1.054173565E1,2.500124931E0,2.723543406E0,1.117123556E1
1.152647599E1,1.089303017E1,4.612819672E0,3.867494583E0,1.244563079E1
1.153469184E1,1.170463562E1,6.270434380E0,4.365182400E0,1.397754126E1
1.154290842E1,1.308178902E1,7.209201813E0,4.427846909E0,1.557920482E1
1.155115126E1,1.433429718E1,8.250887871E0,4.612936020E0,1.717056799E1
1.155936761E1,1.541049004E1,1.011879730E1,4.789867878E0,1.904773205E1
1.156758372E1,1.621695137E1,1.266444206E1,4.249256134E0,2.101032561E1
1.157580068E1,1.657395554E1,1.509228325E1,3.372677565E0,2.266821497E1
1.158401626E1,1.651468468E1,1.813654327E1,3.333862305E0,2.475446727E1
1.159223192E1,1.604944229E1,2.114071274E1,4.621316433E0,2.694199136E1
1.160044888E1,1.508220863E1,2.366155434E1,6.568524361E0,2.881818320E1
1.160869188E1,1.361470032E1,2.580014420E1,8.181757927E0,3.029766770E1
1.161690880E1,1.206312370E1,2.739719009E1,8.642986298E0,3.115808387E1
1.162512526E1,1.055984592E1,2.769978333E1,7.994763374E0,3.070349465E1
1.163336857E1,8.929338455E0,2.687600708E1,7.077097893E0,2.919140552E1
1.164159634E1,7.128496170E0,2.568756485E1,6.586871147E0,2.746003126E1
1.164981149E1,5.550546646E0,2.471498680E1,6.556632996E0,2.616540802E1
1.165802592E1,3.897769928E0,2.361744118E1,6.869053841E0,2.490301265E1
1.166623976E1,2.555953979E0,2.276495743E1,7.560955048E0,2.412352024E1
1.167445522E1,1.206380844E0,2.206474876E1,8.298881531E0,2.360465902E1
1.168266992E1,9.451203346E-1,2.038781166E1,8.230216980E0,2.200664873E1
1.169091149E1,7.817749977E-1,1.776814461E1,7.711386681E0,1.938513914E1
1.169912688E1,1.402468681E-1,1.495707417E1,7.373583794E0,1.667643471E1
1.170733945E1,-1.027515411E0,1.229822731E1,6.862734318E0,1.412088188E1
1.171557957E1,-2.540974617E0,9.944511414E0,5.870990753E0,1.182448272E1
1.172379280E1,-3.855190277E0,8.265371323E0,4.930185318E0,1.036752538E1
1.173200492E1,-5.913546085E0,6.820412636E0,3.973699093E0,9.862978268E0
1.174021772E1,-8.236862183E0,5.691522121E0,3.496486902E0,1.060493957E1
1.174842888E1,-1.040380669E1,4.575972080E0,3.244683743E0,1.181975832E1
1.175664176E1,-1.199035454E1,3.518774986E0,2.920804977E0,1.283282826E1
1.176485472E1,-1.315734673E1,2.697893143E0,2.868170738E0,1.373392892E1
1.177309434E1,-1.452409077E1,1.872975349E0,3.278555393E0,1.500687092E1
1.178130653E1,-1.385493851E1,1.750891209E0,3.286973238E0,1.434674646E1
1.178951919E1,-1.353186607E1,2.209658861E0,3.404886246E0,1.412753489E1
1.179775949E1,-1.410403538E1,2.225283146E0,4.395764828E0,1.493982756E1
1.180597303E1,-1.436616707E1,2.142179966E0,4.615883350E0,1.524080281E1
1.181418642E1,-1.467303848E1,1.945162058E0,4.934573650E0,1.560229890E1
1.182239842E1,-1.522331810E1,1.984166861E0,5.159259319E0,1.619581084E1
1.183061018E1,-1.560920334E1,1.902752995E0,4.992618561E0,1.649830106E1
1.183882295E1,-1.570292091E1,1.820862770E0,4.574503899E0,1.645671147E1
1.184703553E1,-1.573766041E1,2.177457571E0,4.152856827E0,1.642137316E1
1.185527542E1,-1.547573471E1,2.394217491E0,3.639063358E0,1.607710871E1
1.186348822E1,-1.533789444E1,2.373280048E0,3.401045084E0,1.588869320E1
1.187170245E1,-1.539403439E1,2.319550514E0,3.469866753E0,1.594981456E1
1.187994318E1,-1.526620960E1,2.177420139E0,3.508014202E0,1.581469183E1
1.188816626E1,-1.498323631E1,2.015122175E0,3.280450344E0,1.546995288E1
1.189637972E1,-1.481365776E1,1.973892927E0,2.966367722E0,1.523614279E1
1.190459365E1,-1.482297897E1,2.130037785E0,2.709447861E0,1.521837292E1
1.191280672E1,-1.499984360E1,2.341747999E0,2.640172243E0,1.540939976E1
1.192102026E1,-1.519871616E1,2.572341919E0,2.870464802E0,1.567984324E1
1.192923438E1,-1.535764503E1,2.787222862E0,3.112668514E0,1.591585931E1
1.193747411E1,-1.539322853E1,3.044469357E0,3.431353331E0,1.606220607E1
1.194568703E1,-1.529855919E1,3.102750540E0,3.590954781E0,1.601773799E1
1.195390026E1,-1.528252029E1,3.008182287E0,3.557630301E0,1.597689959E1
1.196214153E1,-1.543694019E1,2.869500160E0,3.508840084E0,1.608866410E1
1.197035534E1,-1.555439758E1,2.737542152E0,3.458923340E0,1.616779428E1
1.197856949E1,-1.551633167E1,2.613213062E0,3.291642666E0,1.607545777E1
1.198678145E1,-1.528474617E1,2.508836031E0,2.917214394E0,1.576159457E1
1.199499453E1,-1.486480522E1,2.406188965E0,2.570993900E0,1.527619682E1
1.200320688E1,-1.453018570E1,2.216659546E0,2.272869825E0,1.487298939E1
1.201142114E1,-1.414954948E1,1.922248602E0,2.032207489E0,1.442340659E1
1.201966149E1,-1.360910606E1,1.699023128E0,1.899668932E0,1.384569209E1
1.202787522E1,-1.293735123E1,1.673735499E0,1.697157025E0,1.315510506E1
1.203609065E1,-1.216407394E1,1.884580970E0,1.632983446E0,1.241704374E1
1.204433180E1,-1.118048191E1,2.329272747E0,1.808231354E0,1.156280191E1
1.205254526E1,-9.930723190E0,3.128888845E0,2.225767136E0,1.064721784E1
1.206075911E1,-8.607419968E0,4.260763168E0,2.678561687E0,9.970781012E0
1.206897365E1,-7.501407623E0,5.137336254E0,2.830623150E0,9.522382451E0
1.207718895E1,-6.107870102E0,6.103362560E0,2.699641705E0,9.046832432E0
1.208540299E1,-4.243453026E0,7.089508057E0,2.320128918E0,8.582017028E0
1.209361791E1,-2.078313351E0,8.291132927E0,1.456141353E0,8.670791154E0
1.210185884E1,-2.610445023E-1,9.590026855E0,-1.507017016E-1,9.594762651E0
1.211007307E1,1.078996658E0,1.073181438E1,-2.000777721E0,1.096992184E1
1.211828764E1,1.796702385E0,1.138293839E1,-3.200232983E0,1.195997144E1
1.212652784E1,2.630331993E0,1.228833389E1,-2.739827156E0,1.286189912E1
1.213475241E1,3.848194122E0,1.364418983E1,-1.445518017E0,1.424998374E1
1.214296595E1,5.084939003E0,1.619046021E1,4.321132302E-1,1.697569816E1
1.215117864E1,7.113622665E0,1.863944817E1,2.253551960E0,2.007762814E1
1.215939326E1,9.971988678E0,2.008132172E1,3.428750753E0,2.268163071E1
1.216760718E1,1.221384048E1,2.079534531E1,3.669225693E0,2.439441541E1
1.217582138E1,1.295717144E1,2.126012611E1,3.816169500E0,2.518817984E1
1.218406207E1,1.307199383E1,2.069199753E1,4.087098122E0,2.481411202E1
1.219227638E1,1.247084236E1,1.922209930E1,5.080481529E0,2.346960382E1
1.220049038E1,1.099758244E1,1.760043144E1,6.396875381E0,2.171732076E1
1.220873241E1,1.000024986E1,1.665426254E1,7.364007950E0,2.077493854E1
1.221694691E1,9.006408691E0,1.632223892E1,7.651943684E0,2.015150424E1
1.222516064E1,8.447682381E0,1.611767769E1,6.861064434E0,1.944780391E1
1.223337488E1,8.687258720E0,1.566779423E1,5.867608070E0,1.885144728E1
1.224158838E1,9.365384102E0,1.483991814E1,5.553611279E0,1.840587373E1
1.224980214E1,1.031500244E1,1.312482643E1,5.870249271E0,1.769520191E1
1.225801553E1,1.107608604E1,1.053125191E1,6.422624111E0,1.657821007E1
1.226625480E1,1.202594566E1,7.232178688E0,6.756020546E0,1.557470999E1
1.227446880E1,1.280070305E1,4.263355255E0,6.764968872E0,1.509301164E1
1.228268211E1,1.297711658E1,1.351413727E0,6.285889626E0,1.448255096E1
1.229092218E1,1.253964424E1,-1.077116966E0,5.236299992E0,1.363164320E1
1.229913526E1,1.167025757E1,-3.101958752E0,3.745460749E0,1.264300344E1
1.230734795E1,1.060755730E1,-4.565962791E0,2.580719471E0,1.183335967E1
1.231556276E1,9.398807526E0,-5.504121780E0,1.974283218E0,1.106936013E1
1.232377788E1,8.125997543E0,-5.936282635E0,1.942112923E0,1.024905314E1
1.233199288E1,7.015270233E0,-6.027471542E0,2.250869751E0,9.518972858E0
1.234020926E1,6.057319641E0,-5.921519279E0,2.571627617E0,8.852614326E0
1.234845164E1,5.428201199E0,-5.744360924E0,2.677958250E0,8.344729538E0
1.235666764E1,4.929656506E0,-5.768120766E0,2.529167414E0,7.998088411E0
1.236488403E1,4.416221619E0,-5.823030472E0,2.203337669E0,7.633177199E0
1.237312641E1,3.709943295E0,-5.869998932E0,1.757683754E0,7.163101206E0
1.238135349E1,2.975147486E0,-5.929350853E0,1.429020286E0,6.786074202E0
1.238956868E1,2.404232979E0,-5.852496147E0,1.363069177E0,6.472248832E0
1.239778460E1,2.126610756E0,-5.581142902E0,1.228469849E0,6.097603429E0
1.240599880E1,2.002999306E0,-5.144782066E0,1.007159114E0,5.612054723E0
1.241421388E1,1.985992551E0,-4.685160160E0,7.742334604E-1,5.147264282E0
1.242242876E1,2.493798733E0,-4.108551502E0,5.330641270E-1,4.835636972E0
1.243066884E1,3.272853136E0,-3.485680103E0,2.330486774E-1,4.787049730E0
1.243888361E1,4.026542664E0,-2.808532715E0,6.372487545E-2,4.909680508E0
1.244709718E1,4.903941154E0,-2.227186203E0,7.230091095E-2,5.386485371E0
1.245533703E1,5.810137749E0,-1.642865181E0,1.282329559E-1,6.039300485E0
1.246355034E1,6.703333855E0,-1.086397171E0,1.855063438E-1,6.793331744E0
1.247176353E1,7.362688541E0,-6.561298370E-1,3.293194771E-1,7.399198621E0
1.247997787E1,7.678095818E0,-4.156103134E-1,4.234294891E-1,7.700985641E0
1.248819253E1,7.968321800E0,-5.287618637E-1,2.217363119E-1,7.988924109E0
1.249640699E1,7.963513851E0,-8.145580292E-1,-9.971368313E-2,8.005685508E0
1.250462199E1,7.562689304E0,-1.085526466E0,-3.397216797E-1,7.647747907E0
1.251286253E1,6.443769932E0,-1.008329391E0,-3.092603683E-1,6.529513081E0
1.252107711E1,5.318531513E0,-5.802659988E-1,-2.110888958E-1,5.354254814E0
1.252928987E1,4.261807442E0,-2.264547348E-1,4.345774651E-2,4.268040885E0
1.253752991E1,3.031113148E0,8.983230591E-2,5.247108936E-1,3.077505204E0
1.254574311E1,1.759958267E0,4.526271820E-1,1.140162706E0,2.145296125E0
1.255395641E1,7.076476216E-1,7.438039780E-1,1.580079556E0,1.884319749E0
1.256217007E1,3.416049480E-2,1.154091835E0,1.718039989E0,2.069965292E0
1.257038230E1,-5.306314826E-1,1.652657509E0,1.613590717E0,2.369920171E0
1.257859560E1,-8.872112036E-1,1.887003899E0,1.322854280E0,2.469386742E0
1.258680695E1,-1.563233614E0,2.000866890E0,1.208041430E0,2.811855569E0
1.259504787E1,-2.385373354E0,1.984345436E0,1.266393423E0,3.351325879E0
1.260326026E1,-3.028676987E0,1.707879066E0,9.849421978E-1,3.613840938E0
1.261147303E1,-3.471079588E0,1.244825363E0,4.300761223E-1,3.712539449E0
1.261971191E1,-4.000476837E0,9.063062668E-1,-2.640433311E-1,4.110343642E0
1.262793387E1,-4.587784290E0,8.465843201E-1,-7.230355740E-1,4.720937422E0
1.263614710E1,-5.132098675E0,1.031823158E0,-9.599136114E-1,5.322079479E0
1.264435972E1,-5.568978786E0,1.174498558E0,-7.855389118E-1,5.745436708E0
1.265257249E1,-5.533767223E0,1.230840683E0,-4.360079765E-1,5.685741062E0
1.266078649E1,-5.008608341E0,1.200952530E0,8.091044426E-2,5.151212575E0
1.266899968E1,-4.464046478E0,1.217455864E0,5.078074932E-1,4.654866077E0
1.267723830E1,-3.931276560E0,1.103582382E0,6.573736668E-1,4.135815470E0
1.268545045E1,-3.307052612E0,9.088611603E-1,5.461771488E-1,3.472885697E0
1.269366387E1,-2.851418972E0,8.674316406E-1,3.929812908E-1,3.006237200E0
1.270190368E1,-2.523168325E0,8.982591629E-1,1.628189087E-1,2.683236464E0
1.271011718E1,-2.305540562E0,8.250036240E-1,-1.108307838E-1,2.451210257E0
1.271833010E1,-2.054952383E0,6.270170212E-1,-3.738830090E-1,2.180772374E0
1.272654310E1,-1.798759460E0,4.868030548E-1,-5.232634544E-1,1.935540610E0
1.273475607E1,-1.513270497E0,4.405860901E-1,-6.456134319E-1,1.703208855E0
1.274296822E1,-1.296807528E0,3.832502365E-1,-6.884472370E-1,1.517415601E0
1.275118126E1,-1.167740583E0,3.193426132E-1,-7.037482262E-1,1.400306874E0
1.275942084E1,-1.017207623E0,3.013744354E-1,-7.401978970E-1,1.293611543E0
1.276763464E1,-6.555681229E-1,2.145271301E-1,-9.021778107E-1,1.135656751E0
1.277584922E1,-2.056219578E-1,7.507228851E-2,-1.132727623E0,1.153684578E0
1.278409003E1,1.378384829E-1,-1.461210251E-1,-1.335529327E0,1.350551512E0
1.279230249E1,4.038854837E-1,-4.300127029E-1,-1.534163117E0,1.643682110E0
1.280051653E1,6.846464872E-1,-7.569913864E-1,-1.764237046E0,2.038212238E0
1.280872972E1,9.601386786E-1,-1.064745903E0,-2.026497364E0,2.482386289E0
1.281694403E1,1.146337628E0,-1.415594578E0,-2.191304207E0,2.849528398E0
1.282515749E1,1.390082479E0,-1.744861126E0,-2.282174349E0,3.191424354E0
1.283337114E1,1.708432317E0,-2.024128914E0,-2.346310616E0,3.538504253E0
1.284161230E1,2.161804676E0,-2.331444263E0,-2.494586945E0,4.041286408E0
1.284982537E1,2.654484272E0,-2.630671024E0,-2.690021992E0,4.604664494E0
1.285803891E1,3.195235729E0,-2.833267689E0,-2.759987354E0,5.084728838E0
1.286627933E1,3.664763451E0,-3.027705193E0,-2.805444479E0,5.519783384E0
1.287450499E1,4.000625610E0,-3.192121029E0,-2.738558292E0,5.804682890E0
1.288271933E1,4.333077908E0,-3.455522060E0,-2.619413853E0,6.130051043E0
1.289093326E1,4.754382610E0,-3.799097538E0,-2.459219456E0,6.563920813E0
1.289914830E1,5.167231083E0,-4.115561962E0,-2.285653591E0,6.990160203E0
1.290736272E1,5.470536709E0,-4.448480606E0,-2.121694088E0,7.363242315E0
1.291557860E1,5.715459824E0,-4.752704144E0,-1.968982816E0,7.689705521E0
1.292381987E1,5.931386948E0,-5.044380188E0,-1.793298960E0,7.990184213E0
1.293203456E1,6.104019642E0,-5.398606300E0,-1.683381557E0,8.320924182E0
1.294024872E1,6.123565197E0,-5.719362259E0,-1.558430552E0,8.522784824E0
1.294848964E1,6.108830929E0,-5.970760345E0,-1.461276412E0,8.666205812E0
1.295670495E1,6.005625725E0,-6.142939568E0,-1.416161180E0,8.706822576E0
1.296492033E1,5.911741734E0,-6.196054459E0,-1.398017287E0,8.677224989E0
1.297313522E1,5.811173439E0,-6.146245003E0,-1.273708224E0,8.553852758E0
1.298135064E1,5.598901272E0,-5.819658756E0,-9.771595001E-1,8.134553717E0
1.298956349E1,5.454130650E0,-5.524454117E0,-6.771395206E-1,7.792666576E0
1.299777760E1,5.489730358E0,-5.104330063E0,-4.652073383E-1,7.510508815E0
1.300601826E1,5.745750427E0,-4.605955601E0,-3.635482788E-1,7.372966996E0
1.301423318E1,6.075184345E0,-3.995131969E0,-1.196231842E-1,7.272087320E0
1.302244768E1,6.408859730E0,-3.290412903E0,1.877565384E-1,7.206632544E0
1.303069049E1,6.726456165E0,-2.372169018E0,6.396484375E-1,7.161113637E0
1.303890726E1,6.915653706E0,-1.324016571E0,1.316985369E0,7.163360700E0
1.304712341E1,7.083645821E0,1.046676636E-1,1.832575083E0,7.317603765E0
1.305533860E1,7.721014023E0,1.671229362E0,2.464166403E0,8.275214872E0
1.306355364E1,8.141187668E0,3.295726776E0,3.159325838E0,9.333921543E0
1.307176887E1,8.315247536E0,4.554528236E0,3.580104828E0,1.013430903E1
1.307998491E1,8.666434288E0,5.726065636E0,3.676424026E0,1.101866619E1
1.308822580E1,9.132554054E0,7.172224998E0,3.685702085E0,1.218313403E1
1.309644064E1,9.749496460E0,8.753728867E0,3.604154587E0,1.358934806E1
1.310465664E1,1.030586147E1,1.025133228E1,3.771121264E0,1.501738825E1
1.311290076E1,1.045062351E1,1.180998039E1,4.303221703E0,1.634652519E1
1.312112833E1,1.063801765E1,1.370938206E1,4.759501457E0,1.799353857E1
1.312934430E1,1.084013939E1,1.536609650E1,5.141167641E0,1.949505446E1
1.313756133E1,1.069202518E1,1.745849991E1,6.051963806E0,2.134818230E1
1.314577722E1,1.045974159E1,2.009865379E1,6.789736748E0,2.365296184E1
1.315399295E1,1.068041611E1,2.259290695E1,7.120472431E0,2.598483905E1
1.316220910E1,1.053432655E1,2.469554520E1,7.838529587E0,2.796934991E1
1.317045418E1,1.003582001E1,2.572254562E1,8.744393349E0,2.896258710E1
1.317867037E1,8.653257370E0,2.556271935E1,9.425805092E0,2.858631290E1
1.318688614E1,7.225672245E0,2.495938110E1,9.576419830E0,2.769275828E1
1.319512895E1,6.164208889E0,2.391217041E1,9.023330688E0,2.629087031E1
1.320334514E1,5.085849762E0,2.280435181E1,8.470785141E0,2.485273687E1
1.321156149E1,4.019875526E0,2.120516396E1,8.151134491E0,2.307074709E1
1.321977645E1,3.093323231E0,1.909251785E1,7.975026131E0,2.092113592E1
1.322799080E1,1.980090141E0,1.658515167E1,7.715329647E0,1.839875878E1
1.323620595E1,9.524478912E-1,1.384857559E1,7.241946220E0,1.565681922E1
1.324442114E1,-3.866262436E-1,1.129595375E1,6.532257080E0,1.305444114E1
1.325266483E1,-1.557988167E0,9.246360779E0,5.825123787E0,1.103877629E1
1.326088041E1,-2.332173347E0,6.758426189E0,4.846689224E0,8.637462215E0
1.326909649E1,-3.303460598E0,4.420338154E0,4.037187099E0,6.837479140E0
1.327733826E1,-4.288199902E0,2.363212585E0,3.377645493E0,5.948270437E0
1.328555376E1,-5.331735611E0,5.939888954E-1,2.798804760E0,6.050911958E0
1.329376987E1,-6.159462929E0,-7.538461685E-1,2.042493343E0,6.532920226E0
1.330198468E1,-7.599808693E0,-1.680883884E0,1.938003302E0,8.021117104E0
1.331020029E1,-9.351013184E0,-2.177487612E0,1.911241531E0,9.789573231E0
1.331841633E1,-1.066098309E1,-2.289495945E0,1.967736363E0,1.108017773E1
1.332663252E1,-1.132171631E1,-1.930469513E0,2.010755301E0,1.165980744E1
1.333487599E1,-1.174937057E1,-1.109318018E0,2.033239841E0,1.197548995E1
1.334309291E1,-1.200308418E1,-2.444412708E-1,2.129523277E0,1.219297547E1
1.335130856E1,-1.247412491E1,5.165989399E-1,2.547174454E0,1.274200786E1
1.335955114E1,-1.299829388E1,1.187027693E0,3.127320290E0,1.342180355E1
1.336777814E1,-1.320032597E1,1.398762226E0,3.317368031E0,1.368247317E1
1.337599472E1,-1.329936409E1,1.364466906E0,3.229678392E0,1.375375140E1
1.338420979E1,-1.376161194E1,1.345203876E0,3.250641823E0,1.420416167E1
1.339242526E1,-1.423167038E1,1.293107510E0,3.043218374E0,1.461074081E1
1.340064018E1,-1.432879639E1,1.043554902E0,2.624168158E0,1.460444012E1
1.340885506E1,-1.450801086E1,7.407383919E-1,1.847667336E0,1.464393892E1
1.341709772E1,-1.493589687E1,6.182982922E-1,9.669790268E-1,1.497993180E1
1.342531233E1,-1.530546474E1,4.593894482E-1,6.275543571E-2,1.531248601E1
1.343352764E1,-1.566980362E1,2.231512070E-1,-6.860895753E-1,1.568640369E1
1.344176960E1,-1.577561188E1,1.317477226E-2,-9.507564306E-1,1.580424125E1
1.344998487E1,-1.583573341E1,3.482699394E-2,-9.474073648E-1,1.586408669E1
1.345820149E1,-1.576273251E1,1.761476994E-1,-1.037220359E0,1.579780333E1
1.346641579E1,-1.539166641E1,3.879830837E-1,-1.175286531E0,1.544134788E1
1.347463172E1,-1.503083611E1,7.020014524E-1,-1.128537416E0,1.508948100E1
1.348284737E1,-1.486140060E1,1.033993602E0,-7.317681909E-1,1.491528932E1
1.349106349E1,-1.460273361E1,1.182105541E0,-4.551455975E-1,1.465757006E1
1.349930660E1,-1.429021263E1,1.085158825E0,-4.160735011E-1,1.433739390E1
1.350752183E1,-1.401692390E1,9.296844006E-1,-3.709571958E-1,1.405261819E1
1.351573764E1,-1.385670090E1,7.572537661E-1,-2.184209228E-1,1.387909582E1
1.352397991E1,-1.373763084E1,5.944743156E-1,-1.020779610E-1,1.375086618E1
1.353219622E1,-1.382496452E1,5.052210093E-1,1.011593938E-1,1.383456272E1
1.354041222E1,-1.395126820E1,3.500423431E-1,9.956568480E-2,1.395601402E1
1.354862695E1,-1.397773170E1,1.404939890E-1,-8.699774742E-3,1.397844047E1
1.355684164E1,-1.403872108E1,9.338819981E-2,-1.090200543E-1,1.403945499E1
1.356505529E1,-1.381346416E1,1.615500450E-2,-4.483604431E-1,1.382074818E1
1.357326910E1,-1.336682129E1,-1.420277357E-1,-7.194125652E-1,1.338692040E1
1.358150983E1,-1.298640919E1,-2.499353886E-1,-6.012853980E-1,1.300272415E1
1.358972502E1,-1.246351624E1,-2.694143057E-1,-2.603662610E-1,1.246914639E1
1.359793968E1,-1.156345749E1,-4.397034645E-2,5.779784918E-2,1.156368553E1
1.360618037E1,-1.072853470E1,3.993866444E-1,5.075541139E-1,1.074795691E1
1.361440522E1,-9.785383224E0,1.116172910E0,1.390644193E0,9.946529952E0
1.362261976E1,-8.806038857E0,2.042973518E0,2.378614902E0,9.347613064E0
1.363083514E1,-7.672259331E0,2.971162558E0,3.116471291E0,8.797940866E0
1.363904937E1,-6.826739311E0,3.769841671E0,3.532293797E0,8.561143341E0
1.364726522E1,-5.828530312E0,4.731350422E0,3.857706785E0,8.440340280E0
1.365547972E1,-4.409331799E0,5.898064613E0,3.869169474E0,8.318644451E0
1.366372095E1,-2.986162663E0,7.110739231E0,3.135565758E0,8.325355997E0
