"Time (s)","Linear Acceleration x (m/s^2)","Linear Acceleration y (m/s^2)","Linear Acceleration z (m/s^2)","Absolute acceleration (m/s^2)"
1.950230500E-2,-7.157850266E-1,-1.160647869E-1,-6.627887487E-3,7.251642351E-1
2.771545800E-2,-5.545501709E-1,-3.930747509E-2,-2.094488144E-1,5.940873467E-1
3.592803500E-2,-2.450561523E-1,8.658337593E-2,1.093202084E-1,2.819576329E-1
4.414218900E-2,-1.215744019E-2,4.393219948E-3,6.535697579E-1,6.536975847E-1
5.235492000E-2,-2.069950104E-2,-1.432958841E-1,7.623649836E-1,7.759913324E-1
6.056765100E-2,-7.923030853E-2,-2.150167227E-1,5.310796499E-1,5.784074925E-1
6.878165100E-2,-5.354881287E-3,-2.114241123E-1,5.587853491E-2,2.187492644E-1
7.699476600E-2,3.567390442E-1,-2.248289585E-1,-1.771224141E-1,4.573654511E-1
8.520884300E-2,7.722282410E-1,-2.933349609E-1,-1.842851490E-1,8.463704104E-1
9.342245800E-2,9.459476471E-1,-4.769519567E-1,8.785948157E-3,1.059423104E0
1.016352270E-1,7.891607285E-1,-7.593106031E-1,2.321633250E-1,1.119476242E0
1.098473040E-1,4.516048431E-1,-9.817907810E-1,4.776391387E-1,1.181524108E0
1.180601500E-1,3.266611099E-1,-9.895124435E-1,5.121440887E-1,1.161091695E0
1.262793430E-1,3.648252487E-1,-8.056497574E-1,5.891226530E-1,1.062654457E0
1.344931890E-1,3.955516815E-1,-6.798725128E-1,5.433552265E-1,9.559930275E-1
1.427068430E-1,4.821405411E-1,-5.398678780E-1,4.570617080E-1,8.560503676E-1
1.509205350E-1,3.452243805E-1,-4.115216732E-1,3.476923108E-1,6.398592841E-1
1.591349580E-1,-3.698472977E-1,-2.602703571E-1,3.541731834E-2,4.536320853E-1
1.673487270E-1,-8.163681030E-1,-2.000911236E-1,-1.768512130E-1,8.589352065E-1
1.755618810E-1,-8.493881226E-1,-7.655882835E-2,-3.268195987E-1,9.133085388E-1
1.837743040E-1,-7.253513336E-1,-2.634239197E-2,-5.348796248E-1,9.016233648E-1
1.919874580E-1,-5.034885406E-1,-7.117271423E-2,-5.495786071E-1,7.487342060E-1
2.001999960E-1,-3.028535843E-1,-1.772260666E-1,-6.218617558E-1,7.140318029E-1
2.084131500E-1,-2.309427261E-1,-1.902329922E-1,-7.728016376E-1,8.287010952E-1
2.166259960E-1,-3.188896179E-1,-2.262089252E-1,-7.046002150E-1,8.058055157E-1
2.248389580E-1,-4.897031784E-1,-3.462855816E-1,-5.710206032E-1,8.281228388E-1
2.330524580E-1,-4.053106308E-1,-2.682595253E-1,-5.720558167E-1,7.506582030E-1
2.412648810E-1,-6.672763824E-2,-1.521542072E-1,-4.146563411E-1,4.467027666E-1
2.494787650E-1,1.928081512E-1,-2.563548088E-2,-1.328998357E-1,2.355727645E-1
2.576933810E-1,3.144769669E-1,1.311151981E-1,6.458967179E-2,3.467834823E-1
2.659069580E-1,2.246904373E-1,2.496802807E-1,4.069622457E-1,5.276782207E-1
2.741189580E-1,2.544355392E-1,3.161928654E-1,5.567857623E-1,6.890034520E-1
2.823329190E-1,2.889404297E-1,4.022405148E-1,5.839215517E-1,7.656685851E-1
2.905459960E-1,3.399095535E-1,3.758237362E-1,6.682131886E-1,8.386243800E-1
2.987588800E-1,5.878601074E-1,3.230943680E-1,7.787749767E-1,1.027842372E0
3.069730340E-1,6.858482361E-1,2.861106396E-1,7.413783073E-1,1.049708958E0
3.151867270E-1,6.928939819E-1,1.569252014E-1,1.037583113E0,1.257500022E0
3.234009570E-1,7.113866806E-1,1.650571823E-2,1.209693193E0,1.403460391E0
3.316133030E-1,5.433225632E-1,-6.375598907E-2,1.226016641E0,1.342527853E0
3.398262260E-1,5.154266357E-1,-7.203388214E-2,1.408032537E0,1.501135944E0
3.480394960E-1,4.104623795E-1,6.731510162E-3,1.494271755E0,1.549636330E0
3.562528800E-1,3.701047897E-1,1.945679188E-1,1.464251876E0,1.522782908E0
3.644657260E-1,4.345712662E-1,1.681141853E-1,1.737174511E0,1.798579953E0
3.726858420E-1,6.015901566E-1,7.595324516E-2,1.997301459E0,2.087317113E0
3.809256110E-1,6.610927582E-1,-1.263237000E-2,1.932202697E0,2.042207255E0
3.891372650E-1,7.528581619E-1,-1.025381088E-1,1.904978514E0,2.050915067E0
3.973493030E-1,5.660886765E-1,-1.731305122E-1,1.552335739E0,1.661377986E0
4.055625720E-1,3.430099487E-1,-1.858470440E-1,1.099763393E0,1.166908081E0
4.137763030E-1,2.504816055E-1,-2.649972439E-1,8.725632429E-1,9.456908516E-1
4.219902260E-1,1.029434204E-1,-3.234281540E-1,6.119932532E-1,6.998134470E-1
4.302042650E-1,-2.048587799E-2,-2.734184265E-1,1.946054697E-1,3.362270007E-1
4.384171490E-1,-7.493686676E-2,-3.161439896E-1,-1.150906086E-3,3.249059567E-1
4.466301110E-1,1.675968170E-1,-4.477829933E-1,-1.613414884E-1,5.046081431E-1
4.548423030E-1,4.586429596E-1,-4.901700020E-1,-3.518272042E-1,7.578933809E-1
4.630554180E-1,6.911945343E-1,-6.447305679E-1,-2.074778080E-1,9.677160897E-1
4.712671880E-1,5.687074661E-1,-7.343308926E-1,-2.045452595E-1,9.510566781E-1
4.794796870E-1,4.046001434E-1,-7.614514828E-1,-1.684498191E-1,8.785698482E-1
4.876916110E-1,4.045085907E-1,-7.126951218E-1,-1.076871157E-1,8.265337570E-1
4.959013030E-1,5.768699646E-1,-7.026896477E-1,-3.877484798E-2,9.099753765E-1
5.041121870E-1,9.402122498E-1,-7.497913837E-1,-4.655301571E-2,1.203475541E0
5.123242640E-1,1.246101379E0,-8.891091347E-1,2.644038200E-1,1.553445551E0
5.205365720E-1,1.484320164E0,-9.534890652E-1,5.734230280E-1,1.855036850E0
5.287493030E-1,9.693956375E-1,-1.198078632E0,8.117735386E-1,1.741865836E0
5.369611100E-1,5.095901489E-1,-8.417284489E-1,7.525888681E-1,1.238781218E0
5.451725330E-1,2.128887177E-2,-3.821008205E-1,2.509685755E-1,4.576455823E-1
5.533845720E-1,-2.481508255E-1,-2.147495747E-1,2.557610273E-1,4.160647968E-1
5.615970330E-1,-4.433212280E-1,-3.114178181E-1,6.346265078E-1,8.344252950E-1
5.698095330E-1,-5.220193863E-1,-3.265185356E-1,8.237093687E-1,1.028404452E0
5.780209950E-1,-2.340679169E-1,-2.268311977E-1,8.576357365E-1,9.174852797E-1
5.862330330E-1,2.155857086E-1,-1.620504856E-1,1.104739428E0,1.137183697E0
5.944436870E-1,4.797334671E-1,-1.038556099E-1,1.328478456E0,1.416257460E0
6.026555720E-1,4.993457794E-1,-5.922150612E-2,1.504447699E0,1.586258577E0
6.108668790E-1,6.279459000E-1,-3.169989586E-2,1.574718475E0,1.695599957E0
6.190849560E-1,5.574350357E-1,2.290487289E-3,1.504124403E0,1.604097654E0
6.272976870E-1,2.635974884E-1,-8.627653122E-2,1.298771501E0,1.328056733E0
6.355088790E-1,7.706165314E-2,-2.894706726E-1,1.192442179E0,1.229491813E0
6.437223020E-1,3.929996490E-2,-4.859640598E-1,9.491885900E-1,1.067082253E0
6.519348020E-1,-1.281452179E-2,-5.737955570E-1,6.805987358E-1,8.902921950E-1
6.601463790E-1,4.647922516E-2,-6.518526077E-1,5.906060934E-1,8.808448775E-1
6.683586480E-1,5.289077759E-2,-7.400460243E-1,5.920226574E-1,9.491872204E-1
6.765709560E-1,-2.059745789E-2,-7.869341373E-1,5.923849344E-1,9.851951595E-1
6.847834560E-1,-3.317165375E-2,-7.724750042E-1,5.338158607E-1,9.395623257E-1
6.929951100E-1,1.790657043E-1,-7.945065498E-1,5.423306227E-1,9.784823394E-1
7.012069940E-1,5.298509598E-1,-8.224122524E-1,6.402349472E-1,1.169189779E0
7.094180710E-1,8.724451065E-1,-9.057521820E-1,6.961297989E-1,1.437408841E0
7.176291480E-1,1.078860283E0,-8.877124786E-1,5.945049524E-1,1.518357367E0
7.258403790E-1,1.117189407E0,-7.224919796E-1,2.533838749E-1,1.354367092E0
7.340514170E-1,1.018382072E0,-4.388029575E-1,-1.262836456E-1,1.116063457E0
7.422636100E-1,8.186326027E-1,-1.959190369E-1,-4.422621727E-1,9.508624699E-1
7.504753790E-1,7.561397552E-1,4.013347626E-2,-6.062562466E-1,9.700024030E-1
7.586875330E-1,6.228933334E-1,3.338251114E-1,-6.887602806E-1,9.868262431E-1
7.668989940E-1,4.906225204E-1,5.901300907E-1,-7.217998505E-1,1.053545920E0
7.751098400E-1,4.770641327E-1,8.280220032E-1,-6.461561918E-1,1.153572039E0
7.833210320E-1,6.590685844E-1,1.062381983E0,-6.008311510E-1,1.387092264E0
7.915318020E-1,7.613863945E-1,1.393907070E0,-5.444201231E-1,1.679011445E0
7.997429940E-1,7.186989784E-1,1.732303381E0,-6.554986238E-1,1.986726370E0
8.079553400E-1,6.187133789E-1,2.128519058E0,-8.474502563E-1,2.373093248E0
8.161664940E-1,5.390443802E-1,2.544649124E0,-1.079562187E0,2.816249727E0
8.243792250E-1,3.177795410E-1,2.971653700E0,-1.290000200E0,3.255120592E0
8.325905710E-1,-1.422710419E-1,3.254595280E0,-1.375934839E0,3.536358037E0
8.408043020E-1,-4.612045288E-1,3.501041889E0,-1.296473145E0,3.761761096E0
8.490188010E-1,-4.154005051E-1,3.884458065E0,-1.118531823E0,4.063580377E0
8.572324940E-1,5.486488342E-3,4.313851357E0,-8.759154081E-1,4.401882714E0
8.654521090E-1,6.034517288E-1,4.653126717E0,-4.892711639E-1,4.717534155E0
8.736642630E-1,1.254628181E0,4.844386101E0,-6.575274467E-2,5.004647040E0
8.818739550E-1,1.831799984E0,4.904129028E0,1.337065697E-1,5.236778605E0
8.900869170E-1,2.321428299E0,4.965231419E0,8.174777031E-2,5.481718260E0
8.982996090E-1,2.607581615E0,5.011837482E0,-1.947205067E-1,5.652956121E0
9.065121470E-1,2.623314381E0,5.007508755E0,-7.014595270E-1,5.696399542E0
9.147243010E-1,2.462080956E0,4.990902901E0,-1.219593167E0,5.697224051E0
9.229366470E-1,2.265132904E0,5.024574757E0,-1.808377028E0,5.800638416E0
9.311488780E-1,2.053978920E0,5.132910728E0,-2.342522860E0,6.004416316E0
9.393609930E-1,1.548626423E0,5.120831013E0,-2.644161463E0,5.967641402E0
9.475727240E-1,1.173467159E0,4.974637032E0,-2.671566725E0,5.767261702E0
9.557845700E-1,9.099149704E-1,4.615819931E0,-2.249498606E0,5.214785026E0
9.639968390E-1,7.357463837E-1,4.164171696E0,-1.497350454E0,4.485945501E0
9.722081090E-1,3.027086258E-1,3.695781708E0,-7.334692478E-1,3.780001598E0
9.804204930E-1,-6.600694656E-1,3.252292871E0,-1.397645473E-1,3.321541020E0
9.886321090E-1,-2.305631638E0,2.769499063E0,1.152801514E-2,3.603636386E0
9.968428780E-1,-4.510463715E0,2.326638937E0,-9.069967270E-2,5.075998236E0
1.005055685E0,-6.840776443E0,1.915726662E0,-2.288053036E-1,7.107642567E0
1.013266301E0,-8.923188210E0,1.584781170E0,-3.754756451E-1,9.070600925E0
1.021476685E0,-1.077233696E1,1.336569071E0,-4.750068188E-1,1.086532521E1
1.029688301E0,-1.154266071E1,1.152755976E0,-1.445815563E-1,1.160098127E1
1.037899262E0,-1.122906876E1,1.058172464E0,7.268426418E-1,1.130221281E1
1.046110762E0,-1.044710732E1,6.638116837E-1,2.046029329E0,1.066625207E1
1.054320685E0,-9.790837288E0,-3.937759399E-1,3.654385567E0,1.045801550E1
1.062531262E0,-9.678014755E0,-1.976959705E0,4.963483334E0,1.105479561E1
1.070742647E0,-1.009642410E1,-3.740132809E0,5.277325153E0,1.199068530E1
1.078953378E0,-1.088209915E1,-5.194293499E0,4.593774796E0,1.290362483E1
1.087164685E0,-1.234219742E1,-6.561557770E0,3.216626167E0,1.434331068E1
1.095375685E0,-1.439703274E1,-7.586668491E0,1.796832323E0,1.637255926E1
1.103587877E0,-1.674959946E1,-8.106150627E0,5.792174339E-1,1.861704200E1
1.111805916E0,-1.859136581E1,-8.067466736E0,-3.286721706E-1,2.026896464E1
1.120018608E0,-1.940415192E1,-7.568673134E0,-7.613748312E-1,2.084191969E1
1.128229723E0,-1.912008286E1,-6.873516560E0,-4.329683781E-1,2.032265386E1
1.136440223E0,-1.793077278E1,-6.183199406E0,2.146697044E-1,1.896814832E1
1.144652454E0,-1.654552269E1,-5.612509727E0,6.218032837E-1,1.748259780E1
1.152863877E0,-1.475635433E1,-4.950996876E0,7.902595997E-1,1.558482831E1
1.161074185E0,-1.292639923E1,-4.181850433E0,5.183815956E-1,1.359589606E1
1.169286031E0,-1.100962067E1,-3.280851603E0,-7.521104813E-2,1.148831542E1
1.177497762E0,-8.849674225E0,-2.199006081E0,-5.651696920E-1,9.136289094E0
1.185710608E0,-6.521819115E0,-9.880287647E-1,-8.364088535E-1,6.649052953E0
1.193923762E0,-4.211229324E0,1.682672501E-1,-6.744226217E-1,4.268209480E0
1.202136877E0,-1.940923691E0,1.063929796E0,-1.205844879E-1,2.216680402E0
1.210348569E0,6.141948700E-2,1.694868565E0,6.988298893E-1,1.834315954E0
1.218560069E0,2.377794743E0,2.323263168E0,1.856002092E0,3.807387996E0
1.226772146E0,4.427624702E0,2.604671001E0,2.926721573E0,5.912179860E0
1.234985377E0,6.443766594E0,2.639548302E0,3.866486549E0,7.964864179E0
1.243198031E0,8.578885078E0,2.620120764E0,4.398143291E0,9.990293610E0
1.251410454E0,1.034764290E1,2.699360609E0,4.435827255E0,1.157742738E1
1.259623992E0,1.123338509E1,2.688431501E0,4.407273769E0,1.236287452E1
1.267837377E0,1.134987259E1,2.626194715E0,4.287308216E0,1.241360214E1
1.276050531E0,1.089474487E1,2.592853785E0,4.237815380E0,1.197403173E1
1.284264031E0,1.022791576E1,2.595841408E0,4.213257790E0,1.136222666E1
1.292476454E0,9.371857643E0,2.495966673E0,4.071316242E0,1.051842104E1
1.300689800E0,8.502577782E0,2.292927265E0,3.924439669E0,9.641191373E0
1.308901838E0,7.898175240E0,1.745529175E0,3.897796631E0,8.978912116E0
1.317113915E0,8.217786789E0,9.417027831E-1,4.070697308E0,9.218969596E0
1.325327377E0,9.364863396E0,1.290041208E-1,4.488983631E0,1.038596565E1
1.333541146E0,1.051188278E1,-6.833021641E-1,4.825189114E0,1.158658843E1
1.341754107E0,1.107800102E1,-1.333817363E0,4.758686543E0,1.213038635E1
1.349967261E0,1.121573353E1,-1.779500484E0,4.088519573E0,1.206960202E1
1.358186184E0,1.123201466E1,-1.860955715E0,2.954919338E0,1.176234916E1
1.366400223E0,1.116606903E1,-1.752573013E0,1.640356064E0,1.142118110E1
1.374613876E0,1.100389481E1,-1.654012442E0,3.177314997E-1,1.113204435E1
1.382827646E0,1.067921638E1,-1.513934612E0,-9.294260740E-1,1.082596386E1
1.391040799E0,1.040084076E1,-1.349299431E0,-1.942508340E0,1.066636940E1
1.399253261E0,1.042313385E1,-1.179060936E0,-2.594668150E0,1.080574878E1
1.407466338E0,1.096908474E1,-1.041982293E0,-2.725057602E0,1.135043991E1
1.415677684E0,1.156714058E1,-9.654297233E-1,-2.408970356E0,1.185470092E1
1.423890069E0,1.215493011E1,-1.086545587E0,-1.556498170E0,1.230225971E1
1.432103453E0,1.243307972E1,-1.182515740E0,-7.575351000E-1,1.251214107E1
1.440317107E0,1.242789364E1,-1.263034225E0,-1.785275936E-1,1.249318486E1
1.448531684E0,1.227117634E1,-1.262608528E0,2.625947297E-1,1.233875622E1
1.456745145E0,1.234620285E1,-1.161670804E0,5.431669950E-1,1.241262399E1
1.464957799E0,1.252859020E1,-1.171081424E0,8.451935649E-1,1.261155646E1
1.473170376E0,1.256691837E1,-1.380857706E0,1.071349740E0,1.268786805E1
1.481384876E0,1.252101803E1,-1.545662761E0,1.143405557E0,1.266776784E1
1.489599876E0,1.236697292E1,-1.577639580E0,1.087151647E0,1.251450617E1
1.497812453E0,1.203061104E1,-1.692190886E0,8.833014965E-1,1.218110559E1
1.506027261E0,1.093492889E1,-1.848086596E0,7.054647803E-1,1.111241533E1
1.514240991E0,9.415242195E0,-2.041146278E0,7.850210667E-1,9.665884429E0
1.522454107E0,7.522156715E0,-2.300389051E0,1.292967796E0,7.971599410E0
1.530667683E0,4.944482803E0,-2.746424198E0,2.100517511E0,6.033484059E0
1.538881491E0,2.043226719E0,-3.772250414E0,3.165750742E0,5.331662627E0
1.547095760E0,-1.384363174E-1,-5.322370529E0,4.034259796E0,6.679973411E0
1.555309376E0,-2.001246452E0,-7.267508984E0,4.327966213E0,8.692120900E0
1.563524337E0,-3.732680321E0,-8.747593880E0,4.032553673E0,1.033028510E1
1.571738376E0,-5.752966881E0,-9.945480347E0,3.072369099E0,1.189321904E1
1.579951876E0,-8.396676064E0,-1.010349178E1,1.015779853E0,1.317636231E1
1.588165068E0,-1.165156269E1,-8.366450310E0,-1.859510303E0,1.446423805E1
1.596379183E0,-1.505581379E1,-5.356699944E0,-4.317577362E0,1.655334520E1
1.604599337E0,-1.762449265E1,-2.594774485E0,-4.672930717E0,1.841716257E1
1.612812452E0,-1.848610306E1,-1.567747712E0,-2.771552086E0,1.875834055E1
1.621025375E0,-1.808098221E1,-2.019600391E0,9.162527323E-1,1.821648216E1
1.629238952E0,-1.659312820E1,-3.793952227E0,4.528474331E0,1.761343399E1
1.637452375E0,-1.470026112E1,-5.987772942E0,6.262888432E0,1.706384696E1
1.645665491E0,-1.315252209E1,-7.457005978E0,4.798571110E0,1.586259941E1
1.653877914E0,-1.227736473E1,-6.998548508E0,6.555840969E-1,1.414719606E1
1.662091760E0,-1.216027355E1,-4.694853306E0,-4.116685390E0,1.366971101E1
1.670306068E0,-1.226644135E1,-1.467127681E0,-7.910419941E0,1.466945093E1
1.678520414E0,-1.207446003E1,1.053637266E0,-9.258505821E0,1.525197255E1
1.686735375E0,-1.116757011E1,2.909910202E0,-8.155073166E0,1.413107986E1
1.694949644E0,-9.365094185E0,3.713155031E0,-5.066183567E0,1.127646777E1
1.703164337E0,-6.913170815E0,4.114792824E0,-1.605200529E0,8.203665000E0
1.711377837E0,-4.345359802E0,4.512762547E0,1.220883846E0,6.382611924E0
1.719591606E0,-1.946169853E0,4.884838581E0,3.092050552E0,6.100000138E0
1.727806106E0,-1.148939133E-1,5.232812881E0,4.137363434E0,6.671829393E0
1.736020567E0,1.108901024E0,5.559650421E0,4.493442535E0,7.233975401E0
1.744235683E0,1.595695019E0,5.747712612E0,4.441090107E0,7.436781845E0
1.752450260E0,1.748205185E0,5.817825317E0,3.989795923E0,7.267859678E0
1.760665452E0,1.778387070E0,5.650031090E0,3.248031616E0,6.755384613E0
1.768879452E0,2.257390022E0,5.367416382E0,2.445230961E0,6.315387778E0
1.777093683E0,2.910584927E0,5.037896156E0,1.772345781E0,6.082196303E0
1.785307606E0,3.708901882E0,4.649779320E0,1.178829432E0,6.063500616E0
1.793521990E0,4.502130032E0,4.426860809E0,7.053215504E-1,6.353247196E0
1.801736721E0,4.815371990E0,4.420845032E0,3.093856573E-1,6.544264488E0
1.809951798E0,4.765758991E0,4.518052578E0,8.620023727E-3,6.566988059E0
1.818166182E0,4.623092651E0,4.690663338E0,-4.224514961E-2,6.586128822E0
1.826381952E0,4.362755775E0,4.828798771E0,9.722876549E-2,6.508485919E0
1.834596605E0,4.064100742E0,4.651497841E0,3.057014942E-1,6.184399762E0
1.842810105E0,3.600882053E0,4.245045185E0,4.750274420E-1,5.586806893E0
1.851030721E0,3.301209450E0,3.674584150E0,4.361456633E-1,4.958908705E0
1.859244875E0,2.899170399E0,2.897506237E0,3.826613426E-1,4.116692981E0
1.867459644E0,2.368032455E0,1.789385080E0,6.235364676E-1,3.032865708E0
1.875673451E0,1.773859978E0,5.026018620E-1,1.109780788E0,2.151929657E0
1.883887221E0,1.065005302E0,-5.509862900E-1,1.489651680E0,1.912298176E0
1.892100951E0,-7.390308380E-2,-1.578257084E0,1.727943659E0,2.341398381E0
1.900314451E0,-1.530914307E0,-2.362696171E0,1.721537471E0,3.299958041E0
1.908527105E0,-3.024005890E0,-2.936021328E0,1.722340584E0,4.553162631E0
1.916740144E0,-4.558100700E0,-3.215984583E0,1.694020391E0,5.829969461E0
1.924953759E0,-5.864266396E0,-3.130278587E0,1.317195535E0,6.776670899E0
1.933167374E0,-6.364463806E0,-2.583491087E0,7.267880440E-1,6.907173561E0
1.941381643E0,-5.757613182E0,-1.606243134E0,2.779600620E-1,5.983927502E0
1.949598643E0,-4.532716751E0,-6.708705425E-1,8.501458168E-2,4.582882926E0
1.957814643E0,-2.606170654E0,5.396103859E-2,2.760667801E-1,2.621306953E0
1.966030413E0,-6.559276581E-1,4.547624588E-1,7.241292000E-1,1.077688770E0
1.974260182E0,9.158201218E-1,5.998294353E-1,1.111537337E0,1.560140090E0
1.982475797E0,2.073120594E0,5.744452477E-1,1.203302503E0,2.464904309E0
1.990690989E0,2.930677414E0,3.061511517E-1,1.115263104E0,3.150620641E0
1.998906143E0,3.438215733E0,2.440690994E-3,1.012272000E0,3.584135598E0
2.007121451E0,3.495070457E0,-3.176753521E-1,1.027322888E0,3.656750942E0
2.015336643E0,3.203198910E0,-4.761679173E-1,1.277604103E0,3.481305988E0
2.023552797E0,2.837275505E0,-6.117286682E-1,1.817116618E0,3.424362285E0
2.031767758E0,2.354996681E0,-7.521464825E-1,2.484885216E0,3.505194465E0
2.039981489E0,1.884859562E0,-7.667222023E-1,2.964366198E0,3.595556349E0
2.048196258E0,1.457398415E0,-7.095856667E-1,3.076674938E0,3.477563893E0
2.056410028E0,1.043571472E0,-5.735239983E-1,2.784609795E0,3.028534778E0
2.064624028E0,6.393709183E-1,-3.585276604E-1,2.248184681E0,2.364671566E0
2.072836835E0,1.783885956E-1,-2.407479286E-1,1.586883307E0,1.614924359E0
2.081049758E0,-4.950370789E-1,-2.296862602E-1,9.569325447E-1,1.101606728E0
2.089263681E0,-1.197533607E0,-1.697528362E-1,1.660420895E-1,1.220849189E0
2.097483874E0,-1.751495361E0,-2.254366875E-2,-6.111773252E-1,1.855204016E0
2.105699412E0,-1.920372963E0,2.457687855E-1,-1.292998791E0,2.328106631E0
2.113913720E0,-1.769907951E0,5.249509811E-1,-1.852676630E0,2.615446116E0
2.122126874E0,-1.603861809E0,7.508404255E-1,-2.232589483E0,2.849664866E0
2.130341681E0,-1.368981361E0,9.356367588E-1,-2.503607273E0,3.002927820E0
2.138554950E0,-1.144547462E0,1.180281401E0,-2.695777178E0,3.157573067E0
2.146768758E0,-1.017701149E0,1.463348389E0,-2.843664408E0,3.356118502E0
2.154980912E0,-9.747514725E-1,1.865620375E0,-2.914624691E0,3.595235306E0
2.163193720E0,-9.828691483E-1,2.262558460E0,-2.980473042E0,3.868904509E0
2.171406681E0,-9.100570679E-1,2.540304184E0,-2.967979670E0,4.011265702E0
2.179619758E0,-8.355607986E-1,2.822655201E0,-2.890969276E0,4.125923847E0
2.187832489E0,-5.856084824E-1,3.066445351E0,-2.788652897E0,4.186001596E0
2.196044373E0,-2.203865051E-1,3.317814827E0,-2.524718523E0,4.175005276E0
2.204257642E0,1.161794662E-1,3.484515190E0,-2.215794086E0,4.130991069E0
2.212469450E0,4.713420868E-1,3.629689217E0,-2.054041624E0,4.197129277E0
2.220681181E0,7.533502579E-1,3.778835058E0,-2.068218470E0,4.373174893E0
2.228893642E0,9.813370705E-1,4.032426834E0,-2.239261150E0,4.715694977E0
2.237105488E0,1.010370255E0,4.341242790E0,-2.520253420E0,5.120440832E0
2.245318642E0,7.345604897E-1,4.644099236E0,-2.837006330E0,5.491433487E0
2.253531104E0,4.709234238E-1,4.994717598E0,-2.908465147E0,5.798977691E0
2.261743219E0,4.965815544E-1,5.305402756E0,-2.743688345E0,5.993472898E0
2.269955719E0,6.185154915E-1,5.629809856E0,-2.490730047E0,6.187168706E0
2.278168642E0,9.448442459E-1,5.998183250E0,-2.212216616E0,6.462571880E0
2.286382604E0,1.384158611E0,6.386009216E0,-2.037291527E0,6.844528146E0
2.294596527E0,1.764192581E0,6.727619648E0,-1.780549645E0,7.179387065E0
2.302809681E0,1.922054291E0,6.907841206E0,-1.672612906E0,7.362757415E0
2.311021719E0,1.781671524E0,7.030093193E0,-1.609595537E0,7.428819658E0
2.319235604E0,1.307373047E0,7.026355743E0,-1.525324464E0,7.307907637E0
2.327449757E0,1.039408684E0,6.782126427E0,-1.454184532E0,7.013719551E0
2.335662873E0,9.094352722E-1,6.543822289E0,-1.522417665E0,6.779855323E0
2.343880834E0,8.810539246E-1,6.275067806E0,-1.677855492E0,6.554992833E0
2.352092296E0,7.139372826E-1,5.992595673E0,-1.880848885E0,6.321273753E0
2.360303757E0,4.602007866E-1,5.628641129E0,-2.053488731E0,6.009176457E0
2.368516103E0,7.172012329E-2,5.214622498E0,-1.913055897E0,5.554927041E0
2.376725834E0,-5.163841248E-1,4.670804024E0,-1.728932738E0,5.007221905E0
2.384937334E0,-1.432347298E0,3.981904030E0,-1.450882792E0,4.473504148E0
2.393148103E0,-2.764650345E0,3.136813164E0,-1.239865065E0,4.361210122E0
2.401360296E0,-4.726794243E0,2.110883236E0,-1.042236328E0,5.280593566E0
2.409572296E0,-7.248887062E0,8.968789577E-1,-8.383651972E-1,7.352116138E0
2.417784065E0,-9.510337830E0,-1.495761871E-1,-8.505765200E-1,9.549470094E0
2.425996642E0,-1.223319054E1,-1.176176071E0,-1.006449699E0,1.233074539E1
2.434208795E0,-1.491226101E1,-1.885143757E0,-1.268138885E0,1.508434525E1
2.442421449E0,-1.710233879E1,-2.128547192E0,-1.248094559E0,1.727942260E1
2.450632334E0,-1.872853088E1,-2.159487247E0,-5.079841614E-1,1.885946187E1
2.458843988E0,-1.932828903E1,-2.279819727E0,9.004466534E-1,1.948309881E1
2.467056757E0,-1.929661942E1,-2.597090960E0,2.712150574E0,1.965859006E1
2.475268218E0,-1.899900246E1,-3.360395193E0,4.456872940E0,1.980197128E1
2.483479718E0,-1.867240524E1,-4.493600845E0,5.589722633E0,2.000240399E1
2.491691218E0,-1.848737335E1,-6.139563560E0,6.192625046E0,2.044078812E1
2.499902218E0,-1.838217545E1,-7.615564346E0,5.575534821E0,2.066368271E1
2.508113295E0,-1.817305183E1,-8.572855949E0,4.204698563E0,2.052883733E1
2.516324795E0,-1.795085335E1,-8.935617447E0,2.596165180E0,2.021925985E1
2.524536410E0,-1.773485565E1,-8.699424744E0,9.446048737E-1,1.977618199E1
2.532746103E0,-1.714024353E1,-7.813397408E0,-2.673883438E-1,1.883901865E1
2.540957603E0,-1.570779228E1,-6.460444450E0,-5.089385509E-1,1.699208932E1
2.549169680E0,-1.394099522E1,-5.117858887E0,-1.009988785E-1,1.485106151E1
2.557381487E0,-1.151180267E1,-3.601916313E0,9.716233015E-1,1.210121704E1
2.565593718E0,-8.968708038E0,-2.212153435E0,2.576761246E0,9.590153555E0
2.573804987E0,-6.287375450E0,-9.826152325E-1,4.001407623E0,7.517172721E0
2.582015564E0,-3.477716446E0,7.889115810E-2,5.068649292E0,6.147515038E0
2.590233487E0,-6.931734085E-1,9.775912166E-1,5.849289417E0,5.970792296E0
2.598446295E0,1.993314266E0,1.407689810E0,6.374576569E0,6.825695481E0
2.606659256E0,4.377772331E0,1.616495728E0,6.468426704E0,7.976120176E0
2.614871410E0,5.852152824E0,1.705848694E0,6.301945686E0,8.767675398E0
2.623084256E0,7.158431530E0,1.457657576E0,6.043150425E0,9.480905792E0
2.631296872E0,8.256252289E0,8.055946827E-1,5.796880245E0,1.012020283E1
2.639508910E0,9.351042747E0,-2.533979416E-1,5.564743996E0,1.088451132E1
2.647719641E0,1.090622711E1,-1.600138187E0,5.359093666E0,1.225667642E1
2.655928987E0,1.284479332E1,-2.897601128E0,5.304051876E0,1.419569562E1
2.664140410E0,1.467582130E1,-4.080872536E0,5.119947433E0,1.607006887E1
2.672351525E0,1.585487080E1,-4.991362572E0,4.826420307E0,1.730852279E1
2.680562948E0,1.647388649E1,-5.477892876E0,4.521989346E0,1.794002882E1
2.688774987E0,1.669967651E1,-5.625155449E0,4.236869812E0,1.812381404E1
2.696985525E0,1.636098862E1,-5.721800804E0,3.984652281E0,1.778478020E1
2.705196756E0,1.590419102E1,-5.707108498E0,3.704395056E0,1.729846589E1
2.713407025E0,1.549022961E1,-5.540713787E0,3.341420174E0,1.678725145E1
2.721617717E0,1.492564201E1,-5.411333084E0,2.845884085E0,1.612936364E1
2.729828525E0,1.432806778E1,-5.260797977E0,2.229571581E0,1.542532045E1
2.738039140E0,1.369273567E1,-5.077925205E0,1.524828315E0,1.468337277E1
2.746251102E0,1.313216114E1,-5.065710545E0,8.848592043E-1,1.410312218E1
2.754462987E0,1.258403587E1,-4.993518829E0,1.696808636E-1,1.353964478E1
2.762675910E0,1.207216263E1,-4.882493973E0,-6.275631785E-1,1.303724256E1
2.770887486E0,1.166844749E1,-4.799383163E0,-1.384162426E0,1.269262192E1
2.779097717E0,1.162418270E1,-4.759976387E0,-1.963502049E0,1.271354942E1
2.787308640E0,1.198498154E1,-4.730755806E0,-2.140120506E0,1.306139153E1
2.795519756E0,1.247336483E1,-4.691292286E0,-1.952937961E0,1.346874234E1
2.803730217E0,1.275697327E1,-4.557097435E0,-1.548781872E0,1.363474346E1
2.811940025E0,1.269226646E1,-4.314940453E0,-1.185758114E0,1.345802220E1
2.820149909E0,1.245852947E1,-3.947071552E0,-1.049190521E0,1.311087835E1
2.828361217E0,1.226829243E1,-3.545842171E0,-1.029648185E0,1.281187618E1
2.836578371E0,1.189637280E1,-3.456118107E0,-8.876818419E-1,1.242000069E1
2.844791140E0,1.141207886E1,-3.458440781E0,-6.998556852E-1,1.194513099E1
2.853003294E0,1.107151222E1,-3.153219938E0,-4.025210738E-1,1.151881947E1
2.861214986E0,1.055853653E1,-2.798784494E0,-3.033435345E-2,1.092322336E1
2.869425678E0,9.518728256E0,-2.638850451E0,3.565460742E-1,9.884171408E0
2.877638101E0,8.622409821E0,-2.553440571E0,4.292465448E-1,9.002791926E0
2.885851024E0,7.723660469E0,-2.260243893E0,2.554261684E-1,8.051638096E0
2.894062948E0,6.748489380E0,-1.920503378E0,1.502069235E-1,7.018048465E0
2.902273832E0,5.620579720E0,-1.922026753E0,4.359626770E-1,5.956103313E0
2.910484447E0,4.505036354E0,-2.269924641E0,1.441684008E0,5.246557272E0
2.918695178E0,3.308233738E0,-2.904956818E0,2.607506514E0,5.116861811E0
2.926907678E0,1.371219635E0,-3.705544472E0,3.374627829E0,5.196096237E0
2.935119332E0,-8.565340042E-1,-4.421119690E0,3.599714994E0,5.765231813E0
2.943332370E0,-2.887229919E0,-4.702502251E0,3.519511223E0,6.544966255E0
2.951543255E0,-5.542327881E0,-5.033040047E0,3.726944208E0,8.362954238E0
2.959755063E0,-8.125327110E0,-5.581380367E0,4.080466747E0,1.066878420E1
2.967967486E0,-1.037588692E1,-5.775550842E0,4.475774765E0,1.269049158E1
2.976179563E0,-1.224210644E1,-5.476881981E0,4.406667233E0,1.411680284E1
2.984392678E0,-1.417271423E1,-4.889043331E0,4.109133720E0,1.554520998E1
2.992605370E0,-1.613221931E1,-4.619502068E0,3.493714333E0,1.714042996E1
3.000818716E0,-1.788813019E1,-4.793907166E0,2.560163021E0,1.869548561E1
3.009031524E0,-1.898839951E1,-5.037199497E0,1.548839211E0,1.970613096E1
3.017242986E0,-1.953918839E1,-5.058244228E0,-1.492220163E-1,2.018385455E1
3.025455832E0,-1.961005402E1,-4.067878246E0,-2.486903429E0,2.018134140E1
3.033667178E0,-1.938177299E1,-2.177671671E0,-4.964131355E0,2.012555536E1
3.041879332E0,-1.861828804E1,-5.697381496E-2,-6.506851673E0,1.972265231E1
3.050090601E0,-1.717788887E1,1.695702791E0,-6.844189167E0,1.856874254E1
3.058302101E0,-1.494806957E1,2.643690586E0,-5.827498436E0,1.626018517E1
3.066514408E0,-1.229560566E1,2.934138775E0,-3.896562576E0,1.322778473E1
3.074725062E0,-9.816278458E0,2.911397457E0,-2.277717590E0,1.048921138E1
3.082942062E0,-6.872937202E0,2.924695969E0,-7.180203199E-1,7.503776748E0
3.091153293E0,-4.180898666E0,3.057326794E0,4.599206448E-1,5.199873824E0
3.099363524E0,-1.999635696E0,3.296970367E0,1.439800739E0,4.116015390E0
3.107574139E0,-6.488494873E-1,3.634604931E0,2.257966995E0,4.327790847E0
3.115782793E0,1.461610794E-1,4.056337357E0,2.894173145E0,4.985125275E0
3.123993370E0,5.989084244E-1,4.600257874E0,3.220674515E0,5.647460326E0
3.132203600E0,8.063430786E-1,5.071311951E0,3.391728401E0,6.154040592E0
3.140413793E0,9.998273849E-1,5.309509277E0,3.458717346E0,6.415081390E0
3.148625908E0,1.582764626E0,5.350779533E0,3.481039524E0,6.576748562E0
3.156836793E0,2.665857792E0,5.302941799E0,3.473226547E0,6.876866448E0
3.165048485E0,3.669755936E0,5.186092377E0,3.397941351E0,7.204767046E0
3.173259562E0,4.411310673E0,5.010571480E0,3.077283382E0,7.350861271E0
3.181471062E0,4.833264828E0,4.894420624E0,2.675778389E0,7.380758235E0
3.189682600E0,4.979537010E0,4.826222420E0,2.064484119E0,7.235351157E0
3.197893023E0,4.835731030E0,4.721767902E0,1.400984526E0,6.902328908E0
3.206104869E0,4.627627850E0,4.641384602E0,8.296773434E-1,6.606493399E0
3.214316216E0,4.321325779E0,4.521474838E0,2.118382454E-1,6.257992221E0
3.222528869E0,3.854834080E0,4.227623463E0,-1.546165943E-1,5.723325276E0
3.230742562E0,3.477705956E0,3.748652935E0,-2.286012173E-1,5.118505256E0
3.238955523E0,3.343679905E0,3.066216946E0,-2.922260761E-2,4.536819990E0
3.247168254E0,3.011543274E0,2.308834076E0,2.869371176E-1,3.805580191E0
3.255380908E0,2.350297928E0,1.550730109E0,4.628653526E-1,2.853578202E0
3.263592869E0,1.425913811E0,9.264101982E-1,4.551572800E-1,1.760293782E0
3.271804177E0,6.612863541E-1,4.120826721E-1,3.817611933E-1,8.676712393E-1
3.280016138E0,-1.108570099E-1,-2.004454136E-1,5.094236135E-1,5.585517510E-1
3.288227754E0,-8.876771927E-1,-7.536396980E-1,8.813935518E-1,1.460410280E0
3.296439292E0,-2.046296120E0,-1.341850042E0,1.125144958E0,2.693295476E0
3.304651254E0,-3.496210098E0,-1.988631725E0,9.871739149E-1,4.141576213E0
3.312863292E0,-4.889432907E0,-2.398933887E0,4.455803633E-1,5.464428589E0
3.321076484E0,-6.061567307E0,-2.479143620E0,-5.966968536E-1,6.576077739E0
3.329296369E0,-6.787817001E0,-2.244372129E0,-1.925298810E0,7.403947691E0
3.337508330E0,-6.811326981E0,-1.678543806E0,-3.198789120E0,7.709989389E0
3.345720138E0,-6.268959045E0,-5.402696133E-1,-4.477722168E0,7.722806134E0
3.353931753E0,-5.182462692E0,7.407469749E-1,-5.129899025E0,7.329562718E0
3.362143638E0,-3.760710716E0,1.777128577E0,-4.995465755E0,6.500446845E0
3.370355100E0,-2.293970108E0,2.337430954E0,-3.997303009E0,5.167621664E0
3.378566100E0,-8.138237000E-1,2.494425535E0,-2.546791077E0,3.656584821E0
3.386778869E0,4.637670517E-1,2.459933281E0,-1.077623487E0,2.725366765E0
3.394990099E0,1.513870239E0,2.216070175E0,3.054852486E-1,2.701127794E0
3.403201715E0,2.270091534E0,1.913476825E0,1.337633371E0,3.256374083E0
3.411413253E0,2.719243526E0,1.552542210E0,2.243954659E0,3.852272729E0
3.419624869E0,2.899416924E0,1.218582392E0,2.810148716E0,4.217641207E0
3.427836522E0,2.909001827E0,9.567253590E-1,3.077311993E0,4.341366622E0
3.436048599E0,2.446482658E0,7.775323391E-1,3.020937920E0,3.964328424E0
3.444261061E0,1.976666451E0,6.112666130E-1,2.634732246E0,3.350025543E0
3.452472022E0,1.553255558E0,6.318259239E-1,2.044990540E0,2.644578063E0
3.460683907E0,1.050275803E0,7.293605804E-1,1.533091784E0,1.996350804E0
3.468895907E0,5.211744308E-1,7.100861073E-1,1.266857147E0,1.542975080E0
3.477107445E0,8.439636230E-2,4.774508476E-1,9.826087952E-1,1.095719901E0
3.485319868E0,-9.665870667E-2,1.470623016E-1,6.413543224E-1,6.650605935E-1
3.493530561E0,-8.129692078E-2,-8.692765236E-2,2.146351337E-1,2.454258477E-1
3.501741984E0,-1.380109787E-1,-1.762485504E-1,-4.696867466E-1,5.203039705E-1
3.509954445E0,-1.533603668E-2,-7.185602188E-2,-1.321522832E0,1.323563779E0
3.518167330E0,3.087673187E-1,1.387493610E-1,-2.103520632E0,2.130583885E0
3.526378522E0,4.161729813E-1,3.773982525E-1,-2.824267149E0,2.879603153E0
3.534589830E0,3.210697174E-1,5.855250359E-1,-3.378066063E0,3.443436606E0
3.542802945E0,1.649379730E-1,8.368816376E-1,-3.952076912E0,4.043078942E0
3.551015637E0,2.188682556E-2,1.250391722E0,-4.327769279E0,4.504835783E0
3.559227522E0,1.294717789E-1,1.743903041E0,-4.456649303E0,4.787450655E0
3.567439330E0,6.652469635E-1,2.215489864E0,-4.336915016E0,4.915259985E0
3.575656483E0,1.374356747E0,2.623322010E0,-3.927375793E0,4.918836799E0
3.583869445E0,2.233068943E0,3.031399250E0,-3.271122932E0,4.987606997E0
3.592081253E0,3.079915047E0,3.365658998E0,-2.591423512E0,5.246809793E0
3.600294291E0,3.846873283E0,3.623288631E0,-2.025910378E0,5.659590747E0
3.608507868E0,4.537670612E0,3.866383076E0,-1.444108129E0,6.133907479E0
3.616720368E0,5.115918159E0,4.001275063E0,-8.479781151E-1,6.549953254E0
3.624932714E0,5.380019188E0,4.108686924E0,-3.742938042E-1,6.779823785E0
3.633144252E0,5.427294731E0,4.314478397E0,-1.329493523E-2,6.933284120E0
3.641356752E0,5.384459972E0,4.529046059E0,1.512362957E-1,7.037580537E0
3.649569406E0,5.232842445E0,4.603592873E0,7.733821869E-3,6.969631784E0
3.657782137E0,4.697198868E0,4.486965179E0,-4.342138767E-1,6.510382125E0
3.665995021E0,3.605007648E0,4.427248955E0,-8.569699526E-1,5.773301564E0
3.674207214E0,2.724750996E0,4.345591068E0,-1.358669639E0,5.306073210E0
3.682419945E0,1.820209503E0,4.428960800E0,-2.132393122E0,5.241751313E0
3.690632214E0,9.713773727E-1,4.543051720E0,-2.739153147E0,5.393130157E0
3.698844329E0,-1.290521622E-1,4.368862152E0,-2.760030985E0,5.169272870E0
3.707056752E0,-1.211277962E0,3.676112175E0,-2.082981110E0,4.395430050E0
3.715269367E0,-2.148259163E0,2.546455622E0,-9.091000557E-1,3.453392039E0
3.723481367E0,-3.471878052E0,1.433584929E0,2.076745033E-2,3.756265997E0
3.731693444E0,-5.916439056E0,6.938822269E-1,5.653946400E-1,5.983760920E0
3.739905637E0,-8.798892021E0,-2.389841080E-1,7.791092396E-1,8.836550538E0
3.748117213E0,-1.268464088E1,-8.563103676E-1,3.500819206E-1,1.271833083E1
3.756329521E0,-1.624468803E1,-7.651195526E-1,-3.672742844E-1,1.626684320E1
3.764541098E0,-1.856745911E1,-1.187388897E-1,-5.591285229E-1,1.857625531E1
3.772752290E0,-1.902282333E1,3.547015190E-1,5.551128387E-1,1.903422630E1
3.780963213E0,-1.802371407E1,-5.391287804E-2,2.580647230E0,1.820760598E1
3.789175867E0,-1.670092010E1,-1.278890848E0,4.986593246E0,1.747633847E1
3.797387983E0,-1.593523026E1,-3.014664888E0,7.266429901E0,1.777134692E1
3.805601098E0,-1.593548107E1,-5.542153358E0,8.351415634E0,1.882554551E1
3.813813598E0,-1.654739380E1,-7.931033134E0,8.064897537E0,2.004395421E1
3.822031252E0,-1.701898193E1,-9.594945908E0,6.317096710E0,2.053325215E1
3.830245367E0,-1.698169327E1,-1.049357986E1,4.070061207E0,2.037298512E1
3.838459482E0,-1.645890427E1,-1.063930035E1,1.837657928E0,1.968418726E1
3.846674713E0,-1.538679504E1,-9.984465599E0,-1.038970947E-1,1.834267728E1
3.854890252E0,-1.388154697E1,-8.783930779E0,-1.273306847E0,1.647653169E1
3.863104213E0,-1.245816708E1,-7.306513309E0,-1.827743769E0,1.455787453E1
3.871317751E0,-1.129423714E1,-5.932383537E0,-2.001169682E0,1.291346766E1
3.879532251E0,-9.942690849E0,-4.216601372E0,-1.805513859E0,1.094973556E1
3.887747674E0,-8.298797607E0,-2.709552288E0,-1.025979757E0,8.790014209E0
3.895961828E0,-6.087526321E0,-1.503170967E0,7.859373093E-2,6.270859323E0
3.904176905E0,-3.372294426E0,-4.341714382E-1,1.396283150E0,3.675660644E0
3.912391790E0,-3.765306473E-1,4.778659344E-1,2.942304611E0,3.004544492E0
3.920606982E0,2.553360939E0,1.132934451E0,4.560686588E0,5.348182375E0
3.928822213E0,5.380534172E0,1.565333128E0,6.021613598E0,8.225584849E0
3.937038213E0,7.622222900E0,1.847638130E0,6.941885471E0,1.047386378E1
3.945253059E0,9.734978676E0,2.100648642E0,7.430822372E0,1.242576580E1
3.953467097E0,1.108123112E1,2.220350981E0,7.127872944E0,1.336151991E1
3.961683020E0,1.163345718E1,2.110410213E0,6.079777241E0,1.329491815E1
3.969899251E0,1.179370880E1,1.860582352E0,4.445831299E0,1.274043759E1
3.978114597E0,1.163482380E1,1.486553669E0,2.883818865E0,1.207871590E1
3.986330097E0,1.123218632E1,6.970587969E-1,1.656056404E0,1.137499113E1
3.994544866E0,1.175242805E1,-3.255810738E-1,9.080915451E-1,1.179195482E1
4.002759828E0,1.278454208E1,-9.004722834E-1,9.997990131E-1,1.285515323E1
4.010973674E0,1.415511894E1,-1.653369784E0,1.568529367E0,1.433740940E1
4.019188020E0,1.540562153E1,-2.340415955E0,2.136530876E0,1.572817490E1
4.027401328E0,1.614464951E1,-2.608026743E0,2.553608894E0,1.655211254E1
4.035616059E0,1.590947819E1,-2.535938740E0,2.710437536E0,1.633673631E1
4.043830597E0,1.482234573E1,-2.084364414E0,2.597223043E0,1.519184240E1
4.052044789E0,1.329584408E1,-1.434737921E0,2.187010288E0,1.355068104E1
4.060258366E0,1.178110790E1,-7.264125347E-1,1.868766665E0,1.195050072E1
4.068478597E0,1.057368183E1,-2.339420319E-1,1.648287535E0,1.070393984E1
4.076693212E0,9.865943909E0,2.093989253E-1,1.294918776E0,9.952764026E0
4.084907174E0,9.517466545E0,3.672433496E-1,1.011854649E0,9.578146321E0
4.093120943E0,9.835622787E0,4.374839067E-1,8.665484190E-1,9.883409025E0
4.101335174E0,1.043049240E1,3.112760186E-1,7.116799355E-1,1.045937631E1
4.109550289E0,1.071014786E1,1.014688611E-1,4.457025528E-1,1.071989803E1
4.117765212E0,1.077673817E1,2.899223566E-2,2.056586742E-2,1.077679679E1
4.125979327E0,1.072105503E1,6.856966019E-2,-5.574918389E-1,1.073575894E1
4.134192674E0,1.047114563E1,1.234797835E-1,-1.120868683E0,1.053168954E1
4.142406404E0,1.011787987E1,2.412411571E-1,-1.548712373E0,1.023856437E1
4.150620289E0,9.630127907E0,3.843564391E-1,-1.945130587E0,9.832122170E0
4.158835020E0,8.989010811E0,6.558866501E-1,-2.180505276E0,9.272923267E0
4.167048827E0,8.431517601E0,9.725340009E-1,-2.302017927E0,8.794066066E0
4.175259827E0,8.209067345E0,1.305231333E0,-2.246877670E0,8.610509553E0
4.183472096E0,8.250135422E0,1.607135773E0,-1.968449354E0,8.632636488E0
4.191684212E0,8.260159492E0,1.840661287E0,-1.557664871E0,8.604916540E0
4.199897943E0,7.994983673E0,1.983098269E0,-1.147275686E0,8.316771259E0
4.208111712E0,7.581686974E0,2.131185532E0,-9.053245187E-1,7.927391855E0
4.216326212E0,6.646980762E0,2.218327999E0,-7.129214406E-1,7.043549485E0
4.224541327E0,4.963402271E0,2.055619240E0,-4.240834713E-1,5.388949745E0
4.232756442E0,2.624485493E0,1.341450453E0,2.549567223E-1,2.958448301E0
4.240972096E0,1.661968231E-1,1.160277724E-1,9.705891609E-1,9.915276836E-1
4.249187904E0,-2.031693459E0,-1.229439974E0,1.496195316E0,2.806759944E0
4.257404750E0,-4.092481613E0,-2.600041389E0,1.854983687E0,5.191299015E0
4.265621327E0,-5.622349739E0,-3.698641300E0,1.804648757E0,6.967605126E0
4.273845981E0,-7.072224617E0,-4.297246933E0,1.526110053E0,8.414969051E0
4.282063827E0,-8.951258659E0,-4.593362808E0,1.185875058E0,1.013066203E1
4.290278904E0,-1.069912624E1,-4.498495102E0,6.475391388E-1,1.162441687E1
4.298495788E0,-1.201767159E1,-3.876019478E0,1.881330013E-1,1.262867180E1
4.306712904E0,-1.325221348E1,-3.073389053E0,2.616374493E-1,1.360644467E1
4.314934327E0,-1.461611652E1,-2.774278164E0,1.047267437E0,1.491389455E1
4.323150788E0,-1.569552708E1,-3.307158470E0,2.114838362E0,1.617898046E1
4.331366134E0,-1.654446602E1,-4.503414154E0,2.768620491E0,1.736851618E1
4.339582404E0,-1.707837677E1,-5.575108051E0,2.269238234E0,1.810807072E1
4.347799750E0,-1.719942665E1,-5.746687412E0,-1.008479595E-1,1.813435589E1
4.356015173E0,-1.676934814E1,-4.255015373E0,-3.781058788E0,1.770911061E1
4.364231134E0,-1.593814182E1,-1.765394092E0,-7.336586475E0,1.763424175E1
4.372446288E0,-1.470230389E1,6.589341760E-1,-9.321423531E0,1.742070235E1
4.380660673E0,-1.302114201E1,2.244998455E0,-9.340520859E0,1.618133144E1
4.388876211E0,-1.101748180E1,2.684227467E0,-7.105113506E0,1.338180183E1
4.397090557E0,-8.531814575E0,2.246608973E0,-3.988631964E0,9.682370410E0
4.405306788E0,-5.912792206E0,1.690904379E0,-9.647188187E-1,6.225026240E0
4.413521480E0,-3.649790764E0,1.225952625E0,1.034763217E0,3.986811680E0
4.421735596E0,-1.223300934E0,1.198720813E0,2.529552937E0,3.054837937E0
4.429950480E0,5.818510056E-1,1.522737861E0,3.243366241E0,3.629973245E0
4.438166172E0,1.562321186E0,1.986686826E0,3.689222813E0,4.471927660E0
4.446381172E0,1.987564087E0,2.423698664E0,4.318126678E0,5.335817109E0
4.454595326E0,2.429026127E0,2.895979404E0,5.116353989E0,6.361127477E0
4.462809711E0,2.988806725E0,3.368865013E0,5.882373810E0,7.408410002E0
4.471023672E0,3.572176456E0,3.720978260E0,6.260308266E0,8.111570959E0
4.479235941E0,3.976234913E0,3.901933670E0,6.254981041E0,8.376175635E0
4.487449595E0,4.477021694E0,3.989107132E0,5.762793541E0,8.316639246E0
4.495662980E0,5.043737411E0,3.900393486E0,4.885062218E0,8.032197040E0
4.503877480E0,5.628679276E0,3.759735823E0,3.778278351E0,7.751969501E0
4.512092441E0,6.169735432E0,3.544028759E0,2.589097500E0,7.571604916E0
4.520306980E0,6.455794811E0,3.187968731E0,1.520323277E0,7.358791622E0
4.528522403E0,6.562540531E0,2.735134602E0,5.578951836E-1,7.131559896E0
4.536737941E0,6.374559402E0,2.288897753E0,-2.219120264E-1,6.776673627E0
4.544952557E0,5.819202423E0,1.897947669E0,-7.304916382E-1,6.164328044E0
4.553166518E0,5.027645588E0,1.526622534E0,-1.287487268E0,5.409752303E0
4.561385826E0,4.287603855E0,1.227064252E0,-1.625280142E0,4.746658723E0
4.569600787E0,3.510798931E0,8.232923746E-1,-1.506499290E0,3.908076199E0
4.577814249E0,2.991931438E0,3.365368843E-1,-7.504127026E-1,3.102906707E0
4.586029326E0,2.510342121E0,-3.205369711E-1,3.835977316E-1,2.559630586E0
4.594241979E0,1.731932163E0,-1.055116773E0,1.384162426E0,2.455354566E0
4.602456210E0,3.412818909E-1,-1.818810821E0,2.074272871E0,2.779775903E0
4.610670672E0,-9.324140549E-1,-2.442472219E0,2.082752228E0,3.342592311E0
4.618886018E0,-2.405739784E0,-2.886135578E0,1.586527467E0,4.078533056E0
4.627101518E0,-3.684051514E0,-2.935320377E0,5.001794100E-1,4.736931572E0
4.635315479E0,-4.755218506E0,-2.473909140E0,-7.728455067E-1,5.415682750E0
4.643529672E0,-5.509689331E0,-1.538138032E0,-2.088182449E0,6.089585460E0
4.651745018E0,-5.605311394E0,-2.540099621E-1,-3.205927849E0,6.462353306E0
4.659959172E0,-5.004110336E0,9.754368067E-1,-3.685556889E0,6.290940057E0
4.668172902E0,-4.088227272E0,1.818952799E0,-3.530991554E0,5.700008146E0
4.676386671E0,-3.054603577E0,2.157899618E0,-3.001327038E0,4.795320402E0
4.684600979E0,-1.891798019E0,2.192120075E0,-2.224779129E0,3.651565739E0
4.692814248E0,-9.381046295E-1,1.944239616E0,-1.679679275E0,2.735220365E0
4.701028787E0,-7.780838013E-2,1.562152386E0,-1.418337703E0,2.111410917E0
4.709242979E0,5.792655945E-1,1.017595530E0,-1.298431873E0,1.748420607E0
4.717457364E0,1.070321083E0,4.148379564E-1,-1.182346821E0,1.647914365E0
4.725672441E0,1.357570648E0,-3.027534485E-2,-9.035474658E-1,1.631046500E0
4.733886440E0,1.525265694E0,-3.605382442E-1,-3.731815815E-1,1.611113824E0
4.742101594E0,1.519417286E0,-6.203408241E-1,2.109593153E-1,1.654676844E0
4.750316940E0,1.511493206E0,-7.982361317E-1,1.034094095E0,1.997784581E0
4.758533094E0,1.574381828E0,-7.934226990E-1,1.705901504E0,2.453221894E0
4.766747979E0,1.782700062E0,-6.072058678E-1,2.106863499E0,2.825879028E0
4.774962902E0,1.765379429E0,-3.779206276E-1,2.209211111E0,2.853068920E0
4.783176710E0,1.652310371E0,-2.317078114E-1,2.063133717E0,2.653363678E0
4.791391594E0,1.624231815E0,-9.190344810E-2,1.859831333E0,2.470940675E0
4.799605863E0,1.583988667E0,-8.412837982E-3,1.562182784E0,2.224748508E0
4.807828094E0,1.491267681E0,3.590822220E-2,1.167814493E0,1.894454905E0
4.816043094E0,1.319820404E0,6.958842278E-2,6.505038738E-1,1.473066101E0
4.824257556E0,1.222767830E0,1.252417564E-1,-1.135573387E-1,1.234399422E0
4.832470748E0,1.181063652E0,2.113776207E-1,-7.276724577E-1,1.403245899E0
4.840686286E0,8.931694031E-1,2.513279915E-1,-1.124155521E0,1.457615511E0
4.848900979E0,4.448146820E-1,3.333997726E-1,-1.343998194E0,1.454423135E0
4.857114286E0,9.204101562E-2,5.204943419E-1,-1.524160743E0,1.613211666E0
4.865327478E0,-9.306907654E-3,7.273336649E-1,-1.533752203E0,1.697497187E0
4.873541209E0,1.319284439E-1,7.997361422E-1,-1.322398305E0,1.551038455E0
4.881754825E0,5.116930008E-1,7.464615107E-1,-8.658891320E-1,1.252516867E0
4.889967748E0,1.098592758E0,7.601066828E-1,-2.265419960E-1,1.354986898E0
4.898182055E0,1.611759663E0,7.633789778E-1,3.569705486E-1,1.818775590E0
4.906396286E0,2.002828598E0,7.615646124E-1,7.702629566E-1,2.276973446E0
4.914610363E0,2.132516384E0,7.675129175E-1,8.949896097E-1,2.436741391E0
4.922824094E0,2.175433159E0,8.507949114E-1,8.765023947E-1,2.494918407E0
4.931039055E0,2.179533482E0,9.613585472E-1,7.537888288E-1,2.498554392E0
4.939252824E0,2.240978718E0,1.122430682E0,6.740127802E-1,2.595405455E0
4.947466747E0,2.462905407E0,1.256895781E0,6.327035427E-1,2.836547870E0
4.955681670E0,2.804873466E0,1.469976187E0,6.501976252E-1,3.232785502E0
4.963896901E0,3.238213062E0,1.507641077E0,7.504225969E-1,3.649950620E0
4.972111709E0,3.621671677E0,1.551809072E0,8.088438511E-1,4.022293563E0
4.980325670E0,3.933312416E0,1.723153114E0,7.625181675E-1,4.361380191E0
4.988540209E0,4.271084309E0,1.974972248E0,5.641980171E-1,4.739303320E0
4.996754824E0,4.460334301E0,2.288591146E0,3.182785511E-1,5.023298991E0
5.004968978E0,4.594520569E0,2.651841402E0,3.942894936E-2,5.305038805E0
5.013182863E0,4.731379986E0,2.917578697E0,-1.790273190E-1,5.561499151E0
5.021397939E0,4.813708305E0,3.257746220E0,-2.715455294E-1,5.818800139E0
5.029614016E0,4.676455975E0,3.431610584E0,-1.147680283E-1,5.801582834E0
5.037828401E0,4.044353008E0,3.428757668E0,1.778419018E-1,5.305167117E0
5.046042324E0,2.847683430E0,3.215813160E0,5.361055136E-1,4.328760136E0
5.054261901E0,1.325513840E0,2.850303650E0,6.902356148E-1,3.218329231E0
5.062476939E0,-4.290513992E-1,2.287450314E0,7.526805401E-1,2.446025763E0
5.070694016E0,-2.571937561E0,1.404873848E0,7.500302792E-1,3.025075002E0
5.078911708E0,-5.173578262E0,4.480106831E-1,8.444763422E-1,5.261156327E0
5.087128478E0,-7.509565353E0,-9.197919369E-1,1.065277696E0,7.640314494E0
5.095344324E0,-9.805780411E0,-2.335669518E0,1.107266903E0,1.014074561E1
5.103561170E0,-1.147374725E1,-3.318164349E0,9.535334110E-1,1.198191623E1
5.111777554E0,-1.292709732E1,-3.612457752E0,6.775059700E-1,1.343944606E1
5.119993439E0,-1.447268391E1,-3.068467617E0,5.691232681E-1,1.480533601E1
5.128209324E0,-1.581045341E1,-2.089440346E0,9.572725296E-1,1.597662570E1
5.136426016E0,-1.675857735E1,-1.277950048E0,2.058450222E0,1.693281690E1
5.144641131E0,-1.726477051E1,-1.080825567E0,3.607438326E0,1.767071294E1
5.152856477E0,-1.746752548E1,-1.886302233E0,4.954427719E0,1.825428543E1
5.161072016E0,-1.757800293E1,-3.488933086E0,5.756022453E0,1.882260969E1
5.169286477E0,-1.763585281E1,-5.247968674E0,4.861128807E0,1.903142278E1
5.177501054E0,-1.762022781E1,-6.306603909E0,2.437411070E0,1.887290793E1
5.185717323E0,-1.764907074E1,-6.514711380E0,-4.492039680E-1,1.881842041E1
5.193934477E0,-1.773449326E1,-6.134826660E0,-3.259466171E0,1.904658680E1
5.202151554E0,-1.776639175E1,-5.100257874E0,-5.504405975E0,1.928615544E1
5.210368169E0,-1.730013084E1,-3.505180597E0,-6.641633511E0,1.885980153E1
5.218583669E0,-1.606579971E1,-2.106198072E0,-6.381700993E0,1.741470925E1
5.226800208E0,-1.391577530E1,-6.734950542E-1,-4.846361637E0,1.475091926E1
5.235016246E0,-1.081401157E1,3.152623177E-1,-2.599473476E0,1.112652232E1
5.243233515E0,-7.130210876E0,9.806960821E-1,5.486369133E-3,7.197339929E0
5.251449477E0,-3.048547745E0,1.497738242E0,2.592374802E0,4.272852713E0
5.259664438E0,1.028249741E0,1.844517231E0,4.786344051E0,5.231503677E0
5.267877708E0,4.925932407E0,1.935245037E0,6.367856503E0,8.280071248E0
5.276090515E0,8.243389130E0,1.964432478E0,7.148181438E0,1.108643122E1
5.284303169E0,1.033917236E1,2.004456997E0,7.151830196E0,1.273047557E1
5.292517246E0,1.181744003E1,2.078834057E0,6.200261116E0,1.350617184E1
5.300735592E0,1.236995792E1,2.190103054E0,4.739132404E0,1.342653292E1
5.308949708E0,1.253452301E1,2.061143160E0,3.340071678E0,1.313463578E1
5.317164438E0,1.314107037E1,1.814495802E0,2.391174316E0,1.347953412E1
5.325378669E0,1.429602432E1,1.775164127E0,2.140463829E0,1.456396596E1
5.333592323E0,1.546713638E1,1.848239899E0,2.685682297E0,1.580699807E1
5.341805592E0,1.594469547E1,1.904645324E0,3.572200775E0,1.645058072E1
5.350019169E0,1.570229530E1,1.951939464E0,4.391004086E0,1.642111635E1
5.358234477E0,1.470046997E1,2.051115751E0,5.051949024E0,1.567906509E1
5.366449630E0,1.313757610E1,2.402314663E0,5.205192089E0,1.433391246E1
5.374664169E0,1.185864639E1,2.670569420E0,4.885203362E0,1.310055904E1
5.382879438E0,1.105703926E1,2.853912354E0,4.379495621E0,1.223040943E1
5.391094823E0,1.051955318E1,2.824531078E0,4.042170048E0,1.161800816E1
5.399309476E0,1.016568756E1,2.579955339E0,3.726054192E0,1.113017758E1
5.407522669E0,9.821228981E0,2.220442295E0,3.377053499E0,1.062032923E1
5.415735361E0,9.424947739E0,1.802804112E0,2.875558376E0,1.001741376E1
5.423949553E0,9.141391754E0,1.365719914E0,2.027353525E0,9.462578740E0
5.432164707E0,8.852859497E0,1.124123335E0,9.776584506E-1,8.977337612E0
5.440378938E0,8.579034805E0,1.066617250E0,-1.158049107E-1,8.645861514E0
5.448593130E0,8.457111359E0,1.036099195E0,-1.168929219E0,8.600152882E0
5.456806899E0,8.584255219E0,1.019644022E0,-1.899075508E0,8.850740047E0
5.465021053E0,8.776951790E0,9.451125860E-1,-2.347779036E0,9.134560029E0
5.473235630E0,9.102493286E0,9.084421396E-1,-2.514566422E0,9.487027745E0
5.481451553E0,9.316342354E0,9.697464108E-1,-2.495971203E0,9.693529553E0
5.489667553E0,9.305316925E0,1.120075464E0,-2.403960943E0,9.675873105E0
5.497882361E0,9.239045143E0,1.345967531E0,-2.283319712E0,9.611718507E0
5.506097053E0,9.064890862E0,1.577699184E0,-2.236522913E0,9.469076818E0
5.514311668E0,8.888263702E0,1.827940106E0,-2.222744465E0,9.342547277E0
5.522526130E0,8.508137703E0,2.016286612E0,-2.243478060E0,9.027015713E0
5.530741437E0,7.864804268E0,2.129547596E0,-2.153187513E0,8.427712359E0
5.538956245E0,7.368075371E0,2.235730171E0,-2.000336647E0,7.955398844E0
5.547175053E0,6.824338913E0,2.192299604E0,-1.630354404E0,7.350907062E0
5.555388437E0,6.106500149E0,1.928394437E0,-1.263595462E0,6.527229325E0
5.563601053E0,4.764024734E0,1.404087543E0,-6.546592712E-1,5.009588033E0
5.571813668E0,2.777505398E0,5.939809680E-1,9.497773647E-2,2.841895564E0
5.580027514E0,5.942592621E-1,-5.372751951E-1,6.760288477E-1,1.048247923E0
5.588240130E0,-1.194794655E0,-1.774124503E0,8.955507278E-1,2.318849526E0
5.596452899E0,-2.609239578E0,-2.725637436E0,6.727735996E-1,3.832734654E0
5.604667322E0,-4.097305298E0,-3.122632980E0,2.144201994E-1,5.156037573E0
5.612880360E0,-5.817819595E0,-3.340975046E0,-4.057168961E-3,6.708886313E0
5.621093783E0,-7.392696381E0,-3.554723501E0,1.208137274E-1,8.203817093E0
5.629307514E0,-8.916301727E0,-3.666133881E0,3.610112667E-1,9.647346954E0
5.637520476E0,-1.006051540E1,-3.508613586E0,5.396165848E-1,1.066843595E1
5.645734283E0,-1.132571507E1,-3.407140732E0,1.031121850E0,1.187196875E1
5.653947322E0,-1.275450897E1,-3.928807497E0,1.810560107E0,1.346815338E1
5.662161552E0,-1.371944237E1,-4.995242119E0,2.272493839E0,1.477632468E1
5.670377745E0,-1.374259377E1,-5.675048351E0,1.880215883E0,1.498666971E1
5.678592591E0,-1.329665852E1,-5.172769547E0,2.370628119E-1,1.426936828E1
5.686805745E0,-1.308846188E1,-4.012240410E0,-1.752666712E0,1.380136761E1
5.695017821E0,-1.303215790E1,-2.664628506E0,-3.589911461E0,1.377769389E1
5.703230937E0,-1.276031971E1,-1.677666783E0,-4.662170410E0,1.368854112E1
5.711444283E0,-1.208175087E1,-1.253880858E0,-4.848621368E0,1.307861042E1
5.719656514E0,-1.091078186E1,-1.338596582E0,-4.715669632E0,1.196137708E1
5.727869398E0,-9.583860397E0,-1.779568553E0,-4.763665199E0,1.084941245E1
5.736082783E0,-8.074578285E0,-2.307203770E0,-4.999609947E0,9.773336347E0
5.744295629E0,-6.656949997E0,-2.579854488E0,-5.238053322E0,8.854819877E0
5.752507744E0,-5.683607101E0,-2.507578850E0,-5.393288612E0,8.226718874E0
5.760720321E0,-5.073229790E0,-2.084231853E0,-5.222121239E0,7.573125719E0
5.768932783E0,-4.847714424E0,-1.352269888E0,-4.465682983E0,6.728394570E0
5.777145052E0,-4.614542007E0,-5.147482157E-1,-3.270699263E0,5.679475093E0
5.785358590E0,-4.329754829E0,4.405825138E-1,-1.656823754E0,4.656818097E0
5.793576244E0,-3.766591072E0,1.605102539E0,3.706663847E-1,4.111077235E0
5.801831783E0,-2.690510750E0,2.609606266E0,2.823180437E0,4.692466381E0
5.810043975E0,-1.030050278E0,3.393130779E0,5.047006130E0,6.168193491E0
5.818256013E0,8.085947037E-1,3.928020000E0,6.782089233E0,7.879079952E0
5.826468782E0,2.212032318E0,4.374005318E0,7.737608910E0,9.159454194E0
5.834681206E0,3.464526176E0,4.500966072E0,8.101218224E0,9.894006970E0
5.842895436E0,4.421651363E0,4.287869453E0,7.580030441E0,9.766969168E0
5.851109513E0,5.133725166E0,4.010568619E0,6.377141953E0,9.116344345E0
5.859322744E0,5.770439148E0,3.644983530E0,4.918415070E0,8.412768848E0
5.867536244E0,6.213842869E0,3.258244514E0,3.520340443E0,7.849891550E0
5.875748282E0,6.402446747E0,2.920976162E0,2.374522209E0,7.427097805E0
5.883961436E0,6.455656052E0,2.645230293E0,1.637916803E0,7.166275868E0
5.892173436E0,6.291910172E0,2.451075077E0,1.259820580E0,6.868991959E0
5.900385282E0,5.787031174E0,2.197454453E0,1.161274314E0,6.298181794E0
5.908596436E0,5.075235367E0,1.869370103E0,1.275043249E0,5.556824084E0
5.916808167E0,4.376906872E0,1.570803165E0,1.478818178E0,4.879717159E0
5.925019897E0,3.778584003E0,1.182648182E0,1.666391253E0,4.295720382E0
5.933232167E0,3.074394703E0,5.922303200E-1,1.868397951E0,3.646032151E0
5.941445821E0,2.409888744E0,-2.600824833E-2,1.931439877E0,3.088478620E0
5.949659013E0,1.712653637E0,-6.678538322E-1,1.875528097E0,2.626179138E0
5.957871397E0,1.192736626E0,-1.272882342E0,1.660917282E0,2.408629555E0
5.966085243E0,7.083358765E-1,-1.930835247E0,1.225657701E0,2.394180709E0
5.974297167E0,1.012344360E-1,-2.308689594E0,5.650988817E-1,2.378998277E0
5.982510551E0,-7.946739197E-1,-2.292074680E0,-3.301941156E-1,2.448293514E0
5.990723513E0,-1.771221161E0,-1.943480253E0,-1.403919935E0,2.980827248E0
5.998936166E0,-2.710385323E0,-1.254094005E0,-2.327749729E0,3.786470543E0
6.007149589E0,-3.285635948E0,-5.226449966E-1,-2.709526539E0,4.290698712E0
6.015361743E0,-3.347208023E0,-6.886935234E-2,-2.340865135E0,4.085118617E0
6.023573205E0,-3.054446220E0,9.699106216E-2,-1.599037409E0,3.449053437E0
6.031785743E0,-2.234938622E0,7.666683197E-2,-8.023176789E-1,2.375824510E0
6.040004320E0,-1.369252205E0,-1.446926594E-1,-1.686993837E-1,1.387172321E0
6.048216974E0,-5.992898941E-1,-4.712524414E-1,4.569089413E-2,7.637505473E-1
6.056428435E0,-6.327342987E-2,-7.521171570E-1,-1.063257456E-1,7.622262846E-1
6.064639628E0,8.413314819E-2,-9.003183842E-1,-3.887952566E-1,9.842831559E-1
6.072850243E0,-7.417297363E-2,-9.337644577E-1,-5.866454840E-1,1.105246858E0
6.081062743E0,-4.161558151E-1,-8.642380238E-1,-6.855641007E-1,1.179021272E0
6.089274666E0,-6.734857559E-1,-7.244303226E-1,-6.076456308E-1,1.160868454E0
6.097487897E0,-7.041997910E-1,-4.758722782E-1,-4.424772859E-1,9.581951363E-1
6.105700743E0,-3.566293716E-1,-3.063530922E-1,-2.069091797E-2,4.706005099E-1
6.113912820E0,2.311105728E-1,-9.453916550E-2,5.848574638E-1,6.359308167E-1
6.122125628E0,9.489593506E-1,9.770131111E-2,1.186051488E0,1.522099710E0
6.130336089E0,1.523450851E0,2.956809998E-1,1.649904728E0,2.265064097E0
6.138547435E0,2.078271389E0,3.594520092E-1,1.896584034E0,2.836450019E0
6.146759512E0,2.486749172E0,3.920567036E-1,1.925462961E0,3.169390717E0
6.154971089E0,2.549673080E0,3.941736221E-1,1.624405026E0,3.048753409E0
6.163182743E0,2.311530113E0,4.342095852E-1,1.025124073E0,2.565655626E0
6.171394397E0,1.896945953E0,4.965577126E-1,2.318933010E-1,1.974524757E0
6.179606127E0,1.442446709E0,6.474965811E-1,-4.854291081E-1,1.653948533E0
6.187816896E0,9.961109161E-1,7.643157244E-1,-1.023370385E0,1.619784686E0
6.196027012E0,4.744844437E-1,9.152412415E-1,-1.381567836E0,1.723813129E0
6.204238243E0,1.199207306E-1,1.149068594E0,-1.618837595E0,1.988812403E0
6.212448550E0,2.159252167E-1,1.339327931E0,-1.603121400E0,2.100100290E0
6.220661166E0,6.701030731E-1,1.485319853E0,-1.301023483E0,2.085155941E0
6.228871973E0,1.324188232E0,1.617730260E0,-7.803395987E-1,2.231469372E0
6.237083435E0,1.746212959E0,1.863099098E0,-3.885731697E-1,2.582902835E0
6.245296435E0,1.940003395E0,2.156081438E0,-2.721165419E-1,2.913133665E0
6.253509550E0,2.128505707E0,2.452691555E0,-4.427472353E-1,3.277538333E0
6.261723127E0,2.309916496E0,2.797472000E0,-6.926952600E-1,3.693425312E0
6.269935704E0,2.537669182E0,3.138836861E0,-8.451245427E-1,4.123869203E0
6.278148127E0,2.845903397E0,3.456294060E0,-1.083328843E0,4.606379940E0
6.286366127E0,3.200970173E0,3.773818970E0,-1.288525343E0,5.113532754E0
6.294577858E0,3.488087654E0,4.116881371E0,-1.420985579E0,5.579844776E0
6.302790704E0,3.563446522E0,4.354083061E0,-1.418996453E0,5.802563343E0
6.311001934E0,3.609424591E0,4.541655064E0,-1.502842069E0,5.992754866E0
6.319213396E0,3.765140533E0,4.627975464E0,-1.417679071E0,6.132230759E0
6.327425357E0,3.791534901E0,4.530653000E0,-1.141906738E0,6.017184101E0
6.335636781E0,3.697803020E0,4.386304855E0,-1.036828518E0,5.829959763E0
6.343847550E0,3.560125351E0,4.291795254E0,-9.472585917E-1,5.656085029E0
6.352058319E0,3.488570690E0,4.226642609E0,-6.821873188E-1,5.522681662E0
6.360270511E0,3.066360950E0,3.945633411E0,-8.639693260E-2,4.997805211E0
6.368482780E0,2.228595257E0,3.377276659E0,6.716740131E-1,4.101680196E0
6.376693473E0,1.195015907E0,2.691001177E0,1.297688365E0,3.217692565E0
6.384904242E0,-2.316350937E-1,1.968505263E0,1.745195389E0,2.640904151E0
6.393114973E0,-2.263166428E0,1.093555927E0,2.083097935E0,3.264518931E0
6.401327011E0,-4.828852654E0,-7.626533508E-2,2.215831280E0,5.313524500E0
6.409537511E0,-7.762611389E0,-1.395601749E0,2.215737820E0,8.192394882E0
6.417748165E0,-1.044202328E1,-2.440551758E0,1.867453456E0,1.088483006E1
6.425958819E0,-1.311069679E1,-2.989602089E0,9.648597240E-1,1.348180423E1
6.434171049E0,-1.524020863E1,-2.785487890E0,4.397668839E-1,1.549891276E1
6.442383280E0,-1.642461586E1,-2.271283865E0,6.453338861E-1,1.659346836E1
6.450596049E0,-1.666987038E1,-1.992166281E0,1.614064813E0,1.686589784E1
6.458808588E0,-1.636445618E1,-2.254928827E0,3.378311634E0,1.686099402E1
6.467019703E0,-1.594100952E1,-3.254092216E0,5.088076591E0,1.704680099E1
6.475231934E0,-1.577972317E1,-5.100000381E0,5.915274620E0,1.760682086E1
6.483444318E0,-1.582706547E1,-6.891302109E0,5.417483330E0,1.809240647E1
6.491657241E0,-1.592230892E1,-8.364525795E0,3.472177505E0,1.831778452E1
6.499871241E0,-1.594870186E1,-9.145835876E0,9.430301189E-1,1.840914747E1
6.508084626E0,-1.608508682E1,-9.159852982E0,-1.667860270E0,1.858533515E1
6.516347164E0,-1.611387253E1,-8.243633270E0,-3.879158497E0,1.851113848E1
6.524561088E0,-1.581802750E1,-6.658508301E0,-5.454611778E0,1.800829021E1
6.532779280E0,-1.465788078E1,-4.856173038E0,-6.022143364E0,1.657413938E1
6.540994241E0,-1.255580139E1,-3.153946877E0,-5.482115269E0,1.405877368E1
6.549208087E0,-9.874503136E0,-1.875660419E0,-4.179402351E0,1.088537175E1
6.557420357E0,-7.284789085E0,-5.213963985E-1,-2.877450943E0,7.849823575E0
6.565632741E0,-4.337941170E0,6.325057745E-1,-1.274055481E0,4.565196000E0
6.573845049E0,-1.685547829E0,1.452646255E0,3.026893139E-1,2.245634308E0
6.582057626E0,5.515260696E-1,2.113884211E0,1.875775695E0,2.879448197E0
6.590270780E0,2.551937580E0,2.641489983E0,3.357325315E0,4.976091641E0
6.598484472E0,4.617323399E0,3.045998096E0,4.598291397E0,7.193195642E0
6.606697664E0,6.737561226E0,3.502070189E0,5.519579411E0,9.387490812E0
6.614909126E0,8.600932121E0,3.882606983E0,6.218378067E0,1.130127852E1
6.623122933E0,9.854788780E0,4.101932049E0,6.508608341E0,1.250218745E1
6.631336318E0,1.087933254E1,4.072096348E0,6.417074680E0,1.327104716E1
6.639549279E0,1.128262138E1,3.908965588E0,6.080821037E0,1.339977394E1
6.647761741E0,1.136122704E1,3.681164503E0,5.177720547E0,1.301680613E1
6.655973202E0,1.141734409E1,3.438279152E0,4.246368885E0,1.265737565E1
6.664186164E0,1.135303497E1,3.046655893E0,3.515455008E0,1.226914582E1
6.672397895E0,1.126408005E1,2.514436722E0,3.074884653E0,1.194390250E1
6.680610202E0,1.120305252E1,1.967180967E0,2.798406601E0,1.171363591E1
6.688823895E0,1.125101948E1,1.538956642E0,2.581682444E0,1.164555327E1
6.697036971E0,1.122340393E1,1.183720708E0,2.304096460E0,1.151845697E1
6.705250856E0,1.115349960E1,8.226019144E-1,2.005763531E0,1.136223194E1
6.713463779E0,1.100528240E1,5.315249562E-1,1.695629597E0,1.114782128E1
6.721678356E0,1.082928944E1,3.193022013E-1,1.349854589E0,1.091776401E1
6.729893356E0,1.079095078E1,5.416548252E-2,9.963988066E-1,1.083699050E1
6.738107779E0,1.082589817E1,-2.143794298E-1,6.138023138E-1,1.084540377E1
6.746321279E0,1.085290527E1,-3.833613992E-1,1.849141121E-1,1.086124818E1
6.754535087E0,1.092712688E1,-5.313588977E-1,-2.299889177E-1,1.094245581E1
6.762749433E0,1.095780373E1,-7.317920923E-1,-7.605606318E-1,1.100851646E1
6.770963010E0,1.108872700E1,-9.179490805E-1,-1.247874737E0,1.119641408E1
6.779184048E0,1.142062092E1,-1.123865604E0,-1.580219865E0,1.158407316E1
6.787398010E0,1.181215000E1,-1.297833681E0,-1.760242224E0,1.201289776E1
6.795612663E0,1.210508919E1,-1.354140639E0,-1.857872963E0,1.232146797E1
6.803827817E0,1.203591347E1,-1.384713173E0,-1.854558825E0,1.225642819E1
6.812042933E0,1.168824387E1,-1.302318335E0,-1.926998019E0,1.191739901E1
6.820256971E0,1.131587219E1,-1.105083704E0,-1.971917272E0,1.153943808E1
6.828470356E0,1.075855255E1,-8.351933956E-1,-1.880641460E0,1.095357537E1
6.836684279E0,1.008351803E1,-5.336938500E-1,-1.606991529E0,1.022470473E1
6.844897856E0,9.357838631E0,-3.556978106E-1,-1.027601242E0,9.420808303E0
6.853112125E0,8.634355545E0,-2.740036845E-1,-3.628548086E-1,8.646319293E0
6.861325702E0,7.853359699E0,-2.991468608E-1,1.428571343E-1,7.860353400E0
6.869538817E0,6.681916237E0,-2.913985550E-1,3.325111270E-1,6.696527560E0
6.877752202E0,5.244426250E0,-3.515078425E-1,3.698691130E-1,5.269190414E0
6.885965471E0,3.861812115E0,-6.105876565E-1,5.623352528E-1,3.950016586E0
6.894178855E0,2.201192379E0,-1.375368834E0,9.904962778E-1,2.778123502E0
6.902392971E0,4.275350571E-1,-2.396751642E0,1.564791918E0,2.894093711E0
6.910606932E0,-1.622411728E0,-3.302726030E0,1.853105187E0,4.119977898E0
6.918821586E0,-3.539829254E0,-3.809999943E0,1.925217509E0,5.545534525E0
6.927036586E0,-5.329961777E0,-3.889379740E0,2.241668463E0,6.968561171E0
6.935250932E0,-7.167895317E0,-3.909810781E0,2.415462494E0,8.514681596E0
6.943463894E0,-8.736759186E0,-3.785583973E0,2.261254072E0,9.786463972E0
6.951677663E0,-9.778557777E0,-3.284286976E0,1.969058514E0,1.050161533E1
6.959891432E0,-1.038897705E1,-2.419885874E0,1.676128745E0,1.079796737E1
6.968105970E0,-1.111743641E1,-1.917484283E0,1.747045398E0,1.141605474E1
6.976319124E0,-1.182063103E1,-2.355309486E0,2.285842419E0,1.226783910E1
6.984531970E0,-1.225107861E1,-3.453511000E0,2.733645916E0,1.301877434E1
6.992744586E0,-1.255063152E1,-4.565022945E0,2.658301830E0,1.361706116E1
7.000959047E0,-1.313324738E1,-5.176201344E0,1.490567684E0,1.419496527E1
7.009173278E0,-1.405361557E1,-4.976354599E0,-4.497176409E-1,1.491544373E1
7.017387855E0,-1.504182816E1,-4.096589088E0,-2.763029814E0,1.583265518E1
7.025607855E0,-1.520833683E1,-2.476416349E0,-4.603251457E0,1.608154442E1
7.033822086E0,-1.458583260E1,-7.648175359E-1,-5.963939667E0,1.577656600E1
7.042035816E0,-1.338978481E1,3.976072073E-1,-5.996973038E0,1.467678829E1
7.050248470E0,-1.186260223E1,1.062968016E0,-5.091727734E0,1.295287320E1
7.058461009E0,-1.001225185E1,1.574297190E0,-4.009327412E0,1.089946352E1
7.066673124E0,-8.082281113E0,2.053457975E0,-3.065259695E0,8.884580724E0
7.074886739E0,-6.416037560E0,2.541983128E0,-2.455655336E0,7.325125208E0
7.083099547E0,-5.059825897E0,2.899195194E0,-1.986357331E0,6.160583279E0
7.091312316E0,-4.112277031E0,3.293250084E0,-1.657479644E0,5.523002559E0
7.099525162E0,-2.984595299E0,3.612515926E0,-1.239030361E0,4.846986347E0
7.107736816E0,-1.846662521E0,3.892707586E0,-6.294704676E-1,4.354258592E0
7.115948893E0,-6.504831314E-1,4.218282223E0,2.881383896E-1,4.277856583E0
7.124161393E0,5.920639038E-1,4.450797081E0,1.548872113E0,4.749646213E0
7.132374931E0,1.923988342E0,4.617702961E0,2.839880466E0,5.752376278E0
7.140588354E0,3.282489777E0,4.688518047E0,3.829729795E0,6.886491917E0
7.148800547E0,4.499649525E0,4.624584198E0,4.473985195E0,7.851762119E0
7.157012354E0,5.242197037E0,4.453103542E0,4.519774914E0,8.230378254E0
7.165224508E0,5.781066895E0,4.269071102E0,3.997258425E0,8.223367767E0
7.173436316E0,6.040307522E0,4.021931648E0,3.188539505E0,7.926413648E0
7.181648931E0,6.212010860E0,3.773767948E0,2.363752842E0,7.643149282E0
7.189861123E0,6.445920944E0,3.479147434E0,1.733916283E0,7.527338797E0
7.198073354E0,6.644118786E0,3.072944164E0,1.294440627E0,7.433900511E0
7.206286662E0,6.487642288E0,2.606703281E0,9.563485980E-1,7.056841156E0
7.214499662E0,6.157821655E0,2.174680233E0,6.955932975E-1,6.567484426E0
7.222714277E0,5.762104511E0,1.822546840E0,5.350807309E-1,6.067111073E0
7.230927623E0,5.053985596E0,1.358294010E0,6.320459247E-1,5.271357991E0
7.239140546E0,4.067060471E0,8.871181607E-1,8.979074955E-1,4.258426631E0
7.247353662E0,3.155280113E0,4.563385248E-1,1.207594872E0,3.409152800E0
7.255567200E0,2.351882935E0,-3.526103497E-2,1.619856834E0,2.855964433E0
7.263781200E0,1.426834106E0,-7.577097416E-1,2.156059265E0,2.694173561E0
7.271998777E0,3.771200180E-1,-1.608114481E0,2.511002541E0,3.005559091E0
7.280210546E0,-8.364095688E-1,-2.371312618E0,2.495184898E0,3.542407681E0
7.288423200E0,-1.740556717E0,-2.863209724E0,2.068554878E0,3.937820069E0
7.296637469E0,-2.578125000E0,-3.072599888E0,1.078551650E0,4.153416936E0
7.304851969E0,-3.280178070E0,-2.722396374E0,-2.602584362E-1,4.270684329E0
7.313065392E0,-3.899748802E0,-1.796485901E0,-1.703328967E0,4.619170043E0
7.321278546E0,-4.251323700E0,-5.530217886E-1,-2.898979187E0,5.175293869E0
7.329489661E0,-4.334322929E0,6.788820028E-1,-3.397668600E0,5.548998824E0
7.337703700E0,-4.234647751E0,1.661685944E0,-3.175444603E0,5.547692329E0
7.345917084E0,-3.724900246E0,2.247064114E0,-2.551948547E0,5.043473045E0
7.354130315E0,-3.123000145E0,2.422758341E0,-1.860324621E0,4.368488936E0
7.362343354E0,-2.269341469E0,2.238146544E0,-1.184142113E0,3.400206346E0
7.370556007E0,-1.326876640E0,1.827267647E0,-9.434546232E-1,2.447369056E0
7.378768930E0,-4.163160324E-1,1.278785229E0,-1.033603072E0,1.696156246E0
7.386981238E0,3.716821671E-1,6.825267076E-1,-1.173116207E0,1.407192942E0
7.395193892E0,9.665336609E-1,1.232080460E-1,-1.195388794E0,1.542180894E0
7.403406661E0,1.300042152E0,-2.505111694E-1,-1.009224415E0,1.664752043E0
7.411619007E0,1.619871140E0,-5.425107479E-1,-6.510469317E-1,1.828158234E0
7.419831084E0,1.954143047E0,-6.985158920E-1,-1.947604418E-1,2.084353888E0
7.428043238E0,2.373935223E0,-6.449756622E-1,3.375058174E-1,2.483036895E0
7.436254507E0,2.719295502E0,-4.998142719E-1,8.586515188E-1,2.895110492E0
7.444466199E0,2.951872826E0,-1.523847580E-1,1.249209285E0,3.208940344E0
7.452678084E0,3.038444042E0,2.685303688E-1,1.533394456E0,3.414022454E0
7.460890353E0,2.977169514E0,5.800629854E-1,1.639434814E0,3.447862801E0
7.469103545E0,2.739785671E0,8.353430033E-1,1.486207128E0,3.226923470E0
7.477316353E0,2.668666840E0,1.061893463E0,9.523615837E-1,3.025953241E0
7.485527468E0,2.572955608E0,1.227150679E0,4.377274513E-1,2.884025775E0
7.493739199E0,2.558470726E0,1.397118926E0,-2.309049368E-1,2.924214568E0
7.501951853E0,2.534340382E0,1.562016726E0,-8.903466463E-1,3.107329170E0
7.510164315E0,2.404754639E0,1.720104337E0,-1.489575148E0,3.310655210E0
7.518382430E0,2.306343079E0,1.883321047E0,-1.960594654E0,3.565115420E0
7.526594853E0,2.375931740E0,2.077242851E0,-2.302442789E0,3.906562721E0
7.534808161E0,2.393486023E0,2.225577354E0,-2.417560339E0,4.065288169E0
7.543021468E0,2.369053841E0,2.332690001E0,-2.150589466E0,3.959658292E0
7.551233622E0,2.525577068E0,2.460117817E0,-1.682995200E0,3.906813541E0
7.559446622E0,2.793553829E0,2.616697311E0,-1.097727418E0,3.981966009E0
7.567659545E0,2.999883652E0,2.855091810E0,-6.458025575E-1,4.191409323E0
7.575872814E0,3.082199574E0,3.086261034E0,-1.323825121E-1,4.363769759E0
7.584086622E0,3.091309071E0,3.170337439E0,3.411643505E-1,4.441128726E0
7.592299507E0,2.991649151E0,3.209009171E0,7.533948421E-1,4.451438901E0
7.600512660E0,2.675235271E0,3.105754614E0,1.079965115E0,4.238976307E0
7.608725237E0,1.849763870E0,2.883402824E0,1.272277832E0,3.654357550E0
7.616938814E0,8.960723877E-1,2.557170630E0,1.252318263E0,2.985024017E0
7.625152506E0,-1.116752625E-2,2.038342476E0,1.194352984E0,2.362507950E0
7.633365160E0,-1.319852829E0,1.366785526E0,1.282163262E0,2.292172942E0
7.641579160E0,-2.747871399E0,5.622754097E-1,1.419047832E0,3.143349744E0
7.649792622E0,-4.608798027E0,-2.142570019E-1,1.422788143E0,4.828172679E0
7.658005352E0,-6.742891312E0,-6.600465775E-1,1.396510482E0,6.917549151E0
7.666218314E0,-9.279297829E0,-8.674933910E-1,1.569766283E0,9.451035878E0
7.674430545E0,-1.191465187E1,-1.087311268E0,1.974699140E0,1.212603034E1
7.682643929E0,-1.393627739E1,-1.415045261E0,2.523620844E0,1.423344100E1
7.690857698E0,-1.476291084E1,-1.918076515E0,3.362037659E0,1.526190851E1
7.699071468E0,-1.443225193E1,-2.544239998E0,4.129191399E0,1.522541541E1
7.707284891E0,-1.351070213E1,-3.328268051E0,4.781909466E0,1.471336462E1
7.715497968E0,-1.253817749E1,-4.484385014E0,5.148679256E0,1.427671187E1
7.723710352E0,-1.194495487E1,-5.641897202E0,4.921380520E0,1.409726701E1
7.731922121E0,-1.190147400E1,-6.452117443E0,3.750963926E0,1.404794053E1
7.740134967E0,-1.234749794E1,-6.899055958E0,1.947625160E0,1.427763714E1
7.748347198E0,-1.308474159E1,-7.016091347E0,-5.443894863E-2,1.484718707E1
7.756559198E0,-1.363231659E1,-6.747257233E0,-1.771395445E0,1.531350311E1
7.764776044E0,-1.402599430E1,-5.923374176E0,-3.488690376E0,1.562004604E1
7.772986814E0,-1.388867283E1,-4.450670719E0,-4.662665367E0,1.531156919E1
7.781198852E0,-1.312389851E1,-2.528920889E0,-5.350144386E0,1.439639531E1
7.789411121E0,-1.177071095E1,-4.919157028E-1,-5.401268005E0,1.296014326E1
7.797622083E0,-9.879376411E0,1.211530924E0,-4.676733494E0,1.099735066E1
7.805834660E0,-7.826416016E0,2.588280439E0,-3.418178082E0,8.923896272E0
7.814047044E0,-5.652104378E0,3.506937981E0,-1.969205141E0,6.937050294E0
7.822260659E0,-3.760389328E0,4.259394169E0,-5.575573444E-1,5.709101223E0
7.830472813E0,-1.420703888E0,4.676938057E0,1.012906432E0,4.991806143E0
7.838685467E0,1.016160011E0,4.793501377E0,2.335386038E0,5.428099535E0
7.846898736E0,3.554865837E0,4.747918129E0,3.313042164E0,6.793824112E0
7.855110736E0,5.853718758E0,4.585360050E0,3.937272072E0,8.413896924E0
7.863324775E0,7.755667686E0,4.196571350E0,4.208831787E0,9.771174820E0
7.871538736E0,9.430137634E0,3.692646503E0,4.195329666E0,1.096193072E1
7.879753121E0,1.094635868E1,3.201381922E0,3.920429945E0,1.205990819E1
7.887966775E0,1.183784485E1,2.765670300E0,3.669003010E0,1.269823161E1
7.896180236E0,1.237232113E1,2.365457535E0,3.143871546E0,1.298282126E1
7.904394313E0,1.234154320E1,2.094123840E0,2.591089249E0,1.278330109E1
7.912608775E0,1.225092697E1,1.769945741E0,2.149289370E0,1.256333413E1
7.920824044E0,1.242438889E1,1.466126680E0,2.166630983E0,1.269682072E1
7.929038544E0,1.276898384E1,1.220342398E0,2.403740644E0,1.305044647E1
7.937253467E0,1.288455582E1,9.254417419E-1,2.542654514E0,1.316561100E1
7.945468197E0,1.263687515E1,7.338667512E-1,2.494993210E0,1.290171171E1
7.953682044E0,1.231339359E1,6.977614164E-1,2.145838976E0,1.251843272E1
7.961896236E0,1.193341732E1,6.800969839E-1,1.564358234E0,1.205471682E1
7.970110159E0,1.155467987E1,6.252540350E-1,9.833142757E-1,1.161328879E1
7.978323620E0,1.110304070E1,5.607271791E-1,3.759416938E-1,1.112354529E1
7.986536736E0,1.071295929E1,4.957739413E-1,-1.610422432E-1,1.072563393E1
7.994750467E0,1.046379089E1,4.343162775E-1,-6.414420605E-1,1.049242576E1
8.002965274E0,1.026475143E1,4.152425528E-1,-1.091502905E0,1.033096931E1
8.011184466E0,1.004894447E1,5.036394596E-1,-1.531571865E0,1.017745794E1
8.019397966E0,9.902729988E0,6.224509478E-1,-1.851007223E0,1.009345006E1
8.027611774E0,9.706542015E0,7.607572675E-1,-2.093317270E0,9.958799461E0
8.035824159E0,9.505861282E0,8.616537452E-1,-2.198940992E0,9.794855149E0
8.044036966E0,9.442037582E0,9.665371776E-1,-2.147192001E0,9.731223012E0
8.052249966E0,9.641858101E0,1.197768450E0,-1.905793309E0,9.901117363E0
8.060465312E0,9.741076469E0,1.263217688E0,-1.512370825E0,9.938387959E0
8.068679620E0,9.547810555E0,1.326600790E0,-1.072966576E0,9.699062497E0
8.076894312E0,9.243799210E0,1.307152390E0,-6.419675350E-1,9.357809226E0
8.085110235E0,8.730979919E0,1.215998292E0,-2.734621167E-1,8.819492260E0
8.093323697E0,7.858462334E0,1.150816083E0,-9.262454510E-2,7.942819853E0
8.101539466E0,6.832120895E0,9.996228218E-1,-1.872703433E-1,6.907401240E0
8.109754274E0,5.496611595E0,8.102523088E-1,-1.972223520E-1,5.559509375E0
8.117968928E0,3.747110844E0,3.397410512E-1,6.407701969E-2,3.763026644E0
8.126184581E0,1.756235123E0,-4.566360116E-1,7.148971558E-1,1.950373348E0
8.134400312E0,1.685142517E-2,-1.525768995E0,1.334004164E0,2.026776284E0
8.142615312E0,-1.761362076E0,-2.555224419E0,1.746733069E0,3.561270083E0
8.150828966E0,-3.385266304E0,-3.370328426E0,1.818758011E0,5.111459904E0
8.159043197E0,-4.743247986E0,-4.258561611E0,1.409434795E0,6.528419019E0
8.167257697E0,-6.225716591E0,-4.748236179E0,4.664397240E-1,7.843650929E0
8.175472850E0,-7.544128418E0,-4.510476112E0,-8.802490830E-1,8.833634971E0
8.183687158E0,-8.762625694E0,-3.318979263E0,-2.011238098E0,9.583543765E0
8.191901735E0,-9.724857330E0,-1.874826670E0,-2.226315260E0,1.015107407E1
8.200116966E0,-1.069701290E1,-8.618524671E-1,-1.138441086E0,1.079189153E1
8.208333120E0,-1.164195824E1,-7.900305986E-1,9.151602983E-1,1.170456570E1
8.216547273E0,-1.204979992E1,-1.521215916E0,3.356863022E0,1.260080574E1
8.224763466E0,-1.171564770E1,-3.366092682E0,5.091225624E0,1.321013093E1
8.232980004E0,-1.083835506E1,-5.617664337E0,5.661468983E0,1.345660894E1
8.241196389E0,-1.049308205E1,-7.087945461E0,4.508324623E0,1.344130695E1
8.249412196E0,-1.094146061E1,-7.306864262E0,1.575989127E0,1.325102137E1
8.257634542E0,-1.192638302E1,-5.964970589E0,-2.356810331E0,1.354156715E1
8.265850312E0,-1.298134995E1,-3.549375534E0,-5.958617687E0,1.471796989E1
8.274066350E0,-1.370617580E1,-1.148309112E0,-7.776137829E0,1.580019584E1
8.282283542E0,-1.348220730E1,4.817491770E-1,-7.358343124E0,1.536708201E1
8.290499042E0,-1.241113853E1,1.114650249E0,-5.846763134E0,1.376457206E1
8.298715312E0,-1.053926754E1,1.344538689E0,-3.740934849E0,1.126403738E1
8.306931619E0,-8.334925652E0,1.545639396E0,-2.066362619E0,8.725241615E0
8.315147388E0,-6.252757072E0,1.730697036E0,-1.153538823E0,6.589608111E0
8.323364850E0,-4.653878212E0,1.933262348E0,-1.003092170E0,5.138314862E0
8.331581273E0,-3.508088112E0,2.180103064E0,-1.121321678E0,4.279824047E0
8.339796350E0,-2.786895752E0,2.352779388E0,-1.088147163E0,3.806103392E0
8.348013234E0,-2.020717621E0,2.561041355E0,-8.230880499E-1,3.364477146E0
8.356228811E0,-1.165740013E0,2.857823610E0,-2.853267193E-1,3.099599475E0
8.364444696E0,-3.235340118E-2,3.131575584E0,6.611111164E-1,3.200762455E0
8.372660580E0,1.317375183E0,3.339429855E0,1.737754464E0,3.988365544E0
8.380875273E0,2.924689770E0,3.339895248E0,2.826182365E0,5.262700569E0
8.389088850E0,4.458664417E0,3.308773041E0,3.797163963E0,6.726523737E0
8.397302619E0,5.561686039E0,3.253232718E0,4.380873680E0,7.791529305E0
8.405516003E0,6.200217724E0,3.027227879E0,4.413386345E0,8.190530354E0
8.413729426E0,6.682117462E0,2.820862293E0,4.002890587E0,8.284388385E0
8.421943003E0,7.062347412E0,2.694860458E0,3.454475880E0,8.310982340E0
8.430156080E0,7.195391655E0,2.490070820E0,2.810738325E0,8.116302341E0
8.438370196E0,7.229790688E0,2.144733906E0,2.319305182E0,7.889799328E0
8.446587272E0,7.148714066E0,1.809134364E0,1.910717845E0,7.617606095E0
8.454802388E0,6.944692612E0,1.431219816E0,1.601017714E0,7.269140482E0
8.463016119E0,6.660723686E0,1.050300121E0,1.337418318E0,6.874376926E0
8.471232042E0,6.148097038E0,6.809774041E-1,1.144683838E0,6.290717646E0
8.479448695E0,5.397042274E0,4.618064165E-1,9.904267788E-1,5.506566597E0
8.487665003E0,4.366977692E0,2.969968319E-1,9.408084750E-1,4.477032708E0
8.495880118E0,3.278421402E0,2.583074570E-2,1.036917925E0,3.438591703E0
8.504102888E0,2.035750866E0,-4.182196856E-1,1.153422356E0,2.376882922E0
8.512318695E0,8.280363083E-1,-9.808278084E-1,1.284365892E0,1.815836739E0
8.520533541E0,-6.968879700E-2,-1.743249774E0,1.358464718E0,2.211154154E0
8.528746926E0,-7.845878601E-1,-2.527439117E0,1.449785471E0,3.017516282E0
8.536959734E0,-1.621389389E0,-3.291764259E0,1.361587048E0,3.913889980E0
8.545174887E0,-2.545248032E0,-3.780490875E0,8.954888582E-1,4.644598917E0
8.553388426E0,-3.508399963E0,-3.779838085E0,-9.024083614E-2,5.157924938E0
8.561603618E0,-4.202256203E0,-3.181041479E0,-1.208556414E0,5.407272019E0
8.569818310E0,-4.668044090E0,-1.966557741E0,-2.542563915E0,5.667681734E0
8.578032926E0,-4.768079758E0,-4.403479099E-1,-3.512452364E0,5.938502544E0
8.586247772E0,-4.456523895E0,1.005062461E0,-3.607336521E0,5.820964916E0
8.594461618E0,-3.816699982E0,2.111396074E0,-3.001663208E0,5.294825223E0
8.602676464E0,-2.954992294E0,2.848438740E0,-2.091063261E0,4.606313958E0
8.610892118E0,-2.118039131E0,3.122650146E0,-1.068601847E0,3.921599623E0
8.619108195E0,-1.332946777E0,3.013169527E0,-2.433469296E-1,3.303809231E0
8.627324079E0,-6.487350464E-1,2.714639425E0,6.705641747E-2,2.791884835E0
8.635539118E0,5.759525299E-2,2.249239683E0,-5.989778042E-2,2.250774113E0
8.643754695E0,7.938861847E-1,1.654612660E0,-4.359785318E-1,1.886286195E0
8.651968156E0,1.479344368E0,9.965743423E-1,-5.676952004E-1,1.871870193E0
8.660182887E0,1.986007214E0,3.818178177E-1,-3.749848008E-1,2.056847855E0
8.668396772E0,2.431905746E0,-1.875081062E-1,9.146249294E-2,2.440838019E0
8.676610464E0,2.860904694E0,-6.021888256E-1,6.259458065E-1,2.989852037E0
8.684824810E0,3.217823505E0,-8.348844051E-1,1.139049768E0,3.514093689E0
8.693038772E0,3.488339901E0,-9.183762074E-1,1.513751507E0,3.911952677E0
8.701253387E0,3.789718628E0,-9.474437237E-1,1.968158960E0,4.374158957E0
8.709469348E0,3.981203556E0,-8.605010509E-1,2.347060680E0,4.700971990E0
8.717685195E0,3.707751751E0,-6.357554197E-1,2.500027180E0,4.516828965E0
8.725900271E0,2.993077278E0,-3.381073475E-1,2.231416464E0,3.748606088E0
8.734114310E0,2.203916550E0,1.443531513E-1,1.584522486E0,2.718234261E0
8.742329079E0,1.868030071E0,6.676721573E-1,7.673128843E-1,2.126991189E0
8.750549464E0,1.825947762E0,1.101575375E0,-6.343126297E-3,2.132508797E0
8.758764387E0,1.997482777E0,1.346079111E0,-5.311965346E-1,2.466583908E0
8.766978271E0,2.294532299E0,1.533305645E0,-9.425269961E-1,2.916206750E0
8.775191271E0,2.760144234E0,1.771984816E0,-1.223082900E0,3.500608255E0
8.783403771E0,3.250997066E0,2.007077217E0,-1.406950593E0,4.071467899E0
8.791615348E0,3.680803299E0,2.253293037E0,-1.506635070E0,4.571169617E0
8.799830117E0,3.877320766E0,2.457735062E0,-1.538476825E0,4.841589501E0
8.808044310E0,3.979531765E0,2.571207047E0,-1.453224301E0,4.955768317E0
8.816256733E0,3.879768372E0,2.638015032E0,-1.249724269E0,4.855258662E0
8.824468963E0,3.831608295E0,2.723728657E0,-1.051135182E0,4.817136608E0
8.832682194E0,3.786974907E0,2.938270092E0,-8.424047828E-1,4.866647295E0
8.840896233E0,3.417937756E0,3.061362982E0,-4.099819064E-1,4.606769689E0
8.849110425E0,2.975930214E0,3.011506319E0,2.247463465E-1,4.239792668E0
8.857324425E0,2.693425655E0,2.827255011E0,8.521441221E-1,3.996756468E0
8.865538925E0,2.373575211E0,2.559978485E0,1.352892876E0,3.744017663E0
8.873753155E0,1.531799793E0,2.135893583E0,1.540038228E0,3.046337104E0
8.881968694E0,-2.205562592E-2,1.565772772E0,1.528738856E0,2.188417994E0
8.890183271E0,-1.979786873E0,7.891441584E-1,1.273633361E0,2.482830341E0
8.898397232E0,-3.942085266E0,5.523145199E-2,8.957617283E-1,4.042953850E0
8.906611309E0,-6.743776321E0,-6.186469793E-1,1.564618349E-1,6.773900166E0
8.914826040E0,-9.817494392E0,-9.775751829E-1,-7.445926070E-1,9.894102664E0
8.923041040E0,-1.274496174E1,-1.128372312E0,-1.708623528E0,1.290839526E1
8.931255886E0,-1.504599762E1,-8.271608353E-1,-2.125218153E0,1.521784451E1
8.939470348E0,-1.623224258E1,-4.117046595E-1,-1.480095983E0,1.630478102E1
8.947683540E0,-1.628913498E1,-1.262294054E-1,2.025941610E-1,1.629088385E1
8.955897540E0,-1.579725266E1,-3.255558014E-1,2.420648813E0,1.598495288E1
8.964111424E0,-1.539134121E1,-9.735913277E-1,4.312928677E0,1.601382584E1
8.972325040E0,-1.509450626E1,-2.331693172E0,5.997884750E0,1.640900771E1
8.980539578E0,-1.495415115E1,-4.144384861E0,6.523827076E0,1.683338594E1
8.988753155E0,-1.486002445E1,-5.621907234E0,5.494533539E0,1.681118873E1
8.996971655E0,-1.481667137E1,-6.286192417E0,3.259675264E0,1.642179797E1
9.005184809E0,-1.483428478E1,-6.315680504E0,7.367026806E-1,1.613959591E1
9.013397386E0,-1.474002457E1,-5.822402000E0,-1.697290301E0,1.593892981E1
9.021609924E0,-1.419291401E1,-4.845500946E0,-3.617144823E0,1.542729478E1
9.029822809E0,-1.328488922E1,-3.686619282E0,-4.664822578E0,1.455472477E1
9.038036078E0,-1.214664936E1,-2.149015188E0,-5.149116039E0,1.336685277E1
9.046250963E0,-1.084026623E1,-5.892090797E-1,-5.088629723E0,1.198969106E1
9.054465116E0,-9.149850845E0,8.210194707E-1,-4.622544765E0,1.028405385E1
9.062679001E0,-7.206089973E0,2.006238461E0,-3.936461449E0,8.452718746E0
9.070891732E0,-5.051491737E0,2.752589703E0,-2.986040115E0,6.481570366E0
9.079105501E0,-2.749966621E0,3.143240452E0,-1.636626840E0,4.485624189E0
9.087318693E0,-2.800245285E-1,3.279500008E0,-9.154725075E-2,3.292706324E0
9.095533270E0,2.020017147E0,3.288920641E0,1.288622856E0,4.069154350E0
9.103747001E0,4.881737232E0,3.304818869E0,2.819603443E0,6.534780007E0
9.111960885E0,7.889367104E0,3.321194887E0,4.116921425E0,9.498499397E0
9.120175193E0,1.052957153E1,3.304265976E0,5.377570152E0,1.227633134E1
9.128388924E0,1.235361290E1,3.160870075E0,6.524546146E0,1.432384563E1
9.136602001E0,1.282901382E1,3.139018774E0,7.287469387E0,1.508456975E1
9.144815731E0,1.236791039E1,3.316247463E0,7.310191154E0,1.474454473E1
9.153029231E0,1.160074139E1,3.428329945E0,6.657106400E0,1.380752377E1
9.161243039E0,1.118222046E1,3.237571716E0,5.715770245E0,1.296896120E1
9.169455270E0,1.147229099E1,2.763600111E0,5.203049660E0,1.289661475E1
9.177668808E0,1.240858269E1,2.084736824E0,5.246201038E0,1.363237607E1
9.185881539E0,1.305869198E1,1.410886049E0,5.485833168E0,1.423426855E1
9.194094077E0,1.287078094E1,8.550681472E-1,5.637516975E0,1.407727748E1
9.202307500E0,1.228997421E1,4.762113094E-1,5.274379253E0,1.338242578E1
9.210520077E0,1.150096512E1,1.703225970E-1,4.340337753E0,1.229389036E1
9.218733962E0,1.083490372E1,1.256448030E-2,3.086053848E0,1.126583440E1
9.226946693E0,1.022091389E1,-1.778886914E-1,1.878829360E0,1.039368678E1
9.235159462E0,9.693334579E0,-4.725848436E-1,4.724578857E-1,9.716341295E0
9.243379577E0,9.226436615E0,-6.728425622E-1,-8.792699575E-1,9.292629627E0
9.251592539E0,8.856311798E0,-7.594491243E-1,-2.102981806E0,9.134196960E0
9.259807192E0,8.648072243E0,-8.132610321E-1,-3.132036209E0,9.233644884E0
9.268020231E0,8.431779861E0,-8.447757959E-1,-3.888655424E0,9.323636564E0
9.276233539E0,8.310133934E0,-8.640897870E-1,-4.418619633E0,9.451411356E0
9.284447500E0,8.364141464E0,-9.095953703E-1,-4.842920303E0,9.707734197E0
9.292661769E0,8.463951111E0,-9.556628466E-1,-5.067711830E0,9.911279588E0
9.300876385E0,8.570661545E0,-1.053182483E0,-5.133434296E0,1.004577425E1
9.309089692E0,8.679177284E0,-1.017565727E0,-5.106932163E0,1.012147788E1
9.317303077E0,8.844064713E0,-9.649153352E-1,-4.910642147E0,1.016183785E1
9.325515731E0,9.022207260E0,-8.777346611E-1,-4.568382263E0,1.015089939E1
9.333728308E0,9.218632698E0,-8.177254200E-1,-4.015773773E0,1.008852332E1
9.341941769E0,9.364367485E0,-8.223972321E-1,-3.318691969E0,9.969023623E0
9.350154038E0,9.241826057E0,-8.475763202E-1,-2.740797520E0,9.676864448E0
9.358366500E0,8.793694496E0,-7.807688713E-1,-2.535212994E0,9.185094874E0
9.366579038E0,7.981950760E0,-4.840534925E-1,-2.389125824E0,8.345883292E0
9.374791000E0,6.639241219E0,-1.520201713E-1,-2.224571705E0,7.003667137E0
9.383004154E0,5.119943619E0,-7.299004495E-2,-1.772984624E0,5.418729065E0
9.391217077E0,3.450358868E0,-3.128024936E-1,-1.098687887E0,3.634547673E0
9.399429077E0,2.008904457E0,-8.497183323E-1,8.954226971E-2,2.183056614E0
9.407642577E0,1.111335754E0,-1.593718648E0,1.476776600E0,2.440466229E0
9.415855346E0,8.651447296E-2,-2.421086788E0,2.812986135E0,3.712416597E0
9.424068346E0,-1.009316444E0,-3.288887501E0,3.815296650E0,5.137313423E0
9.432281846E0,-2.282856941E0,-3.806908846E0,4.166082382E0,6.087711655E0
9.440495153E0,-4.254463196E0,-4.006059170E0,3.879637241E0,7.014310535E0
9.448708076E0,-6.258177757E0,-3.657546520E0,3.108161688E0,7.886894475E0
9.456920576E0,-8.195048332E0,-2.735223770E0,1.910325050E0,8.848141502E0
9.465133038E0,-1.014405346E1,-1.348917127E0,1.029727101E0,1.028502484E1
9.473344730E0,-1.142346382E1,-7.705143094E-2,1.226921916E0,1.148942122E1
9.481557461E0,-1.205471706E1,6.200364232E-2,2.874775410E0,1.239291659E1
9.489776153E0,-1.236665726E1,-1.561812401E0,5.659129143E0,1.368938320E1
9.497989653E0,-1.253355503E1,-4.114997864E0,7.622370720E0,1.523560778E1
9.506203422E0,-1.293552208E1,-7.124713421E0,8.008533478E0,1.679957979E1
9.514417191E0,-1.354191113E1,-8.703499794E0,5.353435516E0,1.696447870E1
9.522631268E0,-1.399282265E1,-7.800413609E0,2.525526285E-1,1.602215095E1
9.530844961E0,-1.418908501E1,-4.515897274E0,-5.897291660E0,1.601566453E1
9.539059768E0,-1.422252750E1,-7.989958525E-1,-1.051544476E1,1.770574092E1
9.547274153E0,-1.400165272E1,1.819598556E0,-1.236795139E1,1.877028075E1
9.555488422E0,-1.401357460E1,2.765994072E0,-1.074285698E1,1.787288372E1
9.563702384E0,-1.301917458E1,2.572557688E0,-7.922620296E0,1.545590088E1
9.571916268E0,-1.110670471E1,2.052547455E0,-4.691225529E0,1.223026727E1
9.580130576E0,-8.697111130E0,1.709381223E0,-2.270059109E0,9.149584391E0
9.588344730E0,-5.833057404E0,1.704735041E0,-8.133236170E-1,6.131245839E0
9.596558960E0,-2.972758293E0,2.131776810E0,-9.018242359E-2,3.659220833E0
9.604773230E0,-8.514480591E-1,2.727550507E0,3.375585079E-1,2.877228060E0
9.612986691E0,3.328208923E-1,3.251870155E0,8.682868481E-1,3.382211008E0
9.621199114E0,9.764766693E-1,3.560008764E0,1.535883427E0,3.998262996E0
9.629412653E0,1.468947411E0,3.704781532E0,2.117301941E0,4.512890449E0
9.637626383E0,2.240384579E0,3.805530071E0,2.664298534E0,5.157506070E0
9.645838768E0,3.137979507E0,3.794703722E0,3.003892422E0,5.768020580E0
9.654052614E0,4.054318428E0,3.669842243E0,2.903219700E0,6.191439625E0
9.662265883E0,4.864755630E0,3.476527691E0,2.391917467E0,6.439981467E0
9.670478383E0,5.483014107E0,3.281226158E0,1.659611464E0,6.601833003E0
9.678689383E0,5.807612896E0,3.150216341E0,9.756870270E-1,6.678637265E0
9.686901845E0,5.942545891E0,2.994164944E0,4.869043827E-1,6.672027522E0
9.695114460E0,6.084591866E0,2.811522484E0,2.628431320E-1,6.707906034E0
9.703328575E0,6.199844837E0,2.537770271E0,1.213088036E-1,6.700229084E0
9.711541998E0,6.115548134E0,2.239704370E0,1.734416485E-1,6.515081477E0
9.719756075E0,5.733265877E0,1.897550821E0,3.556231260E-1,6.049587138E0
9.727968768E0,5.191799164E0,1.611872315E0,4.533540010E-1,5.455129766E0
9.736187883E0,4.684978962E0,1.315415740E0,4.195482731E-1,4.884195655E0
9.744401960E0,4.107606411E0,8.940531015E-1,4.548720121E-1,4.228317623E0
9.752616537E0,3.534324646E0,4.398217797E-1,6.001461744E-1,3.611795860E0
9.760830421E0,3.096958160E0,6.444466114E-2,7.410575151E-1,3.185038336E0
9.769045191E0,2.797706127E0,-3.184299469E-1,8.926632404E-1,2.953879630E0
9.777258037E0,2.291566849E0,-6.718955040E-1,1.147239447E0,2.649316995E0
9.785471844E0,1.219542503E0,-1.047918558E0,1.520947576E0,2.213300420E0
9.793686190E0,-4.558563232E-3,-1.428817868E0,1.870469570E0,2.353762455E0
9.801900960E0,-1.156013489E0,-1.809505820E0,2.117858887E0,3.015958349E0
9.810114767E0,-2.290230751E0,-2.179597378E0,2.159571171E0,3.828779083E0
9.818326998E0,-3.116471291E0,-2.394996643E0,1.913765073E0,4.371601420E0
9.826540113E0,-3.400628090E0,-2.423625708E0,1.408986568E0,4.407207293E0
9.834753921E0,-3.492191315E0,-2.220430851E0,8.312573433E-1,4.220983548E0
9.842968113E0,-3.496444702E0,-1.795958042E0,-5.214238167E-2,3.931069787E0
9.851180959E0,-3.396348000E0,-1.115834236E0,-8.300204873E-1,3.670040843E0
9.859393767E0,-3.137858391E0,-3.020541668E-1,-1.449858665E0,3.469795693E0
9.867606344E0,-2.682988167E0,4.910203218E-1,-1.933421254E0,3.343298402E0
9.875820613E0,-2.200444221E0,1.153280377E0,-2.193830013E0,3.314347678E0
9.884035344E0,-1.699178696E0,1.614735126E0,-2.214753628E0,3.224858354E0
9.892248652E0,-9.945678711E-1,1.786094069E0,-2.220671654E0,3.018390278E0
9.900463382E0,-3.359680176E-1,1.790138960E0,-2.248495579E0,2.893648972E0
9.908676844E0,4.504842758E-1,1.657438517E0,-2.350979805E0,2.911553634E0
9.916890498E0,1.278119087E0,1.403669238E0,-2.538833380E0,3.170102626E0
9.925104613E0,2.067586899E0,1.089679599E0,-2.666533470E0,3.545802865E0
9.933318882E0,2.694159031E0,7.980024219E-1,-2.656252861E0,3.866649714E0
9.941533613E0,3.246742249E0,5.478608012E-1,-2.498378754E0,4.133204941E0
9.949747113E0,3.492906570E0,4.072265625E-1,-2.150550127E0,4.122025671E0
9.957960728E0,3.567288399E0,4.476993084E-1,-1.579148531E0,3.926791473E0
9.966173190E0,3.409697533E0,5.773255825E-1,-1.091416359E0,3.626366192E0
9.974385459E0,3.264383793E0,8.168977499E-1,-4.052712917E-1,3.389361046E0
9.982605190E0,3.306786537E0,1.119826436E0,2.521924973E-1,3.500349912E0
9.990818344E0,3.321802139E0,1.370472670E0,9.280015230E-1,3.711300529E0
9.999032074E0,3.362595081E0,1.572604656E0,1.568970799E0,4.030111717E0
1.000724638E1,3.498731136E0,1.733728528E0,1.862932086E0,4.326366851E0
1.001546080E1,3.433282852E0,1.838351250E0,1.854191184E0,4.313350369E0
1.002367419E1,3.231012821E0,1.823164225E0,1.609568715E0,4.044018186E0
1.003188846E1,3.045660973E0,1.770826817E0,1.121221066E0,3.697163109E0
1.004010292E1,2.992807388E0,1.690075517E0,4.037461281E-1,3.460673670E0
1.004831731E1,3.130069256E0,1.615725398E0,-2.968664169E-1,3.534972670E0
1.005653127E1,3.268748283E0,1.519206524E0,-9.855191112E-1,3.736837128E0
1.006474557E1,3.356204510E0,1.504989743E0,-1.627427101E0,4.022141446E0
1.007295946E1,3.495421410E0,1.620308399E0,-2.211494207E0,4.442305344E0
1.008117434E1,3.612805367E0,1.695079565E0,-2.430610895E0,4.672635945E0
1.008938884E1,3.442859173E0,1.645495653E0,-2.352705240E0,4.482873763E0
1.009760269E1,3.047088623E0,1.509731293E0,-2.235035896E0,4.069327108E0
1.010581730E1,2.201813698E0,1.241844177E0,-2.102035522E0,3.287660849E0
1.011403127E1,8.346719742E-1,8.909894824E-1,-1.873561025E0,2.236240254E0
1.012224519E1,-9.328193665E-1,3.293371201E-1,-1.429106474E0,1.738090971E0
1.013045927E1,-3.149515152E0,-1.455777884E-1,-1.132845521E0,3.350220524E0
1.013867311E1,-5.892562866E0,-4.193043709E-1,-7.609814405E-1,5.956274510E0
1.014688661E1,-8.476976395E0,-7.994943857E-1,-1.433873177E-1,8.515801782E0
1.015509938E1,-1.120547485E1,-1.247287393E0,6.642571688E-1,1.129422995E1
1.016331377E1,-1.334160995E1,-1.552506208E0,1.433105588E0,1.350787264E1
1.017152677E1,-1.522962284E1,-1.923043251E0,2.473784924E0,1.554860505E1
1.017974030E1,-1.639204407E1,-2.237361670E0,3.612255096E0,1.693379115E1
1.018795238E1,-1.684704971E1,-2.530995607E0,4.708785534E0,1.767488851E1
1.019616450E1,-1.684516907E1,-2.806802750E0,5.699872017E0,1.800351087E1
1.020437746E1,-1.661809921E1,-3.115031242E0,6.460542679E0,1.809981361E1
1.021259015E1,-1.616531754E1,-3.516062737E0,6.944072247E0,1.794158097E1
1.022080323E1,-1.566177273E1,-4.044436932E0,7.130440712E0,1.767743703E1
1.022902104E1,-1.528827286E1,-4.461585999E0,6.790892601E0,1.731338381E1
1.023723469E1,-1.505387115E1,-4.736874580E0,5.449409485E0,1.669590013E1
1.024544984E1,-1.482343578E1,-4.508700848E0,3.539492130E0,1.589310027E1
1.025366496E1,-1.437009335E1,-3.993382454E0,1.233478665E0,1.496556567E1
1.026188011E1,-1.379408836E1,-2.869222164E0,-1.274355412E0,1.414684740E1
1.027009373E1,-1.302077770E1,-1.181373358E0,-3.674242735E0,1.358073469E1
1.027830850E1,-1.167071152E1,5.010383129E-1,-5.340010166E0,1.284415257E1
1.028652426E1,-9.614548683E0,1.960540533E0,-5.995289326E0,1.149898951E1
1.029473904E1,-7.346166611E0,2.881942749E0,-5.362671852E0,9.540964693E0
1.030295388E1,-5.358681679E0,3.465919733E0,-4.095834732E0,7.583134648E0
1.031116854E1,-2.784024239E0,3.881116629E0,-2.320706844E0,5.310323672E0
1.031938192E1,4.526968002E-1,4.181235313E0,-6.732605696E-1,4.259218583E0
1.032759626E1,3.488202095E0,4.364933491E0,8.449971676E-1,5.651036936E0
1.033581084E1,5.938127518E0,4.412666321E0,1.963600159E0,7.654326101E0
1.034402484E1,7.960306168E0,4.335069656E0,2.661969900E0,9.446977663E0
1.035223942E1,9.598265648E0,4.141274452E0,3.084432602E0,1.089910923E1
1.036045338E1,1.104735470E1,3.609457493E0,3.338581562E0,1.209207824E1
1.036866634E1,1.211400223E1,3.070923328E0,3.321108580E0,1.293094669E1
1.037687961E1,1.305270004E1,2.513973713E0,3.043810844E0,1.363663546E1
1.038509280E1,1.328854752E1,2.018618822E0,2.811447620E0,1.373188096E1
1.039330619E1,1.299869156E1,1.659098744E0,2.819686890E0,1.340407494E1
1.040152030E1,1.257601738E1,1.441663623E0,3.184180021E0,1.305272422E1
1.040973457E1,1.208781910E1,1.302658439E0,3.639439106E0,1.269085523E1
1.041794988E1,1.158460426E1,1.163455248E0,4.017645836E0,1.231658078E1
1.042616396E1,1.115502453E1,9.208632708E-1,4.077156544E0,1.191242070E1
1.043437815E1,1.100027847E1,5.770556927E-1,3.855012894E0,1.167048603E1
1.044259226E1,1.102471542E1,1.603516936E-1,3.450611115E0,1.155321513E1
1.045080473E1,1.116607285E1,-2.491891980E-1,2.730534315E0,1.149778656E1
1.045901846E1,1.114402199E1,-6.349251270E-1,1.884955764E0,1.132013314E1
1.046723250E1,1.094405270E1,-9.117105007E-1,8.644067049E-1,1.101592958E1
1.047545265E1,1.059244633E1,-1.015544534E0,-2.917377949E-1,1.064501577E1
1.048366719E1,1.017316151E1,-1.069082141E0,-1.459786177E0,1.033281798E1
1.049188023E1,9.983256340E0,-9.542889595E-1,-2.645357847E0,1.037178831E1
1.050009338E1,9.807437897E0,-8.653712273E-1,-3.434511185E0,1.042739529E1
1.050830592E1,9.602907181E0,-6.752666831E-1,-3.993743658E0,1.042217827E1
1.051651777E1,9.695673943E0,-5.519204140E-1,-3.916852474E0,1.047150623E1
1.052473123E1,1.005037880E1,-5.850398540E-1,-3.389426708E0,1.062264558E1
1.053294430E1,1.052570534E1,-6.163585186E-1,-2.522454023E0,1.084127045E1
1.054115734E1,1.105908012E1,-6.204668880E-1,-1.542163372E0,1.118331347E1
1.054937107E1,1.148481274E1,-4.913600981E-1,-8.249579668E-1,1.152488238E1
1.055758453E1,1.196765900E1,-3.561131656E-1,-3.976134062E-1,1.197955654E1
1.056579700E1,1.226785660E1,-3.102308512E-1,-3.955572844E-2,1.227184230E1
1.057401011E1,1.223676109E1,-3.112005889E-1,2.103548050E-1,1.224252494E1
1.058222384E1,1.162295151E1,-1.744166911E-1,2.316899300E-1,1.162656885E1
1.059043550E1,1.046678352E1,2.033464164E-1,-3.370344639E-3,1.046875916E1
1.059864765E1,9.067474365E0,5.971221924E-1,-3.673924804E-1,9.094538114E0
1.060686126E1,7.365542412E0,8.817852139E-1,-4.761848748E-1,7.433405156E0
1.061507450E1,5.643924713E0,8.288585544E-1,-3.718225360E-1,5.716567560E0
1.062328719E1,4.051593304E0,4.937353134E-1,8.333647251E-2,4.082416910E0
1.063150015E1,2.814110756E0,-2.187046409E-1,8.723170757E-1,2.954316866E0
1.063971346E1,1.534021378E0,-1.508003950E0,1.948880672E0,2.902659707E0
1.064792619E1,1.820363998E-1,-2.851786375E0,2.758607388E0,3.971868263E0
1.065613946E1,-1.448767662E0,-4.125764847E0,3.029991627E0,5.319935391E0
1.066435169E1,-3.546108246E0,-5.029678345E0,2.902643681E0,6.804255160E0
1.067256276E1,-6.257034302E0,-5.688183784E0,2.855831623E0,8.925339617E0
1.068077334E1,-9.909399986E0,-5.762818336E0,2.353734016E0,1.170240775E1
1.068898546E1,-1.442768097E1,-4.829450607E0,9.721744061E-1,1.524554671E1
1.069719865E1,-1.779468918E1,-3.342355490E0,-5.193710327E-1,1.811331139E1
1.070541219E1,-2.038636398E1,-1.770360112E0,-1.174582124E0,2.049677181E1
1.071362542E1,-2.127376175E1,-1.090261459E0,-2.248731852E-1,2.130286781E1
1.072184576E1,-2.076669121E1,-1.346992850E0,1.671628714E0,2.087736085E1
1.073005884E1,-1.959414673E1,-1.887651086E0,2.824801922E0,1.988651097E1
1.073827353E1,-1.773719025E1,-2.289269924E0,2.637023211E0,1.807768143E1
1.074648696E1,-1.600683594E1,-2.100244045E0,9.627304077E-1,1.617271380E1
1.075470038E1,-1.472315216E1,-1.298480749E0,-1.373769760E0,1.484400570E1
1.076291234E1,-1.358062649E1,-5.894825459E-1,-3.238012314E0,1.397374786E1
1.077112338E1,-1.228796101E1,1.971685886E-1,-4.861932755E0,1.321632518E1
1.077933538E1,-1.037217808E1,7.324315906E-1,-5.482571602E0,1.175487667E1
1.078754796E1,-7.926584244E0,9.739133716E-1,-5.203258514E0,9.531691571E0
1.079576038E1,-5.422095299E0,1.134126425E0,-4.280726910E0,7.000713039E0
1.080397276E1,-3.143230438E0,1.270853758E0,-3.030994415E0,4.547735041E0
1.081218453E1,-1.377002716E0,1.659699559E0,-1.780003071E0,2.796274314E0
1.082039611E1,-1.770715714E-1,2.206619740E0,-5.245944262E-1,2.275021830E0
1.082860657E1,5.736589432E-1,2.724298000E0,4.266985655E-1,2.816550345E0
1.083681911E1,1.019214630E0,3.331561804E0,1.355382442E0,3.738337074E0
1.084503238E1,1.311071396E0,3.879146099E0,2.140657187E0,4.620508181E0
1.085324596E1,1.603609085E0,4.258361816E0,2.836886406E0,5.362194694E0
1.086145919E1,2.137302876E0,4.463055134E0,3.386778355E0,5.996431633E0
1.086967153E1,2.786022663E0,4.441921234E0,3.751961708E0,6.447464865E0
1.087788426E1,3.586009502E0,4.208761215E0,3.904188633E0,6.768738730E0
1.088609603E1,4.326955318E0,3.847158670E0,3.756486893E0,6.901765422E0
1.089430719E1,4.860414505E0,3.453501940E0,3.308108807E0,6.818642730E0
1.090251834E1,5.159519672E0,3.095234871E0,2.817969322E0,6.643950124E0
1.091072965E1,5.092655182E0,2.988250732E0,2.011688709E0,6.237921986E0
1.091894161E1,5.012072086E0,2.927065134E0,1.318567991E0,5.952075138E0
1.092715369E1,5.020864010E0,2.799682140E0,8.021715879E-1,5.804375483E0
1.093536572E1,4.913033009E0,2.547917366E0,5.478863716E-1,5.561470644E0
1.094357815E1,4.716969967E0,2.167507887E0,4.132155180E-1,5.207556353E0
1.095178976E1,4.494355679E0,1.714351177E0,3.638461828E-1,4.823962787E0
1.096000149E1,4.000552177E0,1.300073028E0,3.355354071E-1,4.219856824E0
1.096821807E1,3.477114201E0,8.300406933E-1,2.649030685E-1,3.584614952E0
1.097642822E1,2.868649006E0,2.875330448E-1,2.114145756E-1,2.890764344E0
1.098463846E1,2.203814507E0,-3.318210244E-1,3.802025318E-2,2.228979388E0
1.099284965E1,1.436838150E0,-8.131663799E-1,-2.198603153E-1,1.665557561E0
1.100106092E1,3.975772858E-1,-1.244170904E0,-4.263380170E-1,1.373969811E0
1.100927069E1,-6.531171799E-1,-1.564936876E0,-5.799719095E-1,1.792193319E0
1.101748072E1,-1.396076202E0,-1.618064642E0,-6.497072577E-1,2.233669955E0
1.102569103E1,-1.863753319E0,-1.520689487E0,-4.579741359E-1,2.448634979E0
1.103390099E1,-2.223373413E0,-1.325251579E0,-1.295522451E-1,2.591614336E0
1.104211242E1,-2.549039841E0,-1.186483383E0,4.522750378E-1,2.847788552E0
1.105032499E1,-2.579383850E0,-1.164945722E0,1.144484043E0,3.052894251E0
1.105853696E1,-2.268233299E0,-1.157443285E0,1.697319508E0,3.060302398E0
1.106674707E1,-1.917181015E0,-1.383603811E0,2.102931499E0,3.164216087E0
1.107495822E1,-1.818688393E0,-1.790864944E0,2.145637274E0,3.334454083E0
1.108316903E1,-1.949745178E0,-2.274921417E0,1.796210527E0,3.493300155E0
1.109137992E1,-2.002171516E0,-2.598280668E0,1.038561463E0,3.440692245E0
1.109959111E1,-2.028961182E0,-2.790053368E0,2.739355564E-1,3.460653401E0
1.110780207E1,-2.070903778E0,-2.883690357E0,-5.567132831E-1,3.593639132E0
1.111601303E1,-1.984354019E0,-2.829226017E0,-1.208074093E0,3.660822823E0
1.112422442E1,-1.769150734E0,-2.529073477E0,-1.673268676E0,3.510831103E0
1.113243603E1,-1.506808281E0,-2.078542709E0,-1.926322341E0,3.209599469E0
1.114064738E1,-1.242370605E0,-1.620040894E0,-1.914586306E0,2.798867260E0
1.114885861E1,-8.437280655E-1,-1.138909101E0,-1.765676498E0,2.264200629E0
1.115707107E1,-2.461318970E-1,-6.749867797E-1,-1.575484037E0,1.731570968E0
1.116528192E1,2.368431091E-1,-2.087905407E-1,-1.418985367E0,1.453687593E0
1.117349392E1,9.406108856E-1,1.803303957E-1,-1.235160232E0,1.562974308E0
1.118170568E1,1.721568108E0,4.070314765E-1,-9.729267359E-1,2.018924913E0
1.118991722E1,2.421752930E0,5.445443392E-1,-7.881715894E-1,2.604348334E0
1.119812884E1,3.016266346E0,6.811130047E-1,-7.508376241E-1,3.182064539E0
1.120633876E1,3.495092392E0,8.571849465E-1,-8.456120491E-1,3.696687247E0
1.121455626E1,3.868084908E0,1.077836156E0,-9.062228799E-1,4.116436753E0
1.122276661E1,4.222048759E0,1.218340874E0,-9.265782833E-1,4.490946173E0
1.123097788E1,4.506755352E0,1.347478509E0,-9.235084057E-1,4.793684377E0
1.123919026E1,4.587917328E0,1.549085140E0,-9.390151501E-1,4.932585492E0
1.124740203E1,4.788791180E0,1.761212230E0,-9.647562504E-1,5.192797329E0
1.125561418E1,5.085703373E0,1.978637218E0,-1.016247988E0,5.550868762E0
1.126382768E1,5.368604660E0,2.100519657E0,-9.424240589E-1,5.841426361E0
1.127203945E1,5.476891994E0,2.154350758E0,-9.160306454E-1,5.956230792E0
1.128025207E1,5.395963192E0,2.275578260E0,-9.805851579E-1,5.937695044E0
1.128846272E1,5.250473499E0,2.442338467E0,-1.037184477E0,5.882876915E0
1.129667561E1,5.136428833E0,2.713316917E0,-9.584171772E-1,5.887576185E0
1.130488803E1,5.106838226E0,2.768496037E0,-7.674655318E-1,5.859468433E0
1.131310180E1,5.207378387E0,2.649927855E0,-4.473211765E-1,5.859949107E0
1.132131634E1,5.321000576E0,2.483054161E0,-5.025780201E-2,5.872063602E0
1.132953115E1,5.365828037E0,2.307208538E0,3.305979967E-1,5.850180920E0
1.133774538E1,5.085100651E0,2.239358664E0,5.592225790E-1,5.584416330E0
1.134596026E1,4.466418743E0,2.261878490E0,5.862841606E-1,5.040706281E0
1.135417653E1,3.572137356E0,2.247704506E0,4.744944572E-1,4.247056136E0
1.136239118E1,2.497900486E0,2.295170546E0,4.051612616E-1,3.416353366E0
1.137060638E1,7.861671448E-1,2.475474358E0,6.483054161E-2,2.598121451E0
1.137882142E1,-1.175085068E0,2.614599228E0,-2.741430998E-1,2.879602139E0
1.138703545E1,-3.102842331E0,2.491575003E0,-2.567220926E-1,3.987666330E0
1.139524868E1,-4.759302139E0,2.219143152E0,-8.773088455E-3,5.251250342E0
1.140346172E1,-6.446855545E0,1.797355890E0,3.395001888E-1,6.701320392E0
1.141167407E1,-8.144527435E0,1.321716785E0,7.129009962E-1,8.281816844E0
1.141988868E1,-9.849822998E0,9.460235238E-1,9.366080761E-1,9.939376655E0
1.142810318E1,-1.143819904E1,5.329194665E-1,1.123190999E0,1.150556207E1
1.143631726E1,-1.339817333E1,-6.040966511E-2,1.409563899E0,1.347225179E1
1.144453153E1,-1.500634670E1,-6.864136457E-1,2.061014175E0,1.516276309E1
1.145274580E1,-1.624797630E1,-1.384127021E0,3.053429127E0,1.659023722E1
1.146096826E1,-1.692414474E1,-2.238012791E0,4.129457951E0,1.756382076E1
1.146918257E1,-1.702509117E1,-3.177325726E0,5.097288609E0,1.805357248E1
1.147739784E1,-1.685038757E1,-4.147030354E0,5.719529629E0,1.827146522E1
1.148561168E1,-1.658999825E1,-5.007582188E0,5.669662952E0,1.823318401E1
1.149382614E1,-1.632349014E1,-5.507807255E0,4.888493061E0,1.790780935E1
1.150203857E1,-1.607477570E1,-5.763278961E0,3.309787750E0,1.739449605E1
1.151025084E1,-1.585281181E1,-5.715904713E0,1.355129838E0,1.690619963E1
1.151846280E1,-1.559503174E1,-5.306921005E0,-7.486205101E-1,1.649026556E1
1.152667495E1,-1.533476257E1,-4.426106930E0,-2.692255259E0,1.618621649E1
1.153488722E1,-1.467903423E1,-3.272925615E0,-4.204110622E0,1.561603772E1
1.154309942E1,-1.345441628E1,-1.935838699E0,-5.286341667E0,1.458472478E1
1.155131118E1,-1.157857990E1,-5.916286111E-1,-5.470298290E0,1.281942668E1
1.155952418E1,-9.621065140E0,4.454875588E-1,-4.972273350E0,1.083913538E1
1.156773684E1,-7.160394669E0,1.368463278E0,-3.810563803E0,8.225833699E0
1.157594995E1,-4.520744324E0,2.070429564E0,-2.222497225E0,5.446402641E0
1.158416330E1,-1.874926567E0,2.530976295E0,-8.163286448E-1,3.253856650E0
1.159237495E1,5.294141769E-1,2.848403215E0,3.632727861E-1,2.919871121E0
1.160058703E1,2.940642357E0,3.094711065E0,1.249128580E0,4.448026108E0
1.160879976E1,5.255899906E0,3.291729212E0,1.738922715E0,6.440793215E0
1.161701018E1,7.326774120E0,3.434058905E0,1.841053843E0,8.298425081E0
1.162522103E1,8.688926697E0,3.434937954E0,1.749691010E0,9.505664865E0
1.163343272E1,9.765909195E0,3.364061594E0,1.605807900E0,1.045315798E1
1.164164507E1,1.035141087E1,3.186012030E0,1.376265764E0,1.091771437E1
1.164985822E1,1.057948971E1,2.949510098E0,1.095841765E0,1.103748529E1
1.165807084E1,1.059577465E1,2.679536343E0,7.265601158E-1,1.095345813E1
1.166628234E1,1.078083992E1,2.255963802E0,4.176952243E-1,1.102226616E1
1.167449380E1,1.136934280E1,1.812358379E0,3.080453873E-1,1.151700875E1
1.168270611E1,1.188723278E1,1.445926547E0,5.728419423E-1,1.198854264E1
1.169091768E1,1.210218239E1,1.009774804E0,9.806208611E-1,1.218376301E1
1.169913180E1,1.265822601E1,2.968845069E-1,1.644739270E0,1.276808496E1
1.170734876E1,1.357948875E1,-3.147056699E-1,2.361523390E0,1.378689041E1
1.171555999E1,1.420281506E1,-7.986513972E-1,2.975060225E0,1.453302387E1
1.172377114E1,1.416675949E1,-1.173424959E0,3.212014437E0,1.457364187E1
1.173198161E1,1.340216827E1,-1.310303211E0,2.825016737E0,1.375920523E1
1.174019330E1,1.248145866E1,-1.229104400E0,1.928190470E0,1.268918541E1
1.174840515E1,1.150768185E1,-1.103229046E0,1.056976914E0,1.160866297E1
1.175661661E1,1.064847755E1,-1.055772066E0,4.661731720E-1,1.071083780E1
1.176482895E1,1.006182766E1,-9.880002141E-1,-2.190202475E-3,1.011021884E1
1.177304095E1,9.333492279E0,-8.389092684E-1,-3.964198232E-1,9.379498684E0
1.178125191E1,8.923083305E0,-5.600365996E-1,-5.833674669E-1,8.959652575E0
1.178946288E1,8.857007027E0,-3.434448242E-1,-4.783587158E-1,8.876562109E0
1.179767568E1,9.063705444E0,-3.620610237E-1,-7.775834203E-2,9.071267327E0
1.180588780E1,9.533850670E0,-6.323221922E-1,3.968237638E-1,9.563033465E0
1.181409976E1,1.027230835E1,-8.141061664E-1,7.302321196E-1,1.033035946E1
1.182231318E1,1.076687336E1,-8.728155494E-1,7.578577995E-1,1.082874496E1
1.183052503E1,1.093380356E1,-9.642083645E-1,5.418868661E-1,1.098960415E1
1.183873726E1,1.076357651E1,-1.002833843E0,1.497866511E-1,1.081122986E1
1.184695088E1,1.025835419E1,-1.107701659E0,-3.490887284E-1,1.032388960E1
1.185516422E1,9.571230888E0,-1.078090310E0,-8.683710098E-1,9.670822491E0
1.186337699E1,8.534399033E0,-8.464001417E-1,-1.205844164E0,8.660624700E0
1.187158811E1,7.396522522E0,-3.939928710E-1,-1.391580105E0,7.536595451E0
1.187980038E1,6.150066376E0,-2.251174450E-1,-1.257497072E0,6.281344854E0
1.188801214E1,5.072437286E0,-4.601765871E-1,-8.554910421E-1,5.164614936E0
1.189622468E1,4.010482311E0,-1.197945476E0,6.397066712E-1,4.234178357E0
1.190443730E1,2.674909592E0,-2.507379055E0,2.346834183E0,4.353127810E0
1.191264922E1,1.688526154E0,-3.943358898E0,3.545761585E0,5.565395331E0
1.192086172E1,8.247184753E-1,-4.940722466E0,3.836834908E0,6.309691050E0
1.192907361E1,-6.170425415E-1,-5.102932930E0,3.349863291E0,6.135328031E0
1.193728641E1,-2.765607834E0,-5.065757275E0,2.681487799E0,6.364028620E0
1.194549911E1,-5.458731651E0,-4.697848320E0,1.576995730E0,7.372546752E0
1.195371741E1,-8.257244110E0,-3.736250877E0,1.871078014E-1,9.065134320E0
1.196193107E1,-1.061246872E1,-2.112117529E0,-1.109575748E0,1.087734761E1
1.197014403E1,-1.329248714E1,-2.477033138E-1,-1.968407393E0,1.343972467E1
1.197835707E1,-1.498206139E1,1.030071497E0,-1.475448370E0,1.508973686E1
1.198656953E1,-1.507826614E1,1.328529716E0,5.225503445E-1,1.514569774E1
1.199478195E1,-1.398755455E1,7.291898131E-1,3.123155832E0,1.435052272E1
1.200299630E1,-1.277551651E1,-5.069051385E-1,5.227286339E0,1.381286710E1
1.201120918E1,-1.213232613E1,-2.145758867E0,6.080564499E0,1.373939165E1
1.201942268E1,-1.215829086E1,-3.529816151E0,4.909820080E0,1.357902692E1
1.202763707E1,-1.221384525E1,-3.895001173E0,2.319921732E0,1.302808838E1
1.203585134E1,-1.223011684E1,-3.270505667E0,-1.443473339E0,1.274188293E1
1.204406603E1,-1.193297863E1,-1.855236292E0,-5.275273800E0,1.317825460E1
1.205228084E1,-1.153270912E1,-6.085926294E-2,-7.596121788E0,1.380971215E1
1.206049395E1,-1.076626778E1,1.470464945E0,-8.010107994E0,1.349950440E1
1.206870734E1,-9.595290184E0,2.375680208E0,-6.945343018E0,1.208102809E1
1.207692141E1,-8.304269791E0,2.714284658E0,-4.912869453E0,1.002319930E1
1.208513530E1,-7.111095428E0,2.887076616E0,-2.927798271E0,8.214310214E0
1.209334872E1,-6.110776901E0,3.045107603E0,-1.498154163E0,6.989902757E0
1.210156218E1,-4.679293633E0,3.250489235E0,-4.111263752E-1,5.712310746E0
1.210977434E1,-3.141991615E0,3.544686079E0,1.408107281E-1,4.738854120E0
1.211798876E1,-1.618454933E0,3.770714045E0,3.617407084E-1,4.119288424E0
1.212620184E1,-2.609682083E-1,3.846032858E0,5.672538280E-1,3.896389361E0
1.213441537E1,9.100303650E-1,3.862816334E0,8.881571293E-1,4.066734363E0
1.214262814E1,1.962299824E0,3.774717093E0,1.293210268E0,4.446515774E0
1.215084068E1,2.819324017E0,3.638812780E0,1.718982577E0,4.913699977E0
1.215905322E1,3.466917038E0,3.495272160E0,1.918692470E0,5.283731826E0
1.216726541E1,4.070064545E0,3.304951906E0,1.992671251E0,5.608820840E0
1.217547887E1,4.582863331E0,3.100359440E0,1.939216852E0,5.863056111E0
1.218369237E1,5.082094669E0,2.817531586E0,1.786256790E0,6.079217366E0
1.219190410E1,5.449775219E0,2.569857359E0,1.563952684E0,6.224963035E0
1.220012107E1,5.802785873E0,2.383533955E0,1.326030731E0,6.411857415E0
1.220833368E1,5.963397026E0,2.095855236E0,1.220247984E0,6.437679582E0
1.221654768E1,5.885899067E0,1.689460039E0,1.285913229E0,6.257128405E0
1.222475991E1,5.601188660E0,1.255118489E0,1.188006163E0,5.861739969E0
1.223297168E1,4.962883949E0,8.082135916E-1,9.063228369E-1,5.109290302E0
1.224118480E1,4.021512985E0,4.023516178E-1,5.692366362E-1,4.081480597E0
1.224939714E1,3.179216862E0,-1.318456829E-1,2.876216173E-1,3.194922430E0
1.225760899E1,2.431519032E0,-6.277074814E-1,7.114040852E-2,2.512242512E0
1.226582057E1,1.606074333E0,-1.086045504E0,-4.612225294E-2,1.939354754E0
1.227403137E1,8.203430176E-1,-1.425875664E0,-1.126765609E-1,1.648872367E0
1.228224303E1,6.001758575E-2,-1.514209509E0,-1.905371547E-1,1.527330008E0
1.229045564E1,-6.077976227E-1,-1.396710396E0,-3.109639287E-1,1.554643511E0
1.229866853E1,-1.420097351E0,-9.682871103E-1,-3.936643600E-1,1.763300327E0
1.230688034E1,-2.257294655E0,-3.379153907E-1,-4.614531398E-1,2.328627272E0
1.231509291E1,-3.148219109E0,4.198536873E-1,-5.292997956E-1,3.219894245E0
1.232330614E1,-3.788507462E0,1.110831857E0,-6.208002567E-1,3.996514626E0
1.233151991E1,-3.962346077E0,1.611803293E0,-4.102157354E-1,4.297251824E0
1.233973276E1,-3.700188637E0,1.811705232E0,-6.909000874E-2,4.120490896E0
1.234794476E1,-3.173580170E0,1.830377102E0,3.709375858E-1,3.682320752E0
1.235615703E1,-2.508378983E0,1.700889349E0,7.269738913E-1,3.116645751E0
1.236436941E1,-1.718461990E0,1.384476662E0,1.002341509E0,2.423752409E0
1.237258214E1,-1.010140419E0,1.042961955E0,9.869207144E-1,1.755609809E0
1.238079518E1,-3.714103699E-1,5.944663286E-1,7.465039492E-1,1.024013684E0
1.238900799E1,6.562328339E-2,1.704309583E-1,2.411526442E-1,3.025024374E-1
1.239722183E1,4.462604523E-1,-8.501821756E-2,-3.029056787E-1,5.460112991E-1
1.240543591E1,8.896856308E-1,-2.448372245E-1,-7.399456501E-1,1.182795567E0
1.241364818E1,1.373788834E0,-3.613589406E-1,-9.935200810E-1,1.733481524E0
1.242186180E1,1.725714207E0,-3.572390079E-1,-9.998159409E-1,2.026164146E0
1.243007664E1,2.153287411E0,-2.701607943E-1,-7.935890555E-1,2.310717879E0
1.243829083E1,2.579667091E0,-8.784592152E-2,-3.712304235E-1,2.607721464E0
1.244650845E1,2.853720188E0,2.282313406E-1,1.140133142E-1,2.865101655E0
1.245472083E1,3.185906887E0,5.702953339E-1,4.588812590E-1,3.268915947E0
1.246293380E1,3.276952744E0,8.581458926E-1,5.640075207E-1,3.434084760E0
1.247114703E1,3.007294655E0,1.043440819E0,5.194020271E-1,3.225270275E0
1.247936003E1,2.827500820E0,1.223712564E0,3.823947906E-1,3.104586784E0
1.248757272E1,2.903569698E0,1.403908491E0,1.178069115E-1,3.227313823E0
1.249578668E1,2.996858597E0,1.548996925E0,-6.115388870E-2,3.374061754E0
1.250400041E1,3.217881680E0,1.562735915E0,-1.409860849E-1,3.580053508E0
1.251221441E1,3.588729858E0,1.429648280E0,-8.352005482E-2,3.863916640E0
1.252042730E1,4.013638496E0,1.330441713E0,-2.246308327E-2,4.228459971E0
1.252863976E1,4.168906212E0,1.356478930E0,-3.083634377E-2,4.384149287E0
1.253685364E1,4.015609264E0,1.453705549E0,-1.286883354E-1,4.272579815E0
1.254506753E1,3.582139969E0,1.632730603E0,-3.795096278E-1,3.954941660E0
1.255328149E1,3.191582680E0,1.845643520E0,-6.018237472E-1,3.735611306E0
1.256149576E1,2.980726719E0,2.055150032E0,-5.614309311E-1,3.663820154E0
1.256970968E1,2.645543575E0,2.206446171E0,-3.413081765E-1,3.461762092E0
1.257792472E1,2.269809246E0,2.337455034E0,1.441998482E-1,3.261368370E0
1.258613949E1,1.944860458E0,2.333361387E0,7.695575953E-1,3.133572475E0
1.259435237E1,1.258892059E0,2.125627518E0,1.124118567E0,2.714174665E0
1.260256603E1,4.726076126E-1,1.809058070E0,1.226540327E0,2.236168650E0
1.261077960E1,-4.930658340E-1,1.464685678E0,1.023366332E0,1.853563245E0
1.261899445E1,-1.977906227E0,9.660613537E-1,6.789560318E-1,2.303555703E0
1.262720768E1,-3.589142799E0,4.414519072E-1,3.592202663E-1,3.633987482E0
1.263542187E1,-5.662110329E0,-1.213082671E-1,-5.874729156E-2,5.663714357E0
1.264363745E1,-7.869363785E0,-6.939950585E-1,-2.047072649E-1,7.902557851E0
1.265185168E1,-1.003129005E1,-1.157499313E0,-1.002893448E-1,1.009834852E1
1.266006595E1,-1.176072216E1,-1.599898100E0,3.756108284E-1,1.187498813E1
1.266828030E1,-1.300059891E1,-2.170282602E0,1.393004537E0,1.325391113E1
1.267649291E1,-1.371053028E1,-2.716965199E0,2.632503033E0,1.422289045E1
1.268470622E1,-1.385717297E1,-3.131775141E0,3.594495296E0,1.465433910E1
1.269292364E1,-1.378505516E1,-3.361262321E0,4.105135918E0,1.477084869E1
1.270113687E1,-1.362754059E1,-3.621801853E0,4.443054199E0,1.478404687E1
1.270934952E1,-1.363053513E1,-4.066887379E0,4.598093033E0,1.494903075E1
1.271756268E1,-1.381010532E1,-4.839194775E0,4.430110931E0,1.528930011E1
1.272577541E1,-1.376868057E1,-5.459222794E0,3.627386570E0,1.524918396E1
1.273399006E1,-1.366451073E1,-5.509795666E0,2.050831318E0,1.487557094E1
1.274220387E1,-1.366797066E1,-5.155111313E0,1.547369957E-1,1.460864600E1
1.275041849E1,-1.378867531E1,-4.378167152E0,-2.017894030E0,1.460711507E1
1.275863352E1,-1.380390739E1,-3.279920101E0,-4.092457771E0,1.476664978E1
1.276684829E1,-1.330159092E1,-1.640108705E0,-6.356208801E0,1.483319480E1
1.277506295E1,-1.237231922E1,2.561322451E-1,-8.073685646E0,1.477580071E1
1.278327629E1,-1.098357582E1,2.048542261E0,-8.777173042E0,1.420824514E1
1.279148849E1,-8.925738335E0,3.366866350E0,-8.085918427E0,1.250546563E1
1.279970241E1,-6.564343452E0,4.170908928E0,-6.390106201E0,1.006581062E1
1.280791545E1,-4.074841499E0,4.518243313E0,-4.274213791E0,7.435573913E0
1.281613145E1,-1.704939842E0,4.636779308E0,-2.061346292E0,5.353101041E0
1.282434579E1,3.094453812E-1,4.617653847E0,-3.015987277E-1,4.637827647E0
1.283255995E1,2.757164478E0,4.437322140E0,1.275032282E0,5.377498587E0
1.284077483E1,5.206318378E0,3.980996370E0,2.199714422E0,6.913235617E0
1.284899068E1,7.538858414E0,3.443035364E0,2.700242519E0,8.716661538E0
1.285720722E1,9.531731606E0,2.908179998E0,3.238147736E0,1.047840728E1
1.286542218E1,1.124233437E1,2.249962568E0,3.856145144E0,1.209637421E1
1.287363652E1,1.270404911E1,1.448411226E0,4.632622242E0,1.359970396E1
1.288185037E1,1.391495419E1,5.863577127E-1,5.516870499E0,1.498017441E1
1.289006445E1,1.491587830E1,-6.158752739E-2,6.087089539E0,1.611024138E1
1.289828002E1,1.582437325E1,-5.782716870E-1,6.221124172E0,1.701315881E1
1.290649491E1,1.618344307E1,-9.529976845E-1,5.910443306E0,1.725529989E1
1.291470976E1,1.607243156E1,-1.179573536E0,5.057629585E0,1.689065029E1
1.292292660E1,1.547718716E1,-1.269261360E0,3.908982754E0,1.601357215E1
1.293114249E1,1.452472496E1,-1.307228565E0,2.659823656E0,1.482400565E1
1.293936553E1,1.362683487E1,-1.318159103E0,1.568672657E0,1.378001836E1
1.294758022E1,1.291506100E1,-1.387384176E0,7.002654076E-1,1.300822844E1
1.295579649E1,1.226482677E1,-1.454556584E0,1.067921519E-2,1.235078235E1
1.296401318E1,1.176931763E1,-1.453281641E0,-5.283610225E-1,1.187046883E1
1.297222972E1,1.128016663E1,-1.435902834E0,-1.067687035E0,1.142120535E1
1.298044499E1,1.086951351E1,-1.339485645E0,-1.572290182E0,1.106402468E1
1.298865968E1,1.057624149E1,-1.260089159E0,-1.873291492E0,1.081452402E1
1.299687572E1,1.041052723E1,-1.210656643E0,-1.997037172E0,1.066925134E1
1.300509110E1,1.011902618E1,-1.106809378E0,-1.996148825E0,1.037325060E1
1.301330560E1,9.730687141E0,-9.458864927E-1,-1.930327415E0,9.965296656E0
1.302152095E1,9.455993652E0,-7.872096300E-1,-1.852147579E0,9.667779766E0
1.302973549E1,9.292210579E0,-6.435913444E-1,-1.794859886E0,9.485826757E0
1.303795099E1,9.107230186E0,-5.987634063E-1,-1.644409657E0,9.273847228E0
1.304616606E1,8.752103806E0,-6.203927398E-1,-1.558860302E0,8.911467534E0
1.305438072E1,8.343625069E0,-4.747892618E-1,-1.732280254E0,8.534770003E0
1.306259460E1,8.027503967E0,-1.720839143E-1,-1.863419533E0,8.242740150E0
1.307080879E1,7.538105011E0,1.230776310E-3,-1.592617035E0,7.704508920E0
1.307902372E1,7.009914398E0,6.021064520E-2,-1.274897814E0,7.125158919E0
1.308723833E1,6.543787003E0,1.320543289E-1,-8.643156290E-1,6.601941244E0
1.309545272E1,5.956043243E0,1.205421090E-1,-2.577279210E-1,5.962835332E0
1.310366783E1,5.053176880E0,-1.897602677E-1,6.442050934E-1,5.097607845E0
1.311188214E1,4.165559292E0,-7.836888433E-1,1.636911511E0,4.543735436E0
1.312009741E1,3.367386818E0,-1.352582455E0,2.242142200E0,4.265674029E0
1.312831114E1,2.028578758E0,-1.676005125E0,2.354267836E0,3.530821717E0
1.313652533E1,1.698780060E-1,-1.804540157E0,2.021884203E0,2.715370959E0
1.314473926E1,-1.948610306E0,-1.794675350E0,1.389694333E0,2.991520028E0
1.315295306E1,-4.081099510E0,-1.634404898E0,8.056863546E-1,4.469427601E0
1.316116756E1,-5.703631401E0,-1.427466869E0,3.735241890E-1,5.891399931E0
1.316938218E1,-7.412282944E0,-1.007206440E0,2.433469296E-1,7.484358421E0
1.317759641E1,-8.722697258E0,-5.542586446E-1,7.352380753E-1,8.771158711E0
1.318581587E1,-9.869074821E0,-3.417255580E-1,1.937597752E0,1.006328471E1
1.319403056E1,-1.102311611E1,-7.730854750E-1,3.579110384E0,1.161536832E1
1.320224425E1,-1.203401661E1,-1.770532846E0,5.128107071E0,1.320037213E1
1.321045737E1,-1.321367836E1,-2.845681667E0,6.098699093E0,1.482880071E1
1.321867125E1,-1.480485344E1,-3.778571844E0,6.229871750E0,1.650068461E1
1.322688341E1,-1.615935135E1,-4.057528973E0,5.229957104E0,1.746254932E1
1.323509522E1,-1.668048477E1,-3.491748095E0,3.046115160E0,1.731212565E1
1.324330772E1,-1.680453873E1,-2.141144037E0,4.900169373E-1,1.694748171E1
1.325152098E1,-1.637931633E1,-8.228489161E-1,-1.685410023E0,1.648634862E1
1.325973468E1,-1.502840328E1,-1.435235143E-1,-2.844780922E0,1.529595642E1
1.326794756E1,-1.311008549E1,6.049312279E-2,-3.448826313E0,1.355626806E1
1.327616052E1,-1.112879467E1,6.096857414E-2,-3.846489429E0,1.177494242E1
1.328437356E1,-9.553531647E0,7.885420322E-2,-4.291220188E0,1.047333546E1
1.329258645E1,-8.393791199E0,2.154596895E-1,-4.901441574E0,9.722462809E0
1.330079952E1,-7.590737343E0,5.431505442E-1,-5.785102844E0,9.559378685E0
1.330901279E1,-6.846617699E0,1.149358034E0,-6.337375164E0,9.399974562E0
1.331722637E1,-6.218849182E0,1.871302843E0,-5.891830921E0,8.768667577E0
1.332544033E1,-5.314231873E0,2.571858644E0,-4.665774822E0,7.524956609E0
1.333365491E1,-3.839224815E0,3.051135302E0,-2.495830059E0,5.502566810E0
1.334187014E1,-1.854214668E0,3.366539240E0,3.789548874E-1,3.862033829E0
1.335008437E1,3.687200546E-1,3.585780144E0,3.301067591E0,4.887823744E0
1.335829745E1,2.482276440E0,3.748955727E0,5.734590054E0,7.287104257E0
1.336651029E1,3.875751019E0,3.866606712E0,7.146599770E0,9.002554176E0
1.337472364E1,5.077898502E0,3.889489651E0,7.888884544E0,1.015616474E1
1.338293614E1,5.808508873E0,3.859002590E0,7.656558990E0,1.035633004E1
1.339114879E1,6.386343002E0,3.701669216E0,6.524830818E0,9.851961690E0
1.339936275E1,6.746947765E0,3.316055059E0,5.012643814E0,9.035713769E0
1.340757572E1,6.992744446E0,2.758912325E0,3.280843019E0,8.202073093E0
1.341578845E1,7.036031723E0,2.242631674E0,1.683988214E0,7.574361725E0
1.342400125E1,6.920946121E0,1.818985581E0,4.736497402E-1,7.171648892E0
1.343222206E1,6.754811764E0,1.474848509E0,-3.787567616E-1,6.924313451E0
1.344043498E1,6.441613197E0,1.155071020E0,-1.032011986E0,6.625225912E0
1.344864868E1,6.122655869E0,7.903696299E-1,-1.177611113E0,6.284772627E0
1.345686333E1,5.831655979E0,3.541824818E-1,-9.627888203E-1,5.921200807E0
1.346507729E1,5.367579460E0,-9.687975049E-2,-5.921773911E-1,5.401015554E0
1.347329298E1,4.598532200E0,-7.034536600E-1,-1.164793968E-1,4.653483952E0
1.348150837E1,3.435599327E0,-1.524647355E0,4.117296934E-1,3.781192092E0
1.348972283E1,2.496027470E0,-2.472251654E0,6.598632932E-1,3.574577029E0
1.349793756E1,1.738772392E0,-3.289198399E0,6.002939939E-1,3.768621554E0
1.350615060E1,7.780084610E-1,-4.095928192E0,1.843464971E-1,4.173237179E0
1.351436510E1,2.124929428E-1,-4.674454212E0,-5.171411037E-1,4.707771272E0
1.352258106E1,-1.421766281E-1,-4.866978645E0,-1.557323575E0,5.112039910E0
1.353079648E1,-5.849075317E-1,-4.428291798E0,-2.854709148E0,5.301061157E0
1.353901229E1,-1.419373512E0,-3.435147047E0,-4.031856537E0,5.483677921E0
1.354722741E1,-2.620656967E0,-2.044806480E0,-4.790765762E0,5.830995890E0
1.355544248E1,-3.529060364E0,-6.006454229E-1,-4.914741516E0,6.080273526E0
1.356365641E1,-3.974326134E0,3.046612144E-1,-4.468949795E0,5.988288482E0
1.357187064E1,-4.033280373E0,9.721786976E-1,-3.593450546E0,5.488658198E0
1.358008679E1,-3.641276360E0,1.371139765E0,-2.405295849E0,4.574315894E0
1.358830164E1,-2.866772652E0,1.499341011E0,-1.103174686E0,3.418099368E0
1.359651548E1,-1.879239082E0,1.320409298E0,2.457392216E-2,2.296872683E0
1.360472891E1,-9.182119370E-1,9.633167982E-1,8.763589859E-1,1.593454576E0
1.361294248E1,-2.358226776E-1,6.144819260E-1,1.453842282E0,1.595887764E0
1.362115525E1,1.072063446E-1,3.264973164E-1,1.650623679E0,1.686016675E0
1.362936787E1,1.942167282E-1,1.745399833E-1,1.642737389E0,1.663361197E0
1.363758075E1,2.741622925E-2,1.260143518E-1,1.644953966E0,1.650001460E0
