"Time (s)","Linear Acceleration x (m/s^2)","Linear Acceleration y (m/s^2)","Linear Acceleration z (m/s^2)","Absolute acceleration (m/s^2)"
2.064320400E-2,-2.143564224E-1,6.153845787E-2,-2.389585972E-2,2.242914839E-1
2.885285800E-2,-2.462596893E-1,5.825448036E-2,3.977966309E-2,2.561636990E-1
3.706335800E-2,-2.192878723E-1,-6.662130356E-3,1.330062151E-1,2.565583914E-1
4.527408900E-2,-1.660194397E-1,-6.657123566E-3,1.621977091E-1,2.321957547E-1
5.348724300E-2,-6.842613220E-2,-2.471113205E-2,1.268324852E-1,1.462164660E-1
6.169962700E-2,-3.641128540E-2,9.210562706E-2,1.071434021E-1,1.459072886E-1
6.991020400E-2,8.136272430E-2,1.022856236E-1,5.347728729E-2,1.412163657E-1
7.811974300E-2,2.506284714E-1,8.227682114E-2,7.507717609E-2,2.742639027E-1
8.632878100E-2,2.023611069E-1,1.398816109E-1,4.465985298E-2,2.500227692E-1
9.453655000E-2,-5.111694336E-4,1.823289394E-1,4.392969608E-2,1.875471185E-1
1.027555890E-1,-1.594934464E-1,2.123458385E-1,3.463172913E-2,2.678213420E-1
1.109626270E-1,-3.821945190E-1,2.200448513E-1,5.706036091E-2,4.446889607E-1
1.191713960E-1,-4.680814743E-1,2.007782459E-1,1.106476784E-1,5.212054099E-1
1.273834350E-1,-5.119018555E-1,2.209949493E-1,1.906493902E-1,5.892617986E-1
1.355942810E-1,-4.810857773E-1,2.244384289E-1,2.212889194E-1,5.751390435E-1
1.438047040E-1,-2.411365509E-1,1.791253090E-1,3.209025860E-1,4.395579395E-1
1.520143190E-1,5.823707581E-2,1.634464264E-1,2.221393585E-1,2.818726413E-1
1.602247420E-1,1.923875809E-1,2.646298409E-1,1.386030912E-1,3.553206310E-1
1.684347810E-1,1.203184128E-1,2.827990055E-1,-7.719755173E-3,3.074270525E-1
1.766447040E-1,-7.050991058E-2,2.960076332E-1,-2.895867825E-1,4.200626989E-1
1.848543190E-1,-1.639299393E-1,2.797534466E-1,-5.349895954E-1,6.255788384E-1
1.930631650E-1,-1.723518372E-1,1.554849148E-1,-6.158417463E-1,6.581350705E-1
2.012738580E-1,-2.608499527E-1,1.102297306E-1,-5.953810811E-1,6.592965365E-1
2.094838960E-1,-2.060546875E-1,9.732317924E-2,-3.609410524E-1,4.268592025E-1
2.176929340E-1,-1.162691116E-1,8.266854286E-2,-1.199193597E-1,1.863685787E-1
2.259028580E-1,2.177333832E-1,4.121375084E-2,-4.984736443E-3,2.216556947E-1
2.341141650E-1,6.195735931E-1,3.846573830E-2,1.638630629E-1,6.420297140E-1
2.423247810E-1,8.552999496E-1,1.156909466E-1,3.721429110E-1,9.399003911E-1
2.505337420E-1,8.685131073E-1,1.232702732E-1,3.693120480E-1,9.517888246E-1
2.587428960E-1,8.559598923E-1,1.039514542E-1,3.320493698E-1,9.239751220E-1
2.669517030E-1,7.707185745E-1,9.415411949E-2,3.364531994E-1,8.462108926E-1
2.751603190E-1,6.226978302E-1,1.370972395E-1,1.525298357E-1,6.556017019E-1
2.833701650E-1,5.926713943E-1,1.607885361E-1,7.491993904E-2,6.186479874E-1
2.915819340E-1,5.403537750E-1,1.716721058E-1,-1.274409294E-1,5.811150528E-1
2.997921260E-1,4.361610413E-1,1.862221956E-1,-2.575432658E-1,5.396699860E-1
3.080023570E-1,3.119087219E-1,2.380640507E-1,-3.128741384E-1,5.018483531E-1
3.162122420E-1,2.081060410E-1,2.943843603E-1,-2.108820081E-1,4.176619413E-1
3.244220110E-1,1.346206665E-2,3.473074436E-1,-2.982259989E-1,4.579764558E-1
3.326316650E-1,-1.171302795E-1,3.474771976E-1,-2.574064732E-1,4.480156222E-1
3.408419340E-1,-1.951417923E-1,2.691323757E-1,-1.969733238E-1,3.864078740E-1
3.490648950E-1,-1.058712006E-1,1.642833948E-1,-2.774987817E-1,3.394161439E-1
3.572737800E-1,-1.588344574E-2,1.249018908E-1,-2.590443492E-1,2.880221190E-1
3.654822800E-1,-9.179210663E-2,1.305136681E-1,-2.652086616E-1,3.095080654E-1
3.736922420E-1,-3.117856979E-1,1.614668369E-1,-3.741706014E-1,5.131135350E-1
3.819022420E-1,-4.411115646E-1,1.769400835E-1,-4.888684154E-1,6.818207485E-1
3.901119720E-1,-5.271329880E-1,1.237764359E-1,-5.173702836E-1,7.489070726E-1
3.983218570E-1,-6.102342606E-1,1.480385065E-1,-6.217377782E-1,8.836623320E-1
4.065309340E-1,-6.236505508E-1,6.915068626E-2,-4.661404490E-1,7.816704838E-1
4.147411640E-1,-6.050729752E-1,-6.195473671E-2,-2.224468589E-1,6.476374755E-1
4.229508180E-1,-4.658851624E-1,-1.369063854E-1,-3.142154217E-2,4.866000988E-1
4.311608570E-1,-2.735233307E-1,-1.410720348E-1,2.268862724E-1,3.823528633E-1
4.393737410E-1,-2.648296356E-1,-5.366432667E-2,4.780681133E-1,5.491481738E-1
4.475854340E-1,-3.347272873E-1,1.276648045E-2,4.466372728E-1,5.582922115E-1
4.557963180E-1,-1.652145386E-1,-9.562754631E-2,4.393353462E-1,4.790156760E-1
4.640053180E-1,9.044933319E-2,-1.203604937E-1,4.395165443E-1,4.645885524E-1
4.722150100E-1,-4.955577850E-2,-4.527211189E-3,3.290582895E-1,3.327996826E-1
4.804247800E-1,-2.817878723E-1,5.324411392E-2,2.320441008E-1,3.688953854E-1
4.886334720E-1,-4.785251617E-1,-6.341457367E-3,2.836740017E-2,4.794071901E-1
4.968420870E-1,-4.218063354E-1,-4.360830784E-2,-2.091600895E-1,4.728321184E-1
5.050512410E-1,-4.160604477E-1,-1.770234108E-2,-3.486030698E-1,5.430872575E-1
5.132401260E-1,-4.457473755E-1,7.703351974E-2,-2.899246216E-1,5.372905844E-1
5.214143560E-1,-4.529170990E-1,2.163929939E-1,-3.241630197E-1,5.975294886E-1
5.296241260E-1,-3.469104767E-1,2.931492329E-1,-1.230623722E-1,4.705610471E-1
5.378350490E-1,-2.088136673E-1,4.150404930E-1,8.083939552E-2,4.715896165E-1
5.460459330E-1,-1.011180878E-1,5.406241417E-1,2.192441225E-1,5.920872533E-1
5.542559720E-1,1.144561768E-1,5.894237161E-1,3.877438307E-1,7.147487752E-1
5.624660490E-1,2.706146240E-1,6.612347364E-1,5.201088190E-1,8.837289375E-1
5.706755480E-1,2.019462585E-1,7.573980689E-1,4.991751909E-1,9.293061914E-1
5.788876250E-1,2.025451660E-1,7.711104751E-1,5.537083149E-1,9.706847104E-1
5.870988560E-1,1.168632507E-1,8.393115997E-1,5.734872818E-1,1.023224630E0
5.953173180E-1,-3.760814667E-2,8.512502313E-1,4.556535482E-1,9.662616028E-1
6.035262790E-1,-8.998966217E-2,7.682713270E-1,4.001344442E-1,8.708883652E-1
6.117355100E-1,-1.594018936E-1,6.674190760E-1,2.788602114E-1,7.406890064E-1
6.199465480E-1,-1.691179276E-1,5.577532649E-1,2.514976263E-1,6.347760502E-1
6.281545870E-1,-1.288566589E-1,4.833548069E-1,1.928092241E-1,5.361075497E-1
6.363648170E-1,1.173486710E-1,3.571497202E-1,8.740353584E-2,3.859611526E-1
6.445773560E-1,3.850393295E-1,2.576326132E-1,-1.291349530E-1,4.809424963E-1
6.527878560E-1,3.243331909E-1,2.161648273E-1,-2.627870440E-1,4.700811439E-1
6.609965870E-1,1.941690445E-1,9.383046627E-2,-4.669201970E-1,5.143153163E-1
6.692056250E-1,1.940555573E-1,-8.041489124E-2,-6.225169301E-1,6.570018587E-1
6.774132400E-1,1.347017288E-1,-1.904085875E-1,-6.629115343E-1,7.027458205E-1
6.856212790E-1,1.164674759E-1,-2.822358608E-1,-6.014887691E-1,6.745446563E-1
6.938307790E-1,1.609315872E-1,-3.504943848E-1,-4.809036851E-1,6.164524668E-1
7.020422020E-1,2.660675049E-1,-4.200859070E-1,-3.203075528E-1,5.914905027E-1
7.102538170E-1,3.929204941E-1,-4.511247873E-1,-1.888344884E-1,6.273424523E-1
7.184658560E-1,5.125589371E-1,-5.546885729E-1,-4.029226303E-2,7.563197362E-1
7.266763560E-1,6.320648193E-1,-6.186196804E-1,1.522650123E-1,8.974301526E-1
7.348861630E-1,8.303270340E-1,-6.792546511E-1,3.057861328E-1,1.115497657E0
7.430962790E-1,1.009204865E0,-6.866444349E-1,4.676608443E-1,1.307165523E0
7.513074710E-1,1.108872414E0,-6.821906567E-1,5.625713468E-1,1.418262543E0
7.595166250E-1,1.141532898E0,-6.515773535E-1,5.522165895E-1,1.425690558E0
7.677250860E-1,1.141147614E0,-5.953891277E-1,5.160760880E-1,1.386737400E0
7.759343940E-1,1.243665695E0,-5.498517752E-1,4.290671945E-1,1.425882181E0
7.841435090E-1,1.228853226E0,-4.478434324E-1,3.267506957E-1,1.348113499E0
7.923527400E-1,1.350601196E0,-4.048488140E-1,3.121609688E-1,1.444115862E0
8.005630090E-1,1.419946671E0,-2.889096737E-1,4.097592235E-1,1.505861869E0
8.087715860E-1,1.242579460E0,-1.495811939E-1,4.053291082E-1,1.315549290E0
8.169810860E-1,9.668312073E-1,-3.799569607E-2,2.577666044E-1,1.001324063E0
8.251902780E-1,6.431779861E-1,-2.029418945E-2,8.120524883E-2,6.486016254E-1
8.334013170E-1,4.656877518E-1,-6.127047539E-2,-5.516111851E-3,4.697335210E-1
8.416226240E-1,2.596826553E-1,-3.091073036E-2,-7.408875227E-2,2.718082007E-1
8.498332780E-1,4.202938080E-2,4.250872135E-2,-1.918430328E-1,2.009408109E-1
8.580445470E-1,-2.015533447E-1,1.950812340E-1,-3.808382452E-1,4.729885914E-1
8.662553550E-1,-4.208507538E-1,2.831141949E-1,-6.114654541E-1,7.944551629E-1
8.744646630E-1,-5.131320953E-1,3.564534187E-1,-8.123369813E-1,1.024819476E0
8.826757780E-1,-4.812946320E-1,4.331204891E-1,-1.022914410E0,1.210616277E0
8.908856240E-1,-4.573411942E-1,5.087844729E-1,-1.352995157E0,1.516119554E0
8.990942400E-1,-3.503055573E-1,4.302209616E-1,-1.644443750E0,1.735511252E0
9.073020860E-1,-2.400217056E-1,1.620970964E-1,-1.961094379E0,1.982366528E0
9.155390470E-1,-2.460222244E-1,-2.783882618E-1,-2.217912197E0,2.248813348E0
9.237472390E-1,-4.516363144E-1,-7.124406099E-1,-2.235992670E0,2.389813843E0
9.319555470E-1,-6.917600632E-1,-1.070028782E0,-1.897516489E0,2.285620792E0
9.401659320E-1,-7.262210846E-1,-1.267661572E0,-1.292114258E0,1.950364627E0
9.483762010E-1,-8.055963516E-1,-1.251965284E0,-6.825392246E-1,1.637761383E0
9.565874320E-1,-7.855539322E-1,-1.040516138E0,8.362346888E-2,1.306430901E0
9.647981240E-1,-7.234449387E-1,-6.498239040E-1,7.544523478E-1,1.230789190E0
9.730064700E-1,-6.311597824E-1,-2.292532921E-1,1.218733549E0,1.391485252E0
9.812157780E-1,-5.402507782E-1,9.243845940E-2,1.344646931E0,1.452064441E0
9.894257390E-1,-6.261568069E-1,3.223347664E-1,1.294570446E0,1.473731552E0
9.976350470E-1,-8.487453461E-1,3.545754552E-1,1.202557325E0,1.514013387E0
1.005844431E0,-1.131713867E0,2.364357710E-1,1.093562126E0,1.591400727E0
1.014052931E0,-1.333948135E0,1.182520390E-2,1.074428916E0,1.712879143E0
1.022262701E0,-1.507898331E0,-3.214279413E-1,1.123130798E0,1.907484230E0
1.030470970E0,-1.480882645E0,-7.002042532E-1,1.214974999E0,2.039476318E0
1.038679470E0,-1.133035660E0,-1.107619047E0,1.390369654E0,2.108012698E0
1.046887431E0,-8.498535156E-1,-1.360704184E0,1.509926438E0,2.203098891E0
1.055096739E0,-6.862449646E-1,-1.444820762E0,1.514478087E0,2.202744439E0
1.063306624E0,-6.513442993E-1,-1.386995554E0,1.261781216E0,1.984967984E0
1.071515085E0,-6.681213379E-1,-1.247887373E0,8.709037900E-1,1.661951392E0
1.079723931E0,-5.209312439E-1,-1.079457998E0,5.538105369E-1,1.320342774E0
1.087944585E0,-4.061088562E-1,-7.239323854E-1,2.603173852E-1,8.699239293E-1
1.096153085E0,-3.455410004E-1,-3.394320011E-1,8.119583130E-3,4.844363673E-1
1.104361162E0,-2.341194153E-1,-1.460206509E-2,-1.436094046E-1,2.750432366E-1
1.112571123E0,-1.560163498E-1,2.455538511E-1,-2.372492552E-1,3.753997926E-1
1.120778777E0,-1.762466431E-1,4.679520130E-1,-3.236784041E-1,5.956590257E-1
1.129015816E0,-1.945142746E-1,6.365916729E-1,-4.026543200E-1,7.779558229E-1
1.137223162E0,-2.563714981E-1,7.175090909E-1,-4.553764462E-1,8.876448323E-1
1.145430739E0,-2.756662369E-1,7.604887486E-1,-5.400947332E-1,9.726445043E-1
1.153639777E0,-3.600940704E-1,7.704181671E-1,-6.311094761E-1,1.059014194E0
1.161849315E0,-5.170564651E-1,6.766042709E-1,-8.023217916E-1,1.169983327E0
1.170058700E0,-7.439689636E-1,6.526923180E-1,-8.839385509E-1,1.326968139E0
1.178267700E0,-9.036407471E-1,5.880637765E-1,-8.389724493E-1,1.366111407E0
1.186476546E0,-8.945579529E-1,5.382196903E-1,-8.735316992E-1,1.361239140E0
1.194685008E0,-8.995847702E-1,5.138943791E-1,-9.009031057E-1,1.372940857E0
1.202895085E0,-8.669500351E-1,4.830685258E-1,-8.893073797E-1,1.332600908E0
1.211103354E0,-8.224153519E-1,4.513461590E-1,-8.810294271E-1,1.286970558E0
1.219311354E0,-7.373695374E-1,4.426538944E-1,-8.483037949E-1,1.208004815E0
1.227518315E0,-5.280570984E-1,5.210004449E-1,-7.654448748E-1,1.065922895E0
1.235727546E0,-3.310384750E-1,6.022788286E-1,-6.700742841E-1,9.598571798E-1
1.243933507E0,-1.201229095E-1,7.115206718E-1,-5.769968033E-1,9.239136815E-1
1.252141084E0,1.108884811E-1,8.246700764E-1,-5.600672364E-1,1.003021585E0
1.260351161E0,2.743616104E-1,9.160812497E-1,-5.939964056E-1,1.125749030E0
1.268560007E0,3.655776978E-1,1.001983047E0,-6.426467299E-1,1.245235680E0
1.276766546E0,3.606109619E-1,1.052861929E0,-6.912444830E-1,1.310105890E0
1.284972123E0,3.673849106E-1,1.071839809E0,-7.289730310E-1,1.347298753E0
1.293179200E0,4.553060532E-1,1.023458362E0,-7.402250767E-1,1.342648049E0
1.301386469E0,5.641336441E-1,8.708373904E-1,-6.377823949E-1,1.217937154E0
1.309592738E0,7.566595078E-1,6.946994066E-1,-4.904951155E-1,1.138299756E0
1.317800353E0,9.620885849E-1,5.558196306E-1,-3.397726715E-1,1.161893014E0
1.326007007E0,1.070144653E0,4.443255067E-1,-2.782370746E-1,1.191658762E0
1.334224353E0,1.114168167E0,4.075083137E-1,-2.882049680E-1,1.220858646E0
1.342430046E0,1.149209976E0,4.051645398E-1,-3.520060778E-1,1.268365150E0
1.350635546E0,1.251798630E0,4.131610990E-1,-4.331721961E-1,1.387566234E0
1.358843738E0,1.426665306E0,4.790471196E-1,-5.269312859E-1,1.594527083E0
1.367053045E0,1.539519310E0,5.224221945E-1,-6.498060226E-1,1.750797682E0
1.375261353E0,1.666911125E0,6.187641025E-1,-7.411299348E-1,1.926326892E0
1.383467238E0,1.640936852E0,6.336299181E-1,-8.185708523E-1,1.940159494E0
1.391672392E0,1.406263351E0,5.934395194E-1,-9.017190933E-1,1.772806927E0
1.399880968E0,1.137798309E0,5.153110623E-1,-9.005419016E-1,1.539839667E0
1.408089315E0,8.502111435E-1,3.724343181E-1,-7.151548862E-1,1.171756298E0
1.416298968E0,6.131801605E-1,2.557387948E-1,-4.497334957E-1,8.022795383E-1
1.424508584E0,4.770832062E-1,1.346614361E-1,-1.141582727E-1,5.086985347E-1
1.432717968E0,4.108867645E-1,1.515960693E-2,2.662274837E-1,4.898314200E-1
1.440927930E0,5.222072601E-1,-7.146298885E-2,5.500018597E-1,7.617804322E-1
1.449137199E0,4.588785172E-1,-8.347833157E-2,7.214344144E-1,8.590726044E-1
1.457347276E0,3.262968063E-1,-3.254330158E-2,8.112386465E-1,8.750067508E-1
1.465555814E0,1.124849319E-1,1.159107685E-2,7.806786895E-1,7.888259816E-1
1.473765084E0,-5.805873871E-2,2.761912346E-2,6.804383993E-1,6.834691276E-1
1.481973930E0,-1.302852631E-1,9.482657909E-2,5.445919633E-1,5.679319822E-1
1.490181853E0,-3.149681091E-1,1.888641119E-1,4.933475852E-1,6.150336595E-1
1.498390660E0,-4.397554398E-1,2.379664183E-1,4.049234986E-1,6.434095918E-1
1.506599276E0,-3.058900833E-1,1.911669970E-1,2.132791281E-1,4.190483865E-1
1.514808468E0,-2.222700119E-1,2.401024103E-2,-1.724362373E-4,2.235631445E-1
1.523017929E0,-2.345790863E-1,-1.710442901E-1,-1.646615863E-1,3.337617936E-1
1.531225737E0,-3.931217194E-1,-3.642248511E-1,-2.404717207E-1,5.873934600E-1
1.539432891E0,-5.062122345E-1,-5.353749394E-1,-2.762854099E-1,7.868994725E-1
1.547640314E0,-4.012765884E-1,-6.822255254E-1,-1.454524398E-1,8.047428037E-1
1.555849237E0,-8.302211761E-2,-7.851137519E-1,9.131926298E-2,7.947549831E-1
1.564059852E0,2.833919525E-1,-8.172493577E-1,3.141162395E-1,9.202589436E-1
1.572268737E0,5.782403946E-1,-6.748871803E-1,5.025678277E-1,1.020984369E0
1.580488775E0,8.540792465E-1,-4.182017446E-1,5.357838273E-1,1.091516545E0
1.588738314E0,1.211318970E0,-1.782751679E-1,4.282826781E-1,1.297112846E0
1.596947391E0,1.697522163E0,7.200556993E-2,2.036660910E-1,1.711211902E0
1.605155583E0,1.797555923E0,4.257110357E-1,-1.177238822E-1,1.851025688E0
1.613391160E0,1.516221046E0,7.138645649E-1,-5.329437256E-1,1.758567000E0
1.621599737E0,1.167079926E0,7.714123130E-1,-1.046074986E0,1.746832959E0
1.629807198E0,8.196887970E-1,6.232759953E-1,-1.429894328E0,1.762089805E0
1.638015275E0,4.286708832E-1,3.975411355E-1,-1.568942666E0,1.674329349E0
1.646224737E0,9.717273712E-2,1.038131118E-1,-1.433570862E0,1.440605817E0
1.654432891E0,-9.365081787E-3,-2.740192413E-1,-1.080394030E0,1.114641426E0
1.662648775E0,-1.762104034E-2,-6.466073394E-1,-7.097551823E-1,9.602936901E-1
1.670859544E0,5.799579620E-2,-1.084869623E0,-3.321346939E-1,1.136054165E0
1.679069275E0,1.815938950E-1,-1.518537641E0,6.724339724E-2,1.530834603E0
1.687278506E0,4.129581451E-1,-1.793092012E0,5.287450552E-1,1.914493335E0
1.695513544E0,5.533485413E-1,-1.783388495E0,8.952718973E-1,2.070792337E0
1.703722390E0,5.838069916E-1,-1.560529470E0,1.006721497E0,1.946682050E0
1.711930890E0,6.099061966E-1,-1.266537309E0,9.471856356E-1,1.695070191E0
1.720141775E0,6.389503479E-1,-9.842390418E-1,7.414987683E-1,1.388093823E0
1.728351159E0,5.223407745E-1,-7.158524394E-1,5.138508677E-1,1.024366787E0
1.736558852E0,2.910194397E-1,-3.751845360E-1,2.645493150E-1,5.435458494E-1
1.744768544E0,5.128955841E-2,-1.368296742E-1,1.419458389E-1,2.037194143E-1
1.752977852E0,-1.915979385E-1,-4.859799147E-2,1.604968905E-1,2.546189048E-1
1.761185313E0,-4.342603683E-1,-4.831993580E-2,3.275772333E-1,5.460986426E-1
1.769395582E0,-6.073045731E-1,-1.007391214E-1,5.745896697E-1,8.420929305E-1
1.777631005E0,-8.280563354E-1,-2.701877356E-1,7.834200859E-1,1.171505757E0
1.785838390E0,-1.084553719E0,-4.490966499E-1,1.007839680E0,1.547153964E0
1.794046813E0,-1.314619064E0,-6.729140282E-1,1.140312910E0,1.865837642E0
1.802254890E0,-1.487201691E0,-9.372802377E-1,1.322641492E0,2.199919005E0
1.810463390E0,-1.518551826E0,-1.144730091E0,1.400854588E0,2.361948392E0
1.818672159E0,-1.538101196E0,-1.323392391E0,1.333907604E0,2.428257031E0
1.826891928E0,-1.572210312E0,-1.498598814E0,1.093502522E0,2.431746581E0
1.835100467E0,-1.656799316E0,-1.639404535E0,8.660253286E-1,2.486489709E0
1.843309582E0,-1.691309929E0,-1.689628959E0,6.562550068E-1,2.479122007E0
1.851519428E0,-1.577552795E0,-1.662139654E0,4.709779024E-1,2.339487388E0
1.859755351E0,-1.449481010E0,-1.655418873E0,2.266682386E-1,2.211964135E0
1.867963967E0,-1.438582420E0,-1.588202834E0,9.729599953E-2,2.145081382E0
1.876173159E0,-1.372467995E0,-1.537871838E0,2.249121666E-2,2.061364606E0
1.884382274E0,-1.366094589E0,-1.478044510E0,7.231116295E-3,2.012680374E0
1.892589582E0,-1.306950569E0,-1.432115555E0,-2.043193579E-2,1.938941004E0
1.900798120E0,-1.254867554E0,-1.474801898E0,8.283257484E-3,1.936440505E0
1.909005736E0,-1.245789528E0,-1.507216334E0,9.819906950E-2,1.957890621E0
1.917213428E0,-1.246264458E0,-1.581871033E0,2.261392474E-1,2.026482179E0
1.925420543E0,-1.165371895E0,-1.662473559E0,4.119306803E-1,2.071616971E0
1.933628813E0,-1.134822845E0,-1.669591188E0,6.102894545E-1,2.108983368E0
1.941863466E0,-1.046905518E0,-1.679629564E0,7.545272112E-1,2.118130768E0
1.950071274E0,-8.991880417E-1,-1.686290979E0,8.369511962E-1,2.086289459E0
1.958281697E0,-8.137617111E-1,-1.674409747E0,8.907096982E-1,2.063787753E0
1.966490312E0,-6.876144409E-1,-1.644064903E0,8.860258460E-1,1.990177084E0
1.974701120E0,-4.920072556E-1,-1.677973628E0,8.465519547E-1,1.942760111E0
1.982911543E0,-2.819938660E-1,-1.671311498E0,7.748924494E-1,1.863668686E0
1.991122658E0,-1.269693375E-1,-1.655383468E0,7.833662629E-1,1.835777312E0
1.999333428E0,5.927658081E-2,-1.647028804E0,8.050655127E-1,1.834215929E0
2.007542466E0,2.456388474E-1,-1.615489960E0,7.948936224E-1,1.817141195E0
2.015753081E0,4.081850052E-1,-1.563542247E0,7.988257408E-1,1.802609753E0
2.023988504E0,5.110349655E-1,-1.503475785E0,7.859019637E-1,1.771789510E0
2.032197543E0,5.613965988E-1,-1.379193306E0,7.943599820E-1,1.687704979E0
2.040405851E0,6.047182083E-1,-1.246011019E0,8.032225370E-1,1.601060278E0
2.048614466E0,7.367448807E-1,-1.142897010E0,8.364829421E-1,1.596468073E0
2.056824966E0,7.697830200E-1,-9.905780554E-1,8.541139364E-1,1.517669726E0
2.065034774E0,6.952056885E-1,-7.649984360E-1,8.631757498E-1,1.346701872E0
2.073256235E0,6.709880829E-1,-6.087749004E-1,7.737824917E-1,1.191457608E0
2.081466927E0,8.047609329E-1,-6.693834066E-1,5.365343690E-1,1.176258234E0
2.089676812E0,8.905010223E-1,-8.898773193E-1,1.948457062E-1,1.273906811E0
2.097887120E0,7.509546280E-1,-1.112801313E0,-9.853693843E-2,1.346094033E0
2.106123158E0,5.873203278E-1,-1.296258569E0,-2.637158036E-1,1.447334609E0
2.114333620E0,5.648536682E-1,-1.480919957E0,-2.827624679E-1,1.610011863E0
2.122544389E0,6.860103607E-1,-1.710660458E0,-1.835649908E-1,1.852205583E0
2.130755773E0,7.306118011E-1,-1.778877258E0,-3.307050467E-2,1.923354248E0
2.138968581E0,6.916484833E-1,-1.641173601E0,2.064110637E-1,1.792884252E0
2.147181466E0,6.549243927E-1,-1.269310713E0,6.175408959E-1,1.556095243E0
2.155395196E0,8.009424210E-1,-6.943172812E-1,9.478957653E-1,1.422002683E0
2.163609735E0,9.383888245E-1,-1.283705235E-2,1.165923595E0,1.496701776E0
2.171823235E0,8.324794769E-1,6.411802769E-1,1.149727702E0,1.557564771E0
2.180037389E0,6.696796417E-1,1.060108066E0,9.286130071E-1,1.560327546E0
2.188275581E0,4.375753403E-1,1.312011003E0,6.362123489E-1,1.522370259E0
2.196487504E0,2.482452393E-1,1.398874998E0,4.077648222E-1,1.478089682E0
2.204700273E0,7.735061646E-2,1.285108805E0,2.250006199E-1,1.306947985E0
2.212912427E0,-1.949405670E-1,1.019794106E0,8.227145672E-2,1.041513532E0
2.221125504E0,-4.995288849E-1,6.131510735E-1,-8.049800992E-2,7.949611785E-1
2.229337465E0,-7.980060577E-1,1.378815174E-1,-2.885164917E-1,8.596899133E-1
2.237549811E0,-9.464435577E-1,-3.074421287E-1,-4.951678216E-1,1.111515741E0
2.245761965E0,-9.156942368E-1,-6.916831732E-1,-6.977928877E-1,1.343069790E0
2.253973004E0,-6.074256897E-1,-9.629183412E-1,-8.875392675E-1,1.443573224E0
2.262183927E0,-3.398399353E-1,-1.100033998E0,-1.163355231E0,1.636753303E0
2.270422696E0,-1.293764114E-1,-1.150387526E0,-1.381120682E0,1.802116548E0
2.278633927E0,7.675838470E-2,-1.121548653E0,-1.744384527E0,2.075244711E0
2.286845465E0,4.884243011E-2,-9.061570764E-1,-1.891687155E0,2.098091161E0
2.295056119E0,1.182937622E-2,-5.964866281E-1,-1.686792254E0,1.789190974E0
2.303268042E0,-1.351490021E-1,-2.584477663E-1,-1.478368044E0,1.506861830E0
2.311479119E0,-2.244863510E-1,-1.671607494E-1,-1.258367538E0,1.289118187E0
2.319701157E0,-3.066654205E-1,-1.715714931E-1,-9.218593836E-1,9.865623044E-1
2.327913119E0,-5.185956955E-1,-1.441437006E-1,-6.037257314E-1,8.088285730E-1
2.336125234E0,-7.167129517E-1,-1.235787868E-1,-1.477139592E-1,7.421378480E-1
2.344337465E0,-8.504066467E-1,-1.581833363E-1,3.290191889E-1,9.254550553E-1
2.352576542E0,-9.169626236E-1,-2.414382696E-1,7.093465924E-1,1.184181354E0
2.360789119E0,-8.850221634E-1,-2.976262569E-1,1.047141075E0,1.402978991E0
2.369001657E0,-8.359165192E-1,-3.165192604E-1,1.253996372E0,1.539950574E0
2.377215580E0,-7.553710938E-1,-3.036494255E-1,1.265627861E0,1.504859577E0
2.385428157E0,-7.272901535E-1,-2.575850487E-1,1.108699560E0,1.350746364E0
2.393641888E0,-8.044977188E-1,-1.715372801E-1,8.113853931E-1,1.155416753E0
2.401854118E0,-7.979745865E-1,-4.767227173E-2,5.004881620E-1,9.431460579E-1
2.410065888E0,-7.100658417E-1,2.163517475E-2,1.002274156E-1,7.174309131E-1
2.418278118E0,-7.133293152E-1,1.549665332E-1,-2.188607454E-1,7.620717579E-1
2.426487926E0,-7.215938568E-1,3.024269938E-1,-4.776070118E-1,9.166614634E-1
2.434726041E0,-7.084989548E-1,3.993720412E-1,-6.525591016E-1,1.042737828E0
2.442937618E0,-6.547813416E-1,4.892746210E-1,-7.829968929E-1,1.131906531E0
2.451149657E0,-5.939655304E-1,5.647209287E-1,-8.166285157E-1,1.156973168E0
2.459361426E0,-6.002807617E-1,6.634624004E-1,-8.833926320E-1,1.257339211E0
2.467572195E0,-6.282043457E-1,6.656268835E-1,-9.624761343E-1,1.328179264E0
2.475783157E0,-6.536912918E-1,6.549506187E-1,-1.057682991E0,1.405334810E0
2.483997310E0,-6.033048630E-1,5.950818062E-1,-1.007487297E0,1.316483865E0
2.492208426E0,-5.602416992E-1,5.076487064E-1,-9.117775559E-1,1.184447670E0
2.500419349E0,-4.263200760E-1,4.196547866E-1,-7.578507662E-1,9.655033562E-1
2.508630080E0,-2.423639297E-1,3.381471634E-1,-5.850543976E-1,7.178944398E-1
2.516867156E0,-2.039623260E-2,2.494089603E-1,-5.019540787E-1,5.608731879E-1
2.525077810E0,1.916751862E-1,1.918621659E-1,-3.979337215E-1,4.815617452E-1
2.533289156E0,3.100490570E-1,1.680768132E-1,-3.564297855E-1,5.014204073E-1
2.541545272E0,4.664726257E-1,1.565322280E-1,-3.708271384E-1,6.161264607E-1
2.549755579E0,5.749378204E-1,1.647879481E-1,-3.518611193E-1,6.939126836E-1
2.557992618E0,7.360696793E-1,2.073379755E-1,-3.766922057E-1,8.524579911E-1
2.566214579E0,9.142723083E-1,2.872970700E-1,-3.336895108E-1,1.014781824E0
2.574425079E0,1.107206345E0,4.185592532E-1,-2.651584148E-1,1.213015549E0
2.582663502E0,1.161402702E0,5.658386946E-1,-2.448474765E-1,1.314906823E0
2.590876656E0,1.146199226E0,6.275483966E-1,-2.516799271E-1,1.330763857E0
2.599089772E0,1.078338623E0,6.750730276E-1,-3.340308964E-1,1.315338138E0
2.607311425E0,9.865312576E-1,6.557440758E-1,-3.504559398E-1,1.235339460E0
2.615519887E0,8.635969162E-1,6.632034779E-1,-3.266769946E-1,1.136818519E0
2.623730195E0,7.742156982E-1,6.431195736E-1,-2.907856107E-1,1.047649276E0
2.631940425E0,6.920413971E-1,5.041813850E-1,-2.047632635E-1,8.803681948E-1
2.640176310E0,6.984405518E-1,3.207239509E-1,-1.826005578E-1,7.899531763E-1
2.648386041E0,7.525777817E-1,-5.765372515E-2,-1.594534516E-1,7.714419439E-1
2.656595579E0,7.442541122E-1,-4.745739102E-1,-2.075344324E-2,8.829299436E-1
2.664832271E0,6.641473770E-1,-7.352557182E-1,2.248188257E-1,1.015990263E0
2.673068964E0,6.632795334E-1,-8.759538531E-1,4.672094584E-1,1.193951243E0
2.681279310E0,9.285182953E-1,-9.572718740E-1,7.715169191E-1,1.540699199E0
2.689490810E0,1.325782776E0,-9.222435355E-1,9.769026041E-1,1.887477630E0
2.697701387E0,1.646908760E0,-7.411676049E-1,1.128734589E0,2.129713515E0
2.705911733E0,1.911185265E0,-3.887205124E-1,1.243229508E0,2.312866698E0
2.714122502E0,2.070676804E0,6.216049194E-3,1.184519053E0,2.385545315E0
2.722360502E0,2.122839928E0,4.267590046E-1,9.917874932E-1,2.381641249E0
2.730570040E0,2.086352348E0,7.746588588E-1,7.215110660E-1,2.339559935E0
2.738780040E0,1.857795715E0,1.073245764E0,4.614946842E-1,2.194593068E0
2.747016040E0,1.621273994E0,1.334704041E0,2.184060216E-1,2.111318411E0
2.755250963E0,1.283246040E0,1.439829469E0,7.485330105E-2,1.930137901E0
2.763461309E0,9.515190125E-1,1.396573782E0,-1.052086949E-1,1.693185055E0
2.771672463E0,6.355743408E-1,1.248974323E0,-2.576128542E-1,1.424870515E0
2.779881809E0,3.402509689E-1,9.732020497E-1,-3.720481396E-1,1.096044146E0
2.788092117E0,3.947162628E-2,5.900501013E-1,-3.882271945E-1,7.074160628E-1
2.796303617E0,-1.252937317E-1,1.395181417E-1,-3.288122714E-1,3.785252183E-1
2.804541271E0,-7.240581512E-2,-4.356888533E-1,-3.644300997E-1,5.726051663E-1
2.812762886E0,-6.025218964E-2,-9.845986962E-1,-3.952297568E-1,1.062671859E0
2.820974232E0,-7.198619843E-2,-1.522368908E0,-3.291033506E-1,1.559197909E0
2.829212194E0,-1.792869568E-1,-2.038478374E0,-2.362228334E-1,2.059936679E0
2.837450540E0,-3.821449280E-1,-2.285591841E0,-6.626313925E-2,2.318265647E0
2.845662309E0,-5.151672363E-1,-2.393560886E0,1.497229338E-1,2.452946790E0
2.853875501E0,-5.302124023E-1,-2.243890047E0,3.784621358E-1,2.336536181E0
2.862088732E0,-4.153146744E-1,-1.940334082E0,4.719037414E-1,2.039626380E0
2.870302655E0,-1.991567612E-1,-1.599644184E0,4.313982129E-1,1.668720872E0
2.878516501E0,2.709197998E-2,-1.248206973E0,3.890519738E-1,1.307714059E0
2.886756540E0,9.073162079E-2,-8.507642150E-1,3.374228477E-1,9.197206939E-1
2.894967809E0,6.820774078E-2,-5.401507616E-1,3.089023232E-1,6.259678797E-1
2.903178963E0,-2.375888824E-2,-3.560780883E-1,2.614543438E-1,4.423962744E-1
2.911415309E0,-1.659936905E-1,-3.289808035E-1,3.215524852E-1,4.890585600E-1
2.919650693E0,-4.686527252E-1,-3.850803971E-1,4.700456262E-1,7.673755142E-1
2.927860424E0,-8.599004745E-1,-4.961714149E-1,7.595751286E-1,1.250027710E0
2.936071693E0,-1.184002876E0,-6.477287412E-1,1.117715120E0,1.752341982E0
2.944282693E0,-1.424141884E0,-8.760124445E-1,1.412384868E0,2.188700282E0
2.952492386E0,-1.577895164E0,-1.074193716E0,1.654724836E0,2.526214475E0
2.960704462E0,-1.685998917E0,-1.233893156E0,1.822739363E0,2.772627536E0
2.968943155E0,-1.813202858E0,-1.386056781E0,1.844187737E0,2.934260795E0
2.977154347E0,-1.871041298E0,-1.530175686E0,1.752485394E0,2.985538180E0
2.985365309E0,-1.964963436E0,-1.637120962E0,1.556383848E0,2.993923351E0
2.993605232E0,-1.968118668E0,-1.679811478E0,1.299652815E0,2.895575095E0
3.001844578E0,-1.952213764E0,-1.635267377E0,9.828249812E-1,2.729685498E0
3.010057424E0,-1.962687969E0,-1.534817219E0,6.740215421E-1,2.581106933E0
3.018270385E0,-1.908474922E0,-1.457051635E0,3.547147512E-1,2.427158534E0
3.026482578E0,-1.873333454E0,-1.411793947E0,1.722819805E-1,2.352067486E0
3.034695693E0,-1.783044815E0,-1.406949520E0,-1.021158695E-2,2.271312405E0
3.042908001E0,-1.675880432E0,-1.370303512E0,-1.433042884E-1,2.169525998E0
3.051145577E0,-1.566178322E0,-1.373928785E0,-1.846995950E-1,2.091580451E0
3.059368231E0,-1.482697487E0,-1.418446302E0,-1.317448020E-1,2.056146503E0
3.067578731E0,-1.449458122E0,-1.462795615E0,-5.956861377E-2,2.060157343E0
3.075817000E0,-1.432958603E0,-1.487996221E0,9.687337279E-2,2.068063723E0
3.084056500E0,-1.349435806E0,-1.483585000E0,3.289075494E-1,2.032284828E0
3.092268962E0,-1.186939240E0,-1.492832899E0,5.029740930E-1,1.972398986E0
3.100481577E0,-9.430789948E-1,-1.523361921E0,6.313234568E-1,1.899631238E0
3.108692116E0,-7.111797333E-1,-1.552528024E0,7.676906586E-1,1.872289728E0
3.116904231E0,-6.276578903E-1,-1.582599044E0,8.871412277E-1,1.919790019E0
3.125116116E0,-6.086416245E-1,-1.610740423E0,9.476584196E-1,1.965447994E0
3.133353616E0,-5.558834076E-1,-1.644815922E0,9.841483831E-1,1.995738916E0
3.141565000E0,-3.855676651E-1,-1.657565117E0,9.851455688E-1,1.966391704E0
3.149776154E0,-2.092514038E-1,-1.582025051E0,1.003897190E0,1.885311375E0
3.158013539E0,-2.978324890E-2,-1.468137026E0,1.025521517E0,1.791091218E0
3.166252039E0,1.437826157E-1,-1.348706007E0,1.000941157E0,1.685694081E0
3.174462462E0,3.799171448E-1,-1.193398118E0,9.354594946E-1,1.563208422E0
3.182672154E0,6.457500458E-1,-1.031784177E0,8.538123369E-1,1.486797638E0
3.190880500E0,7.925519943E-1,-8.183989525E-1,8.156045079E-1,1.401116063E0
3.199091192E0,7.616672516E-1,-6.082434058E-1,7.462976575E-1,1.227622595E0
3.207303038E0,7.063226700E-1,-4.568217397E-1,6.675935984E-1,1.073898984E0
3.215540615E0,6.314411163E-1,-3.253540993E-1,5.705553293E-1,9.111018369E-1
3.223751885E0,6.280269623E-1,-2.870037556E-1,4.065046310E-1,8.012708881E-1
3.231961615E0,7.846870422E-1,-4.552704096E-1,1.877805591E-1,9.264267043E-1
3.240199000E0,9.983100891E-1,-8.056838512E-1,-1.237362921E-1,1.288821234E0
3.248436154E0,9.623975754E-1,-1.168921232E0,-4.083195329E-1,1.568218984E0
3.256648961E0,9.905843735E-1,-1.526227474E0,-5.507891178E-1,1.901051382E0
3.264862346E0,1.121356964E0,-1.849731088E0,-4.057306647E-1,2.200809830E0
3.273074154E0,1.311456680E0,-2.064493895E0,-1.500333250E-1,2.450421120E0
3.281286154E0,1.341540337E0,-1.987688541E0,2.385854721E-1,2.409887806E0
3.289497577E0,1.243238449E0,-1.612076521E0,7.140338421E-1,2.157377315E0
3.297736192E0,1.182351112E0,-1.021445274E0,1.142711043E0,1.935740977E0
3.305959807E0,1.281075478E0,-1.677734852E-1,1.534954429E0,2.006336816E0
3.314171923E0,1.304426193E0,7.216237783E-1,1.707254648E0,2.266492225E0
3.322409730E0,1.352571487E0,1.479306817E0,1.704471707E0,2.631163638E0
3.330647000E0,1.237958908E0,2.096575737E0,1.470845342E0,2.844566417E0
3.338857730E0,1.163267136E0,2.446071625E0,1.128987074E0,2.934462240E0
3.347068730E0,1.034082413E0,2.393239975E0,7.354524732E-1,2.708840039E0
3.355279846E0,6.967096329E-1,2.218981743E0,3.743395209E-1,2.355719500E0
3.363490922E0,2.946023941E-1,1.813189030E0,9.429043531E-2,1.839384602E0
3.371701615E0,-7.372283936E-2,1.334606647E0,-1.024509072E-1,1.340561878E0
3.379938422E0,-3.619527817E-1,7.700861096E-1,-2.552256584E-1,8.883594819E-1
3.388146961E0,-4.830999374E-1,2.045742273E-1,-3.394032121E-1,6.248445442E-1
3.396355461E0,-4.296646118E-1,-3.273986578E-1,-5.111036301E-1,7.436588468E-1
3.404590845E0,-3.184909821E-1,-6.753453016E-1,-6.858605146E-1,1.013870025E0
3.412829345E0,-1.779441833E-1,-7.932691574E-1,-9.200199842E-1,1.227752768E0
3.421039999E0,-9.159088135E-2,-7.593212128E-1,-1.206931949E0,1.428860498E0
3.429249961E0,-9.045982361E-2,-5.637528896E-1,-1.443024397E0,1.551876190E0
3.437460268E0,-1.292390823E-1,-2.997870445E-1,-1.680194139E0,1.711615424E0
3.445669922E0,-2.202529907E-1,1.812624931E-2,-1.982230663E0,1.994512056E0
3.453879076E0,-3.902683258E-1,2.691233158E-1,-2.080687046E0,2.134009210E0
3.462115191E0,-5.724000931E-1,4.494736791E-1,-1.927632809E0,2.060445753E0
3.470306384E0,-7.453145981E-1,4.953314066E-1,-1.510671735E0,1.755840580E0
3.478481499E0,-9.424734116E-1,4.904716015E-1,-9.192343950E-1,1.404923627E0
3.486718076E0,-1.161313057E0,4.231948256E-1,-2.461942136E-1,1.260298960E0
3.494954114E0,-1.296313286E0,2.706385255E-1,2.515683174E-1,1.347946573E0
3.503163730E0,-1.328134537E0,1.373637319E-1,6.626192927E-1,1.490595341E0
3.511375460E0,-1.429099083E0,2.884984016E-2,1.049561024E0,1.773340025E0
3.519586999E0,-1.529831886E0,-6.693971157E-2,1.286303520E0,1.999860813E0
3.527796268E0,-1.608768463E0,-1.060560942E-1,1.381065130E0,2.122904792E0
3.536006153E0,-1.598883629E0,-1.765310764E-1,1.356348515E0,2.104108688E0
3.544241960E0,-1.536226273E0,-2.015681267E-1,1.242906332E0,1.986312418E0
3.552462460E0,-1.437690735E0,-1.784632206E-1,9.590724707E-1,1.737418710E0
3.560672999E0,-1.310407639E0,-7.840859890E-2,5.495699048E-1,1.423145519E0
3.568910999E0,-1.135169983E0,2.644062042E-3,1.594926715E-1,1.146322727E0
3.577148306E0,-8.831901550E-1,1.030481458E-1,-1.351993084E-1,8.994012582E-1
3.585359152E0,-5.736885071E-1,2.437420487E-1,-3.654910326E-1,7.225734457E-1
3.593600806E0,-4.030580521E-1,4.779316187E-1,-4.995914102E-1,8.002911986E-1
3.601812268E0,-3.161773682E-1,6.783344746E-1,-6.800888777E-1,1.011250053E0
3.610023037E0,-2.770242691E-1,7.630185485E-1,-7.991256118E-1,1.139096789E0
3.618235383E0,-2.809896469E-1,7.907825112E-1,-8.918308020E-1,1.224603749E0
3.626474383E0,-2.850589752E-1,7.736175656E-1,-9.235796332E-1,1.238039618E0
3.634684460E0,-3.013238907E-1,7.137085199E-1,-8.380898237E-1,1.141302103E0
3.642893998E0,-2.147378922E-1,6.268582344E-1,-7.425637245E-1,9.952208264E-1
3.651130806E0,-7.668972015E-2,5.217191577E-1,-5.710188150E-1,7.772610114E-1
3.659367806E0,-1.409530640E-2,4.469553828E-1,-3.381880224E-1,5.606593711E-1
3.667576806E0,7.969474792E-2,3.949586749E-1,-1.188619733E-1,4.200854394E-1
3.675787190E0,2.669534683E-1,3.586002588E-1,3.412145376E-2,4.483554098E-1
3.683996575E0,3.849620819E-1,3.982075453E-1,1.634194851E-1,5.774694639E-1
3.692205190E0,4.697465897E-1,5.045142174E-1,2.081885338E-1,7.200964655E-1
3.700414498E0,5.455722809E-1,6.262010336E-1,2.346820235E-1,8.630483766E-1
3.708650190E0,6.502790451E-1,7.931445241E-1,2.564688921E-1,1.057221531E0
3.716861460E0,8.726549149E-1,8.640468121E-1,2.408563495E-1,1.251445274E0
3.725113421E0,1.064087868E0,1.007931828E0,1.910749674E-1,1.478079566E0
3.733350383E0,1.178915977E0,1.079666018E0,1.670739055E-1,1.607306842E0
3.741588075E0,1.284105301E0,1.078610778E0,1.591957211E-1,1.684538783E0
3.749797267E0,1.331725121E0,1.049661636E0,2.366723418E-1,1.712102551E0
3.758008306E0,1.412807465E0,9.575654268E-1,3.567267060E-1,1.743619919E0
3.766219613E0,1.374152184E0,9.166324139E-1,4.966027737E-1,1.724854637E0
3.774457921E0,1.244498253E0,9.213873148E-1,5.236198902E-1,1.634597282E0
3.782696805E0,9.692258835E-1,8.670671582E-1,4.124755263E-1,1.364309470E0
3.790908882E0,7.206249237E-1,7.848125696E-1,2.786591649E-1,1.101309212E0
3.799131767E0,5.752496719E-1,6.374615431E-1,1.630851030E-1,8.739943677E-1
3.807342690E0,5.736322403E-1,3.675629497E-1,5.605214834E-2,6.835922121E-1
3.815554459E0,5.647192001E-1,1.120073199E-1,9.947746992E-2,5.842509578E-1
3.823766613E0,5.364999771E-1,-8.741855621E-2,2.709667683E-1,6.073690961E-1
3.831976921E0,5.630216599E-1,-2.881118655E-1,6.102396846E-1,8.788596641E-1
3.840187305E0,7.454967499E-1,-3.535233736E-1,8.714987040E-1,1.200105900E0
3.848398036E0,9.426689148E-1,-4.049426913E-1,9.523930550E-1,1.399877065E0
3.856637651E0,1.185697556E0,-3.471050262E-1,1.170349717E0,1.701787017E0
3.864876382E0,1.435892105E0,-2.262378931E-1,1.174427271E0,1.868756040E0
3.873088267E0,1.642971039E0,-7.665240765E-2,1.097773552E0,1.977457003E0
3.881300344E0,1.742238998E0,1.205466390E-1,9.428676963E-1,1.984673200E0
3.889511420E0,1.783870697E0,3.229839802E-1,7.950398326E-1,1.979545819E0
3.897722882E0,1.599968910E0,4.970371127E-1,5.300439000E-1,1.757240149E0
3.905935382E0,1.252635956E0,6.930257082E-1,2.877794504E-1,1.460204945E0
3.914146536E0,8.088922501E-1,8.246010542E-1,4.664659500E-2,1.156049080E0
3.922358728E0,4.389142990E-1,8.971716166E-1,-1.874182224E-1,1.016212705E0
3.930570036E0,6.380081177E-2,8.756504059E-1,-3.976134062E-1,9.638104573E-1
3.938807805E0,-1.967229843E-1,7.894134521E-1,-5.974076986E-1,1.009341116E0
3.947045613E0,-4.482011795E-1,6.376588345E-1,-7.277157307E-1,1.066331689E0
3.955256805E0,-6.451559067E-1,3.682501912E-1,-7.824918628E-1,1.078947572E0
3.963468728E0,-7.012786865E-1,7.257401943E-3,-8.225865960E-1,1.080968628E0
3.971680459E0,-5.949602127E-1,-4.536127448E-1,-7.799591422E-1,1.080776776E0
3.979891997E0,-4.195461273E-1,-9.858541489E-1,-7.124819160E-1,1.286684824E0
3.988103189E0,-3.402271271E-1,-1.348383546E0,-5.443003774E-1,1.493370545E0
3.996312997E0,-3.639955521E-1,-1.706505060E0,-3.160410523E-1,1.773283460E0
4.004523958E0,-4.091339111E-1,-1.873665214E0,-4.842239618E-2,1.918425557E0
4.012734266E0,-4.418964386E-1,-1.876072288E0,2.151303291E-1,1.939381538E0
4.020973766E0,-3.494043350E-1,-1.737576962E0,5.804098248E-1,1.864975241E0
4.029212612E0,-3.037891388E-1,-1.367171526E0,9.749492407E-1,1.706450071E0
4.037424497E0,-2.021656036E-1,-9.063848257E-1,1.241553068E0,1.550438133E0
4.045646881E0,-9.499073029E-2,-5.317692757E-1,1.418992877E0,1.518335466E0
4.053857074E0,-5.210876465E-2,-1.827070713E-1,1.431989193E0,1.444538074E0
4.062067343E0,-2.114105225E-2,7.272845507E-2,1.376166821E0,1.378249430E0
4.070279535E0,-1.896381378E-2,2.926052809E-1,1.283556342E0,1.316622330E0
4.078489381E0,-4.559803009E-2,4.432191849E-1,1.174837589E0,1.256489470E0
4.086699150E0,-6.756591797E-2,4.226967096E-1,9.923884273E-1,1.080774006E0
4.094909881E0,-1.758031845E-1,3.056583405E-1,9.720962048E-1,1.034071957E0
4.103147150E0,-4.852247238E-1,1.595752239E-1,1.075658321E0,1.190776263E0
4.111384727E0,-6.103334427E-1,-4.490017891E-3,1.372231722E0,1.501847852E0
4.119596573E0,-6.971330643E-1,-1.610427499E-1,1.600597978E0,1.753237908E0
4.127809035E0,-7.886390686E-1,-2.513988018E-1,1.797436357E0,1.978870990E0
4.136022535E0,-9.902791977E-1,-3.500790000E-1,1.873113990E0,2.147501854E0
4.144234766E0,-1.196656227E0,-3.932021856E-1,1.858130932E0,2.244826195E0
4.152447650E0,-1.321634293E0,-5.234513283E-1,1.723842144E0,2.234356783E0
4.160659458E0,-1.346074104E0,-5.457708836E-1,1.567839026E0,2.137264739E0
4.168871419E0,-1.303573608E0,-5.248004794E-1,1.520716071E0,2.070578920E0
4.177083727E0,-1.249182701E0,-4.480867386E-1,1.398565531E0,1.928010552E0
4.185322073E0,-1.137356758E0,-4.264644980E-1,1.276096582E0,1.761781726E0
4.193560496E0,-9.823961258E-1,-4.147428870E-1,1.103983045E0,1.534891649E0
4.201772804E0,-8.920269012E-1,-3.467371464E-1,9.263789058E-1,1.331959653E0
4.209984112E0,-8.230962753E-1,-3.136819005E-1,7.655980587E-1,1.167057925E0
4.218197458E0,-6.319599152E-1,-2.680079937E-1,6.333423853E-1,9.339829742E-1
4.226410611E0,-5.341320038E-1,-2.243764400E-1,5.417798758E-1,7.932006165E-1
4.234624342E0,-4.769668579E-1,-1.831122637E-1,4.957271516E-1,7.118798308E-1
4.242836188E0,-4.723997116E-1,-1.794099808E-1,5.174819231E-1,7.232820815E-1
4.251050381E0,-4.716615677E-1,-1.300743222E-1,6.326333284E-1,7.997555201E-1
4.259263765E0,-3.989677429E-1,-7.719987631E-2,7.999771833E-1,8.972728541E-1
4.267503765E0,-3.341760635E-1,-6.047248840E-2,9.917706251E-1,1.048303170E0
4.275744304E0,-2.045583725E-1,-1.136475801E-2,1.206712127E0,1.223980164E0
4.283958611E0,-6.762695312E-2,7.178598642E-2,1.391713381E0,1.395203486E0
4.292183919E0,5.020141602E-2,1.232721210E-1,1.349689126E0,1.356236312E0
4.300397996E0,1.560869217E-1,8.990556002E-2,1.294777393E0,1.307246968E0
4.308612727E0,1.014308929E-1,1.377362609E-1,1.164843440E0,1.177335867E0
4.316828303E0,5.711364746E-2,3.722953796E-2,9.419938326E-1,9.444577216E-1
4.325042919E0,-2.565097809E-2,-1.416544318E-1,7.806296349E-1,7.937925280E-1
4.333257150E0,8.877754211E-3,-3.323796988E-1,7.012193203E-1,7.760564502E-1
4.341470957E0,5.310726166E-2,-5.852595568E-1,7.028531432E-1,9.161613782E-1
4.349709457E0,2.102489471E-1,-7.161056399E-1,9.056955576E-1,1.173582699E0
4.357948573E0,3.747901917E-1,-8.995093703E-1,1.108869076E0,1.476203042E0
4.366160765E0,4.820051193E-1,-8.782618642E-1,1.359080553E0,1.688423166E0
4.374373342E0,7.066116333E-1,-9.004939198E-1,1.615921855E0,1.980250676E0
4.382585495E0,1.019642830E0,-8.361406326E-1,1.721465945E0,2.168466661E0
4.390797149E0,1.367000580E0,-8.512936831E-1,1.628922820E0,2.290585313E0
4.399022303E0,1.549062729E0,-8.492954969E-1,1.393634677E0,2.250136838E0
4.407233880E0,1.517912865E0,-8.452221155E-1,1.157659054E0,2.087734268E0
4.415446880E0,1.340666771E0,-7.358672619E-1,1.064161777E0,1.863150103E0
4.423658880E0,1.118046761E0,-5.122661591E-1,1.124384046E0,1.666338699E0
4.431897995E0,9.124450684E-1,-2.571432590E-1,1.373006940E0,1.668480361E0
4.440137803E0,7.429847717E-1,2.981424332E-3,1.729013443E0,1.881893394E0
4.448349188E0,6.095571518E-1,1.906000376E-1,2.038306713E0,2.136020260E0
4.456560803E0,5.215206146E-1,2.343161106E-1,2.229481697E0,2.301624737E0
4.464773034E0,4.380226135E-1,1.899977922E-1,2.312861443E0,2.361628892E0
4.472983303E0,2.439079285E-1,7.714700699E-2,2.282291412E0,2.296583730E0
4.481194034E0,5.885124207E-2,-2.047830820E-1,2.151059389E0,2.161586472E0
4.489404803E0,-2.200765610E-1,-5.285112858E-1,1.969446540E0,2.050969904E0
4.497616764E0,-4.106397629E-1,-8.120917678E-1,1.875629663E0,2.084731323E0
4.505828649E0,-5.677108765E-1,-1.167853117E0,1.625067353E0,2.080149140E0
4.514067187E0,-7.772474289E-1,-1.284434319E0,1.440095425E0,2.080326877E0
4.522305726E0,-1.019886971E0,-1.372724175E0,1.286203623E0,2.139827295E0
4.530517341E0,-1.139822006E0,-1.375466824E0,9.931289554E-1,2.043870913E0
4.538743418E0,-1.261528015E0,-1.292100549E0,6.494646072E-1,1.919057330E0
4.546957726E0,-1.263039589E0,-1.152496815E0,4.494447112E-1,1.767913589E0
4.555170341E0,-1.292984009E0,-9.461871982E-1,1.951718330E-1,1.614053873E0
4.563384379E0,-1.284506798E0,-7.279482484E-1,-5.868422985E-2,1.477602858E0
4.571595226E0,-1.306997299E0,-5.530900955E-1,-2.632733583E-1,1.443420748E0
4.579805610E0,-1.298299789E0,-4.012286663E-1,-3.878039718E-1,1.413137894E0
4.588015649E0,-1.229653358E0,-3.081778288E-1,-4.662263691E-1,1.350699072E0
4.596253379E0,-1.213687897E0,-1.769666672E-1,-4.748778641E-1,1.315243133E0
4.604491802E0,-1.192935944E0,-1.365892887E-1,-4.276835918E-1,1.274623887E0
4.612702802E0,-1.191408157E0,-1.349523067E-1,-3.675444722E-1,1.254095077E0
4.620912995E0,-1.149260521E0,-1.574047804E-1,-2.170838118E-1,1.180127701E0
4.629123495E0,-1.071168900E0,-1.718090773E-1,-2.901917696E-2,1.085248028E0
4.637336533E0,-8.948688507E-1,-2.114794254E-1,1.944219172E-1,9.398476947E-1
4.645550648E0,-7.807569504E-1,-2.287088633E-1,3.305886388E-1,8.781674144E-1
4.653729379E0,-7.072248459E-1,-2.788572311E-1,4.351473451E-1,8.759460885E-1
4.661942956E0,-7.006521225E-1,-2.716641426E-1,5.264870524E-1,9.175529519E-1
4.670154417E0,-6.866817474E-1,-3.422724009E-1,6.120728254E-1,9.814863026E-1
4.678394533E0,-6.868114471E-1,-3.539986610E-1,7.011181712E-1,1.043355982E0
4.686633264E0,-6.507492065E-1,-3.548591137E-1,8.961749077E-1,1.162982797E0
4.694845340E0,-6.072635651E-1,-3.163455725E-1,1.039599657E0,1.244833726E0
4.703057802E0,-5.658941269E-1,-3.031587601E-1,1.044392109E0,1.225926700E0
4.711268917E0,-5.002374649E-1,-3.270411491E-1,1.046581745E0,1.205208191E0
4.719507302E0,-3.552207947E-1,-3.641281128E-1,1.122697592E0,1.232566825E0
4.727746571E0,-1.548929214E-1,-3.694354296E-1,1.182950735E0,1.248938267E0
4.735959186E0,-3.507995605E-2,-3.876850605E-1,1.323358774E0,1.379423341E0
4.744172879E0,7.916450500E-3,-3.789116144E-1,1.428138494E0,1.477571061E0
4.752385571E0,4.838562012E-2,-4.002709389E-1,1.455760002E0,1.510561212E0
4.760596763E0,6.240749359E-2,-4.445403814E-1,1.487166286E0,1.553439541E0
4.768808686E0,5.722904205E-2,-4.443459511E-1,1.481188416E0,1.547461668E0
4.777020840E0,8.541870117E-2,-4.934296608E-1,1.410044432E0,1.496326998E0
4.785243917E0,1.420860291E-1,-4.941303730E-1,1.326844931E0,1.422979527E0
4.793455725E0,2.558317184E-1,-4.875845909E-1,1.163312554E0,1.287044949E0
4.801695379E0,3.333663940E-1,-5.574456453E-1,9.923112392E-1,1.185984990E0
4.809948725E0,3.842897415E-1,-5.676645041E-1,8.671137094E-1,1.105354142E0
4.818161340E0,3.918743134E-1,-5.802475214E-1,8.427350521E-1,1.095652788E0
4.826372609E0,3.943834305E-1,-6.718297005E-1,9.559662938E-1,1.233193007E0
4.834584378E0,3.656520844E-1,-7.343126535E-1,1.228697181E0,1.477367010E0
4.842797301E0,2.838411331E-1,-8.973379135E-1,1.575605154E0,1.835296358E0
4.851019686E0,2.111063004E-1,-1.058268428E0,2.102502584E0,2.363263644E0
4.859230724E0,1.802959442E-1,-1.282896638E0,2.623694897E0,2.926107538E0
4.867441571E0,1.919937134E-1,-1.456927061E0,2.989897728E0,3.331514141E0
4.875651647E0,3.804512024E-1,-1.577388763E0,2.953302622E0,3.369702480E0
4.883890763E0,5.208539963E-1,-1.727988005E0,2.608229637E0,3.171765009E0
4.892131147E0,3.819551468E-1,-1.764503002E0,2.192238331E0,2.839941809E0
4.900344417E0,1.791658401E-1,-1.727454305E0,1.767204285E0,2.477742875E0
4.908557917E0,-1.235876083E-1,-1.585332155E0,1.466379523E0,2.163058216E0
4.916771917E0,-4.521827698E-1,-1.462720037E0,1.435089588E0,2.098452117E0
4.924985686E0,-5.744943619E-1,-1.417174459E0,1.660858750E0,2.257626853E0
4.933200647E0,-6.700859070E-1,-1.493620396E0,1.958157659E0,2.552312368E0
4.941413916E0,-6.743278503E-1,-1.553803086E0,2.586815119E0,3.092027577E0
4.949627878E0,-5.443830490E-1,-1.675034881E0,3.233449459E0,3.682022564E0
4.957841263E0,-4.433307648E-1,-1.748548269E0,3.693529606E0,4.110489529E0
4.966082224E0,-3.711128235E-1,-1.872650862E0,4.030262947E0,4.459547668E0
4.974321532E0,-3.348836899E-1,-1.965920687E0,4.140279770E0,4.595531287E0
4.982534532E0,-2.388448715E-1,-2.013500214E0,3.952269793E0,4.442034049E0
4.990746685E0,-1.285285950E-1,-1.970026612E0,3.416264057E0,3.945679227E0
4.998960916E0,-5.173206329E-2,-1.852283001E0,2.755964279E0,3.320988954E0
5.007175301E0,7.779502869E-2,-1.686289549E0,2.136342525E0,2.722789727E0
5.015388916E0,2.407674789E-1,-1.417706728E0,1.608061194E0,2.157248746E0
5.023602224E0,3.484640121E-1,-1.234959960E0,1.157995462E0,1.728440558E0
5.031827147E0,3.936462402E-1,-1.040961742E0,7.129305005E-1,1.321676439E0
5.040040108E0,3.500242233E-1,-9.143965244E-1,3.354041576E-1,1.034955994E0
5.048278878E0,3.324375153E-1,-8.296608925E-1,1.953638792E-1,9.148873938E-1
5.056518070E0,2.067070007E-1,-7.097151279E-1,1.899073720E-1,7.632091174E-1
5.064728031E0,6.605529785E-2,-6.147018671E-1,2.919721603E-1,6.837173613E-1
5.072968801E0,-7.504844666E-2,-5.411392450E-1,4.518962502E-1,7.089951853E-1
5.081181339E0,-9.214973450E-2,-5.560705662E-1,6.057838798E-1,8.274540211E-1
5.089393493E0,-4.012393951E-2,-6.416556835E-1,7.816997766E-1,1.012119799E0
5.097605531E0,-2.717018127E-3,-6.738611460E-1,1.057380199E0,1.253853705E0
5.105817224E0,8.544921875E-4,-6.748881340E-1,1.272490740E0,1.440384465E0
5.114028070E0,2.000808716E-3,-7.698827982E-1,1.397350550E0,1.595403424E0
5.122241262E0,2.714252472E-2,-8.280330896E-1,1.527889252E0,1.738050943E0
5.130479916E0,2.364349365E-2,-9.066195488E-1,1.587446213E0,1.828251487E0
5.138719185E0,-8.978176117E-2,-1.000146389E0,1.673729420E0,1.951851361E0
5.146932800E0,-2.796125412E-1,-1.022201061E0,1.655444622E0,1.965597894E0
5.155146608E0,-4.330215454E-1,-1.082308292E0,1.642545581E0,2.014163569E0
5.163358031E0,-4.159936905E-1,-1.179938555E0,1.662481785E0,2.080661296E0
5.171569569E0,-4.393682480E-1,-1.149451494E0,1.695783496E0,2.095224298E0
5.179782531E0,-5.488033295E-1,-1.101572156E0,1.717203856E0,2.112684404E0
5.187993223E0,-5.479211807E-1,-1.049983025E0,1.745684266E0,2.109524953E0
5.196205800E0,-4.008264542E-1,-1.011108041E0,1.719304085E0,2.034455173E0
5.204419646E0,-2.997226715E-1,-8.821101785E-1,1.630029202E0,1.877484286E0
5.212658185E0,-2.528791428E-1,-7.961825132E-1,1.567884445E0,1.776546112E0
5.220898146E0,-2.488908768E-1,-7.363926768E-1,1.527137041E0,1.713583492E0
5.229109838E0,-2.303161621E-1,-7.441753149E-1,1.523967266E0,1.711525244E0
5.237355108E0,-1.803989410E-1,-7.160797119E-1,1.575636029E0,1.740098511E0
5.245566261E0,-1.207885742E-1,-6.979869008E-1,1.668653727E0,1.812782627E0
5.253777915E0,-5.634975433E-2,-6.716734767E-1,1.838908672E0,1.958546823E0
5.261990838E0,5.750656128E-3,-6.780833602E-1,1.949497104E0,2.064066150E0
5.270201069E0,5.346965790E-2,-6.937339306E-1,2.005616188E0,2.122880605E0
5.278422454E0,3.665351868E-2,-6.690171361E-1,1.903812170E0,2.018273566E0
5.286633877E0,-4.985523224E-2,-6.467491984E-1,1.739899635E0,1.856884706E0
5.294872838E0,6.682014465E-2,-6.767857671E-1,1.461898565E0,1.612343425E0
5.303112761E0,8.244991302E-2,-7.020584345E-1,1.190490007E0,1.384539812E0
5.311324915E0,8.815670013E-2,-8.128136396E-1,1.016944647E0,1.304842531E0
5.319536684E0,4.091262817E-2,-9.817895293E-1,8.387637138E-1,1.291940049E0
5.327746877E0,1.494216919E-2,-1.151172996E0,7.043572664E-1,1.349645025E0
5.335956953E0,-5.902385712E-2,-1.216985464E0,6.873126030E-1,1.398905304E0
5.344168184E0,-6.112670898E-2,-1.220573902E0,6.730488539E-1,1.395181667E0
5.352380376E0,-3.427028656E-2,-1.187741637E0,4.158147573E-1,1.258891005E0
5.360592838E0,-5.950450897E-2,-1.161679626E0,1.432513595E-1,1.171990312E0
5.368802992E0,-6.792449951E-2,-1.118982315E0,-8.274817467E-2,1.124091820E0
5.377042530E0,-1.669273376E-1,-9.688822031E-1,-2.474432588E-1,1.013817353E0
5.385280838E0,-2.991590500E-1,-8.337367773E-1,-3.687079847E-1,9.594575181E-1
5.393491492E0,-4.095754623E-1,-7.544006109E-1,-4.078490734E-1,9.503752984E-1
5.401703799E0,-5.008020401E-1,-6.771479845E-1,-4.306568801E-1,9.459373260E-1
5.409914684E0,-5.468893051E-1,-6.187443733E-1,-3.471480012E-1,8.957925241E-1
5.418127184E0,-6.056232452E-1,-5.560202599E-1,-2.007521391E-1,8.463093205E-1
5.426340530E0,-7.217893600E-1,-4.630173445E-1,-8.795440197E-2,8.620330147E-1
5.434552799E0,-7.876529694E-1,-4.378570318E-1,-4.913008213E-2,9.025130168E-1
5.442765530E0,-7.672367096E-1,-4.178740978E-1,-1.951301098E-2,8.738716655E-1
5.450978299E0,-7.036180496E-1,-3.406352997E-1,-4.424113035E-2,7.829866185E-1
5.459219338E0,-6.519460678E-1,-2.575649023E-1,-1.213126183E-1,7.114001023E-1
5.467460299E0,-5.620956421E-1,-2.658524513E-1,-2.987159491E-1,6.898262498E-1
5.475672991E0,-3.801889420E-1,-2.996590137E-1,-6.351236701E-1,7.985745002E-1
5.483884914E0,-2.657051086E-1,-2.954156399E-1,-9.541994333E-1,1.033617997E0
5.492097837E0,-2.090120316E-1,-3.070259094E-1,-1.141598701E0,1.200499285E0
5.500310222E0,-9.978008270E-2,-2.929475307E-1,-1.253125429E0,1.290774055E0
5.508523068E0,3.516578674E-2,-3.635350466E-1,-1.298904419E0,1.349276492E0
5.516735453E0,2.850103378E-1,-5.088853836E-1,-1.352742434E0,1.473128412E0
5.524959453E0,3.983640671E-1,-7.075122595E-1,-1.309227943E0,1.540566563E0
5.533172106E0,4.327106476E-1,-8.921107054E-1,-1.033567786E0,1.432257792E0
5.541410606E0,4.551887512E-1,-1.064608335E0,-6.314135790E-1,1.318814170E0
5.549650145E0,5.114955902E-1,-1.161829948E0,-1.564684212E-1,1.279046103E0
5.557862991E0,5.371580124E-1,-1.259411812E0,3.311645091E-1,1.408661341E0
5.566106414E0,6.281652451E-1,-1.205590367E0,7.216968536E-1,1.539118598E0
5.574319837E0,9.618692398E-1,-1.039991140E0,1.230458379E0,1.876379980E0
5.582532222E0,1.169329643E0,-8.433278799E-1,1.496942401E0,2.078309476E0
5.590744645E0,1.285964012E0,-5.589867830E-1,1.642544389E0,2.159657782E0
5.598957375E0,1.107612610E0,-3.870874643E-1,1.518115878E0,1.918676163E0
5.607168452E0,6.122674942E-1,-4.063324928E-1,1.196888089E0,1.404463840E0
5.615380645E0,-1.372337341E-2,-5.395007133E-1,7.869614363E-1,9.542314462E-1
5.623621145E0,-6.049318314E-1,-7.010056973E-1,6.532639861E-1,1.133183720E0
5.631859106E0,-1.139221191E0,-7.770876884E-1,6.854649782E-1,1.539984557E0
5.640071952E0,-1.584925652E0,-8.649843931E-1,6.484970450E-1,1.918524365E0
5.648283568E0,-1.754879475E0,-9.215800762E-1,6.724454761E-1,2.093106477E0
5.656496144E0,-1.850287914E0,-9.018262625E-1,5.904568434E-1,2.141376954E0
5.664710183E0,-1.729821682E0,-7.432923317E-1,3.606123030E-1,1.916978814E0
5.672924875E0,-1.331181526E0,-5.945122242E-1,-2.988103032E-1,1.488212565E0
5.681135644E0,-8.243722916E-1,-6.450448036E-1,-9.801166654E-1,1.433980876E0
5.689345221E0,-3.869333267E-1,-6.169167757E-1,-1.361666083E0,1.544162631E0
5.697555375E0,-1.868047714E-1,-4.809379578E-1,-1.499620914E0,1.585894142E0
5.705792760E0,-6.134605408E-2,-4.102256298E-1,-1.518006682E0,1.573655837E0
5.714032375E0,-5.863189697E-3,-3.570430279E-1,-1.338422775E0,1.385239916E0
5.722244683E0,1.049041748E-3,-3.816977739E-1,-1.096082091E0,1.160642168E0
5.730457760E0,-2.627563477E-2,-4.915002584E-1,-8.090379834E-1,9.469980843E-1
5.738671375E0,-2.171363831E-1,-6.649861336E-1,-4.044257402E-1,8.080315254E-1
5.746886183E0,-3.633623123E-1,-8.502318859E-1,-1.658342779E-2,9.247710203E-1
5.755102183E0,-4.645442963E-1,-1.169650316E0,2.658629119E-1,1.286299480E0
5.763315990E0,-4.723520279E-1,-1.493879080E0,5.490220785E-1,1.660185648E0
5.771540106E0,-4.342308044E-1,-1.705332875E0,9.286414981E-1,1.989746627E0
5.779752490E0,-3.116474152E-1,-1.864868999E0,1.242376089E0,2.262379022E0
5.787992644E0,-1.138658524E-1,-1.956093192E0,1.427473903E0,2.424241686E0
5.796232644E0,-4.909515381E-2,-1.951987863E0,1.576274753E0,2.509443971E0
5.804445721E0,1.051197052E-1,-1.770056605E0,1.710091829E0,2.463445677E0
5.812657913E0,2.959995270E-1,-1.502172947E0,1.490313649E0,2.136626794E0
5.820870221E0,4.278202057E-1,-1.160051227E0,1.089821219E0,1.648168458E0
5.829081721E0,3.949842453E-1,-8.267368078E-1,6.355718970E-1,1.115104452E0
5.837294605E0,2.448968887E-1,-4.790748358E-1,1.984579712E-1,5.734742808E-1
5.845507298E0,3.227710724E-2,-1.720229387E-1,-1.078320295E-1,2.055758976E-1
5.853718721E0,-1.423759460E-1,6.060123444E-2,-3.289395273E-1,3.635170316E-1
5.861931336E0,-2.886409760E-1,1.351059675E-1,-3.982129097E-1,5.100399562E-1
5.870171144E0,-4.400024414E-1,2.098083496E-1,-4.117609262E-1,6.380977608E-1
5.878409951E0,-5.557832718E-1,2.822135687E-1,-4.944303036E-1,7.956135171E-1
5.886621451E0,-5.929517746E-1,2.729902267E-1,-5.676659346E-1,8.650780798E-1
5.894815605E0,-5.896348953E-1,2.311092615E-1,-6.424981356E-1,9.021555602E-1
5.903027605E0,-5.865583420E-1,2.283467054E-1,-7.735790610E-1,9.973051038E-1
5.911238105E0,-5.980243683E-1,2.579246759E-1,-9.151464701E-1,1.123232543E0
5.919450605E0,-5.061817169E-1,2.091194391E-1,-1.132867932E0,1.258308636E0
5.927662567E0,-5.390968323E-1,2.286326885E-1,-1.258408427E0,1.387980573E0
5.935875105E0,-4.093999863E-1,2.068748474E-1,-1.314330220E0,1.392073805E0
5.944086643E0,-3.732137680E-1,2.615170479E-1,-1.429532766E0,1.500414480E0
5.952326143E0,-2.917261124E-1,2.941108942E-1,-1.529481530E0,1.584587989E0
5.960565451E0,-2.152748108E-1,4.000297785E-1,-1.589964271E0,1.653588053E0
5.968778989E0,-8.166408539E-2,4.806903601E-1,-1.691651464E0,1.760516095E0
5.976992720E0,4.679203033E-2,5.594704151E-1,-1.795406103E0,1.881137878E0
5.985204374E0,1.699533463E-1,6.016370058E-1,-1.808594227E0,1.913599829E0
5.993416259E0,3.236503601E-1,6.182336807E-1,-1.726393938E0,1.862095183E0
6.001628412E0,4.386186600E-1,5.377954245E-1,-1.601837277E0,1.745706995E0
6.009840759E0,6.125097275E-1,4.343960285E-1,-1.425713658E0,1.611374417E0
6.018063835E0,7.742395401E-1,3.729013205E-1,-1.201147079E0,1.476907772E0
6.026275835E0,9.548778534E-1,2.764078379E-1,-9.361662865E-1,1.365503689E0
6.034513605E0,1.135412216E0,2.582647800E-1,-6.387027502E-1,1.328082377E0
6.042751643E0,1.272716522E0,2.919994593E-1,-4.674234986E-1,1.386923126E0
6.050961028E0,1.335606575E0,3.223116398E-1,-4.241034091E-1,1.437912869E0
6.059185720E0,1.297792435E0,3.327915668E-1,-4.144607782E-1,1.402424033E0
6.067396912E0,1.199881554E0,3.732178211E-1,-4.392103553E-1,1.331132233E0
6.075610835E0,1.015584946E0,3.910577297E-1,-4.445406795E-1,1.175565968E0
6.083823758E0,8.598079681E-1,4.171333313E-1,-3.287316561E-1,1.010610934E0
6.092035643E0,6.775112152E-1,4.275935888E-1,-1.701380312E-1,8.190266623E-1
6.100248643E0,5.238542557E-1,4.012669325E-1,5.599802360E-3,6.599013488E-1
6.108462374E0,3.748540878E-1,3.833467960E-1,2.054084539E-1,5.741628568E-1
6.116704873E0,1.466741562E-1,4.117264748E-1,3.916835487E-1,5.868969249E-1
6.124946720E0,1.898384094E-2,3.816369772E-1,4.913896322E-1,6.224716373E-1
6.133159835E0,-1.016340256E-1,3.981142044E-1,5.193884373E-1,6.622603292E-1
6.141372412E0,-2.342529297E-1,4.209870100E-1,5.273371935E-1,7.142751664E-1
6.149585489E0,-3.319797516E-1,4.126461744E-1,4.206660390E-1,6.763485323E-1
6.157796989E0,-4.260396957E-1,4.192609787E-1,2.728920281E-1,6.570842028E-1
6.166009835E0,-5.246601105E-1,5.250693560E-1,9.705328941E-2,7.485889400E-1
6.174222027E0,-5.799779892E-1,5.862628818E-1,-1.148081198E-1,8.326220865E-1
6.182435912E0,-6.255016327E-1,6.627649069E-1,-2.529188991E-1,9.457682506E-1
6.190649066E0,-5.535879135E-1,6.605604291E-1,-3.985413909E-1,9.495445744E-1
6.198888950E0,-3.715658188E-1,5.307906270E-1,-5.174549818E-1,8.291920800E-1
6.207130565E0,-2.567682266E-1,4.065138698E-1,-5.296917558E-1,7.153717947E-1
6.215345065E0,-1.542644501E-1,1.504584551E-1,-5.916746855E-1,6.296937356E-1
6.223558373E0,-3.740787506E-2,-1.942807436E-1,-5.069583654E-1,5.441977037E-1
6.231770527E0,-1.197061539E-1,-2.938606739E-1,-2.806785405E-1,4.236320361E-1
6.239983835E0,-1.101579666E-1,-4.398437738E-1,6.279349327E-5,4.534284143E-1
6.248195027E0,-8.994960785E-2,-4.630615711E-1,2.970215082E-1,5.574394379E-1
6.256407065E0,-2.327632904E-2,-3.926430941E-1,5.945540071E-1,7.128848814E-1
6.264630719E0,1.950349808E-1,-1.600242853E-1,7.681353688E-1,8.085037789E-1
6.272843950E0,3.946275711E-1,1.100944281E-1,7.428678274E-1,8.483538837E-1
6.281082873E0,5.513162613E-1,4.442005754E-1,5.177123547E-1,8.770917017E-1
6.289320950E0,6.310358047E-1,6.918289065E-1,1.257806718E-1,9.448037893E-1
6.297533142E0,6.213331223E-1,8.708804846E-1,-3.866857290E-1,1.137547151E0
6.305744065E0,5.842256546E-1,8.407931328E-1,-8.895686865E-1,1.356313074E0
6.313954988E0,5.148220062E-1,7.035160065E-1,-1.241453409E0,1.516965074E0
6.322165565E0,3.055715561E-1,3.760775924E-1,-1.355163693E0,1.439193165E0
6.330377565E0,7.405853271E-2,-3.216314316E-2,-1.235968947E0,1.238603396E0
6.338587796E0,-8.354187012E-2,-4.440133572E-1,-8.956749439E-1,1.003175314E0
6.346798296E0,-8.048915863E-2,-9.071323872E-1,-4.379051030E-1,1.010509056E0
6.355008219E0,6.429576874E-2,-1.356936097E0,-2.227400243E-2,1.358641104E0
6.363245026E0,3.534002304E-1,-1.745728970E0,3.687411547E-1,1.818909398E0
6.371483565E0,4.947681427E-1,-1.888510466E0,7.334888577E-1,2.085491117E0
6.379696719E0,6.393203735E-1,-1.896864176E0,1.067786932E0,2.268698564E0
6.387911757E0,8.493633270E-1,-1.705988169E0,1.185109615E0,2.244169890E0
6.396123872E0,9.427595139E-1,-1.389905810E0,1.211878419E0,2.071058417E0
6.404335834E0,9.361858368E-1,-9.974285364E-1,1.149999619E0,1.787122472E0
6.412548757E0,8.724164963E-1,-6.488101482E-1,1.088793397E0,1.538680023E0
6.420761065E0,7.654571533E-1,-2.347636223E-1,9.274128079E-1,1.225207382E0
6.428974680E0,5.887479782E-1,9.456223249E-2,7.725961208E-1,9.759461889E-1
6.437188103E0,3.108463287E-1,2.766733170E-1,5.910385847E-1,7.228417344E-1
6.445429026E0,-1.186790466E-1,3.391020298E-1,5.201448798E-1,6.321594725E-1
6.453668603E0,-5.514078140E-1,2.813566923E-1,5.180611610E-1,8.072171531E-1
6.461881064E0,-8.937520981E-1,9.776240587E-2,5.947120190E-1,1.077976199E0
6.470093564E0,-1.111837387E0,-1.153087020E-1,8.273680210E-1,1.390689151E0
6.478307141E0,-1.253382683E0,-2.990762591E-1,1.039359927E0,1.655501077E0
6.486520026E0,-1.267989159E0,-5.504982471E-1,1.227300048E0,1.848542733E0
6.494732257E0,-1.404593468E0,-7.299779058E-1,1.192745566E0,1.982017290E0
6.502942334E0,-1.447670937E0,-9.517557025E-1,1.133050680E0,2.070119296E0
6.511163487E0,-1.478526115E0,-1.030169606E0,9.272843003E-1,2.026609253E0
6.519373718E0,-1.547466278E0,-1.082646251E0,6.831384301E-1,2.008345812E0
6.527611141E0,-1.455730438E0,-1.115712166E0,4.213473499E-1,1.881886908E0
6.535849757E0,-1.428414345E0,-1.148972273E0,1.145116463E-1,1.836741065E0
6.544061603E0,-1.415271759E0,-1.161201358E0,-8.124575019E-2,1.832480182E0
6.552271795E0,-1.449785233E0,-1.175550461E0,-1.872642338E-1,1.875863534E0
6.560481487E0,-1.419436455E0,-1.215890408E0,-3.164593279E-1,1.895609622E0
6.568692141E0,-1.391271591E0,-1.274924517E0,-3.131963015E-1,1.912893381E0
6.576903372E0,-1.353312492E0,-1.314174056E0,-3.468147218E-1,1.918016841E0
6.585114064E0,-1.260072708E0,-1.383893251E0,-3.301129937E-1,1.900504762E0
6.593324410E0,-1.097151756E0,-1.452643633E0,-1.755925417E-1,1.828865288E0
6.601533833E0,-8.189907074E-1,-1.471933126E0,1.871179789E-2,1.684542383E0
6.609770410E0,-4.901533127E-1,-1.417080522E0,2.248884290E-1,1.516226329E0
6.618008449E0,-2.447376251E-1,-1.370082617E0,4.056408703E-1,1.449678377E0
6.626218141E0,-2.057361603E-2,-1.312995672E0,5.638641715E-1,1.429098916E0
6.634427948E0,1.607112885E-1,-1.263652802E0,5.737427473E-1,1.397078116E0
6.642638795E0,3.325958252E-1,-1.289382696E0,5.154131055E-1,1.427857972E0
6.650849679E0,3.991851807E-1,-1.348240018E0,4.229927063E-1,1.468340146E0
6.659060718E0,3.963518143E-1,-1.375509739E0,4.291285276E-1,1.494413964E0
6.667270910E0,3.169803619E-1,-1.437303066E0,5.366176963E-1,1.566612653E0
6.675481333E0,4.029092789E-1,-1.447480202E0,7.559115291E-1,1.681944429E0
6.683692448E0,6.110553741E-1,-1.403866529E0,9.016584158E-1,1.776856157E0
6.691931641E0,6.588277817E-1,-1.321695805E0,1.062308431E0,1.819184721E0
6.700170371E0,6.156272888E-1,-1.186861515E0,1.196773767E0,1.794409280E0
6.708381525E0,5.533027649E-1,-1.092555404E0,1.305390716E0,1.789934686E0
6.716611102E0,5.221338272E-1,-9.841099977E-1,1.360858917E0,1.758702139E0
6.724823833E0,4.862613678E-1,-8.661308885E-1,1.352752566E0,1.678264681E0
6.733035602E0,4.480733871E-1,-7.245742083E-1,1.234177709E0,1.499657348E0
6.741247486E0,3.895072937E-1,-5.477445126E-1,1.022233367E0,1.223397335E0
6.749457179E0,4.409952164E-1,-4.836565256E-1,7.451252937E-1,9.917722112E-1
6.757678448E0,5.464076996E-1,-5.826057196E-1,3.628181219E-1,8.772843258E-1
6.765889563E0,6.636838913E-1,-6.691501141E-1,-1.653251052E-2,9.426088832E-1
6.774128063E0,6.539735794E-1,-7.553352118E-1,-2.411334515E-1,1.027792813E0
6.782369179E0,7.495908737E-1,-7.635842562E-1,-3.363983333E-1,1.121655577E0
6.790583332E0,9.552621841E-1,-7.727880478E-1,-4.034301043E-1,1.293245165E0
6.798798140E0,1.014700890E0,-8.475725651E-1,-4.647823870E-1,1.401434913E0
6.807011332E0,8.010568619E-1,-8.388156891E-1,-3.727909327E-1,1.218309048E0
6.815224409E0,3.910703659E-1,-6.473846436E-1,-1.197571456E-1,7.657575868E-1
6.823438525E0,1.297235489E-1,-3.625564575E-1,2.247966826E-1,4.458799530E-1
6.831652217E0,-3.787899017E-2,6.731915474E-2,6.818090677E-1,6.861707450E-1
6.839865102E0,-1.024017334E-1,5.419404507E-1,9.974817038E-1,1.139804947E0
6.848077025E0,-1.887674332E-1,8.833746910E-1,1.118101239E0,1.437405430E0
6.856315986E0,-3.453025818E-1,1.099795938E0,1.095543385E0,1.590283083E0
6.864555601E0,-4.885797501E-1,1.166544557E0,9.419577122E-1,1.576965664E0
6.872767448E0,-7.169752121E-1,1.062557220E0,7.648575306E-1,1.492678245E0
6.880980794E0,-8.794708252E-1,8.701967597E-1,5.675053596E-1,1.361166289E0
6.889194524E0,-9.495248795E-1,5.620949268E-1,3.670506179E-1,1.162873321E0
6.897409332E0,-1.032159805E0,9.506070614E-2,1.753328145E-1,1.051252585E0
6.905622217E0,-9.856338501E-1,-4.194713831E-1,5.825348943E-2,1.072764558E0
6.913834409E0,-8.359804153E-1,-8.977558613E-1,4.994801432E-2,1.227731097E0
6.922048640E0,-5.876426697E-1,-1.279461741E0,9.140486270E-2,1.410922076E0
6.930261563E0,-3.816680908E-1,-1.562590003E0,1.275808364E-1,1.613578296E0
6.938500409E0,-1.794662476E-1,-1.648572087E0,1.624172032E-1,1.666246503E0
6.946740601E0,8.386802673E-2,-1.577869534E0,2.106358558E-1,1.594074521E0
6.954954178E0,4.322385788E-1,-1.290622592E0,2.484516352E-1,1.383569687E0
6.963167178E0,6.593322754E-1,-9.220619202E-1,2.529021502E-1,1.161411525E0
6.971379678E0,7.116584778E-1,-4.717849493E-1,1.554766297E-1,8.678777620E-1
6.979592755E0,6.175508499E-1,-1.536653042E-1,6.570783257E-2,6.397652673E-1
6.987808024E0,3.815050125E-1,7.087755203E-2,4.903992265E-2,3.911196952E-1
6.996022716E0,4.412555695E-2,2.322086096E-1,2.175962627E-1,3.212725271E-1
7.004247447E0,-3.033809662E-1,2.528271675E-1,4.960178733E-1,6.340310070E-1
7.012460793E0,-6.561269760E-1,2.530434728E-1,8.023054004E-1,1.066877483E0
7.020701024E0,-9.804973602E-1,2.259525061E-1,1.044975996E0,1.450656555E0
7.028939447E0,-1.137369156E0,1.398068666E-1,1.075299621E0,1.571440050E0
7.037151408E0,-1.260653496E0,7.004404068E-2,9.811495543E-1,1.599002143E0
7.045363331E0,-1.441329002E0,5.745351315E-2,7.620499730E-1,1.631395219E0
7.053575562E0,-1.638723373E0,4.212856293E-2,4.022184312E-1,1.687888852E0
7.061787562E0,-1.709137917E0,1.041007042E-2,-7.362943888E-2,1.710754828E0
7.070000639E0,-1.721945763E0,3.727078438E-3,-5.167965889E-1,1.797829195E0
7.078213216E0,-1.792078018E0,7.726848125E-2,-9.182232618E-1,2.015104960E0
7.086425408E0,-1.763782501E0,1.245601177E-1,-1.218093157E0,2.147136436E0
7.094640139E0,-1.660987854E0,1.576621532E-1,-1.429564834E0,2.197133045E0
7.102879331E0,-1.521977425E0,2.294659615E-1,-1.608447671E0,2.226246576E0
7.111117639E0,-1.322751999E0,2.564176321E-1,-1.727514744E0,2.190828620E0
7.119328562E0,-1.151992798E0,2.973277569E-1,-1.618208408E0,2.008504333E0
7.127540254E0,-1.000133514E0,4.096264839E-1,-1.363387346E0,1.739794804E0
7.135752447E0,-7.954015732E-1,4.900763631E-1,-1.081621528E0,1.429245827E0
7.143968216E0,-6.001720428E-1,5.855974555E-1,-7.771299481E-1,1.143268043E0
7.152184139E0,-4.385223389E-1,6.257819533E-1,-5.592089891E-1,9.468999886E-1
7.160398523E0,-3.009881973E-1,6.384945512E-1,-4.205473959E-1,8.216625214E-1
7.168612523E0,-1.661300659E-1,5.846030712E-1,-3.514086306E-1,7.020313208E-1
7.176827408E0,-7.568359375E-3,5.553694963E-1,-3.238635063E-1,6.429464428E-1
7.185068716E0,1.149206161E-1,4.339209795E-1,-2.741729617E-1,5.259895221E-1
7.193310754E0,2.972526550E-1,2.979294062E-1,-1.554193199E-1,4.486382028E-1
7.201524600E0,4.713487625E-1,2.557930350E-1,-5.543100834E-2,5.391403615E-1
7.209737831E0,6.837129593E-1,2.250369787E-1,4.357591271E-2,7.211129680E-1
7.217948946E0,1.006171227E0,2.367963195E-1,-1.881769300E-2,1.033831292E0
7.226159985E0,1.218653679E0,2.589280009E-1,-1.460040361E-1,1.254383385E0
7.234372600E0,1.409969330E0,1.807448864E-1,-2.977175713E-1,1.452349124E0
7.242585408E0,1.439518929E0,3.324933052E-1,-3.973202705E-1,1.529911743E0
7.250810215E0,1.540829659E0,4.288514853E-1,-4.883399010E-1,1.672287503E0
7.259021792E0,1.656410217E0,4.862747788E-1,-5.974051356E-1,1.826759663E0
7.267258677E0,1.668574333E0,5.833389759E-1,-6.755990982E-1,1.892315726E0
7.275496215E0,1.599349022E0,6.800122261E-1,-6.845512390E-1,1.867871602E0
7.283708446E0,1.539674759E0,7.304748297E-1,-6.816715002E-1,1.835447595E0
7.291921138E0,1.544449806E0,7.477203012E-1,-6.235349774E-1,1.825707184E0
7.300134561E0,1.455576897E0,7.979359627E-1,-5.849690437E-1,1.759998490E0
7.308346946E0,1.285018921E0,8.209737539E-1,-5.497633219E-1,1.620959975E0
7.316558792E0,9.897136688E-1,7.927829027E-1,-5.855057240E-1,1.396730049E0
7.324769100E0,8.427238464E-1,6.666133404E-1,-6.215701103E-1,1.241332441E0
7.332980792E0,8.751363754E-1,3.780864477E-1,-7.125989199E-1,1.190214375E0
7.341192369E0,8.403158188E-1,6.505250931E-3,-6.218525767E-1,1.045405960E0
7.349430407E0,7.527303696E-1,-2.261608839E-1,-3.901670277E-1,8.774862188E-1
7.357669407E0,8.280591965E-1,-3.891429901E-1,-5.901196599E-2,9.168406141E-1
7.365880369E0,1.052429199E0,-4.238405228E-1,2.676522434E-1,1.165712542E0
7.374091484E0,1.279907227E0,-3.993493319E-1,4.580954611E-1,1.416860561E0
7.382301676E0,1.464874268E0,-3.002364635E-1,5.980377197E-1,1.610480571E0
7.390513215E0,1.575868607E0,-9.109234810E-2,6.089351177E-1,1.691881101E0
7.398726984E0,1.569558144E0,2.050238848E-1,4.709188938E-1,1.651457588E0
7.406940792E0,1.455457687E0,4.961917400E-1,3.027867079E-1,1.567240605E0
7.415155676E0,1.293159485E0,7.606791258E-1,1.205200851E-1,1.505130983E0
7.423369369E0,1.058548927E0,9.515967369E-1,-6.103575230E-3,1.423411197E0
7.431608561E0,7.154731750E-1,1.184113503E0,-1.011102796E-1,1.387173363E0
7.439848022E0,4.338378906E-1,1.244003415E0,-2.608473897E-1,1.343056653E0
7.448060791E0,2.638683319E-1,1.199533343E0,-3.929407597E-1,1.289538359E0
7.456273984E0,2.129936218E-2,1.031921148E0,-5.306168199E-1,1.160546909E0
7.464484445E0,-2.627191544E-1,7.914726138E-1,-6.245558858E-1,1.041883058E0
7.472696253E0,-4.540443420E-1,4.307386279E-1,-6.899867654E-1,9.315437545E-1
7.480909561E0,-5.834264755E-1,9.813129902E-3,-7.393800020E-1,9.418946529E-1
7.489121176E0,-6.505212784E-1,-4.875272512E-1,-7.299247384E-1,1.092543307E0
7.497343176E0,-6.191053391E-1,-1.062133431E0,-6.847759485E-1,1.407244452E0
7.505555214E0,-5.106363297E-1,-1.579795599E0,-5.422737002E-1,1.746586488E0
7.513794830E0,-4.447917938E-1,-1.939857006E0,-3.649840951E-1,2.023387836E0
7.522034253E0,-4.071903229E-1,-2.238658190E0,-1.516835988E-1,2.280439073E0
7.530245445E0,-3.594446182E-1,-2.301838636E0,1.504342556E-1,2.334586046E0
7.538457637E0,-2.631511688E-1,-2.093127251E0,4.239688218E-1,2.151785256E0
7.546668830E0,6.278038025E-3,-1.802873373E0,5.634195805E-1,1.888870942E0
7.554880714E0,2.333326340E-1,-1.360050201E0,6.454347968E-1,1.523406297E0
7.563093753E0,3.650732040E-1,-9.040058851E-1,6.672827005E-1,1.181427648E0
7.571306176E0,3.341712952E-1,-4.506883025E-1,5.911938548E-1,8.150463634E-1
7.579519253E0,2.792596817E-1,-9.677940607E-2,4.137047231E-1,5.084327106E-1
7.587730868E0,1.619014740E-1,1.488190293E-1,2.830497026E-1,3.584359426E-1
7.595969522E0,4.906558990E-2,2.235050797E-1,1.983103752E-1,3.028018456E-1
7.604209522E0,-8.332443237E-2,1.447609663E-1,2.919943035E-1,3.363916938E-1
7.612423983E0,-3.765707016E-1,6.039261818E-2,6.025226712E-1,7.130822750E-1
7.620637406E0,-7.611646652E-1,-1.245889068E-1,9.899443388E-1,1.254943759E0
7.628848675E0,-1.023862839E0,-3.795244098E-1,1.298413277E0,1.696529082E0
7.637060214E0,-1.291356087E0,-6.584555507E-1,1.505934477E0,2.090215994E0
7.645273752E0,-1.439018250E0,-9.518035650E-1,1.593487382E0,2.348596514E0
7.653484521E0,-1.644072533E0,-1.035056353E0,1.649703503E0,2.548693350E0
7.661695637E0,-1.743617058E0,-1.262156725E0,1.578498363E0,2.669250293E0
7.669907368E0,-1.881337166E0,-1.326988220E0,1.417566538E0,2.703668278E0
7.678146021E0,-1.918344975E0,-1.359874010E0,1.265684605E0,2.670442338E0
7.686384868E0,-1.955203056E0,-1.283758402E0,9.719958305E-1,2.532909497E0
7.694597098E0,-2.042158127E0,-1.201151371E0,6.440037489E-1,2.455181309E0
7.702810598E0,-2.119376183E0,-1.100683808E0,3.375081420E-1,2.411881422E0
7.711024060E0,-2.153358459E0,-1.042309761E0,4.717811942E-3,2.392359620E0
7.719237752E0,-2.146510601E0,-1.064560652E0,-1.632189453E-1,2.401548993E0
7.727452290E0,-2.168283463E0,-1.052799702E0,-2.098890990E-1,2.419482139E0
7.735665021E0,-2.051114559E0,-1.156229734E0,-1.059518829E-1,2.356939527E0
7.743889098E0,-1.809353828E0,-1.261508226E0,8.698923886E-2,2.207426422E0
7.752101367E0,-1.672846794E0,-1.296691895E0,3.535275161E-1,2.145881630E0
7.760341483E0,-1.457210541E0,-1.357143998E0,5.319362283E-1,2.061130404E0
7.768581175E0,-1.215113640E0,-1.378253460E0,6.912275553E-1,1.963129973E0
7.776795675E0,-1.042300224E0,-1.402915001E0,8.769545555E-1,1.955405214E0
7.785010213E0,-8.741636276E-1,-1.432423234E0,9.718458652E-1,1.939196420E0
7.793224021E0,-7.489824295E-1,-1.461539030E0,1.010020971E0,1.928007619E0
7.801438367E0,-5.518321991E-1,-1.421222806E0,1.006174684E0,1.826685669E0
7.809653136E0,-3.473510742E-1,-1.429063082E0,9.527950883E-1,1.752339163E0
7.817867675E0,-1.019048691E-1,-1.372824907E0,8.061711192E-1,1.595288282E0
7.826082867E0,1.366147995E-1,-1.325165987E0,6.355869770E-1,1.476041768E0
7.834298136E0,2.964105606E-1,-1.221362829E0,6.262190342E-1,1.404185408E0
7.842537867E0,5.283193588E-1,-1.076226592E0,6.466299295E-1,1.362173002E0
7.850779482E0,6.910915375E-1,-9.045869112E-1,6.614540815E-1,1.316588962E0
7.858995136E0,7.891893387E-1,-7.144659758E-1,6.758578420E-1,1.260977900E0
7.867211482E0,8.849859238E-1,-5.314400196E-1,7.142546177E-1,1.255304042E0
7.875424944E0,9.397163391E-1,-3.972673416E-1,7.017403245E-1,1.238276068E0
7.883639059E0,9.389200211E-1,-2.724064589E-1,6.831675768E-1,1.192683538E0
7.891859982E0,8.648014069E-1,-1.583694220E-1,6.690217257E-1,1.104786141E0
7.900075367E0,8.176164627E-1,-7.133191824E-2,6.786453724E-1,1.064962189E0
7.908290521E0,7.652444839E-1,-7.136571407E-2,6.427916288E-1,1.001934760E0
7.916505751E0,8.705472946E-1,-2.818658352E-1,4.352667630E-1,1.013290726E0
7.924747136E0,9.539651871E-1,-6.253525615E-1,1.062590182E-1,1.145603065E0
7.932989020E0,8.887071609E-1,-8.798821568E-1,-1.422576606E-2,1.250677976E0
7.941204751E0,9.427137375E-1,-1.151792288E0,-4.393664002E-2,1.489048385E0
7.949420790E0,1.143271446E0,-1.401810646E0,3.638885915E-2,1.809272460E0
7.957636790E0,1.387163162E0,-1.517442226E0,1.165629327E-1,2.059232737E0
7.965851597E0,1.418455124E0,-1.410754919E0,2.402214408E-1,2.014931939E0
7.974067636E0,1.216143608E0,-9.628055096E-1,5.260207057E-1,1.637894230E0
7.982282789E0,1.060637474E0,-2.081001997E-1,7.730236053E-1,1.328842744E0
7.990509136E0,1.241490364E0,4.869788289E-1,9.673841596E-1,1.647506849E0
7.998723174E0,1.260303497E0,1.178098440E0,1.039109349E0,2.013958560E0
8.006963059E0,1.252739906E0,1.789372444E0,1.010286808E0,2.406634673E0
8.015205674E0,1.390672684E0,2.104582787E0,8.566551208E-1,2.664037765E0
8.023419559E0,1.510407448E0,2.295216084E0,5.885041952E-1,2.809926105E0
8.031662405E0,1.541701317E0,2.155607700E0,3.202887177E-1,2.669470429E0
8.039875174E0,1.280749321E0,1.902408361E0,5.391563475E-2,2.293988512E0
8.048087289E0,8.187446594E-1,1.549087286E0,-1.772218794E-1,1.761085413E0
8.056300212E0,6.161937714E-1,1.000349760E0,-3.662755191E-1,1.230671427E0
8.064510366E0,5.061969757E-1,4.902206063E-1,-5.484065413E-1,8.929173286E-1
8.072720981E0,4.798240662E-1,6.130933762E-2,-6.280292273E-1,7.927235834E-1
8.080933443E0,4.463663101E-1,-2.749099731E-1,-7.107324004E-1,8.831528300E-1
8.089171712E0,3.318519592E-1,-4.994550943E-1,-8.312615752E-1,1.024976546E0
8.097410174E0,1.557598114E-1,-6.044934988E-1,-9.435680509E-1,1.131368276E0
8.105621751E0,-1.242733002E-2,-5.078445673E-1,-1.012209773E0,1.132532193E0
8.113835058E0,-1.248464584E-1,-3.933761120E-1,-1.105797052E0,1.180304420E0
8.122049289E0,-1.771364212E-1,-2.355511189E-1,-1.194517970E0,1.230339312E0
8.130262558E0,-2.366180420E-1,-1.012059450E-1,-1.117262721E0,1.146519398E0
8.138476520E0,-4.140768051E-1,-2.022075653E-2,-9.456523657E-1,1.032534201E0
8.146689635E0,-6.320018768E-1,2.186572552E-2,-6.970356107E-1,9.411498950E-1
8.154901750E0,-7.062759399E-1,1.522839069E-2,-4.710886180E-1,8.491066442E-1
8.163114058E0,-8.834524155E-1,-2.867913246E-2,-2.468809634E-1,9.177477176E-1
8.171352866E0,-1.110693932E0,-6.337660551E-2,1.905348897E-2,1.112663758E0
8.179592789E0,-1.344824791E0,-9.756815434E-2,1.696547866E-1,1.358990806E0
8.187805019E0,-1.518755913E0,-1.281345487E-1,2.487591505E-1,1.544318329E0
8.196046904E0,-1.625212669E0,-1.919977665E-1,3.082582653E-1,1.665293524E0
8.204260366E0,-1.743346214E0,-1.748814583E-1,3.694379926E-1,1.790621115E0
8.212472865E0,-1.767921925E0,-2.129982114E-1,3.563131988E-1,1.816005304E0
8.220687904E0,-1.713394165E0,-2.225370407E-1,3.350888491E-1,1.759979215E0
8.228902442E0,-1.687595367E0,-1.946586967E-1,3.034319580E-1,1.725671199E0
8.237126250E0,-1.654641151E0,-1.478384733E-1,1.214666665E-1,1.665667345E0
8.245339519E0,-1.559405327E0,-9.634721279E-2,-1.381638348E-1,1.568476013E0
8.253579096E0,-1.440138817E0,-4.034328461E-2,-4.987194836E-1,1.524581423E0
8.261819981E0,-1.375726700E0,7.362341881E-2,-7.892838120E-1,1.587769913E0
8.270033558E0,-1.234426498E0,1.853857040E-1,-9.807018638E-1,1.587435915E0
8.278247827E0,-1.145502090E0,3.045527339E-1,-1.087802410E0,1.608801259E0
8.286461750E0,-1.056364059E0,4.442105591E-1,-1.130102158E0,1.609459205E0
8.294675557E0,-1.079633713E0,5.174876451E-1,-1.132953167E0,1.648328030E0
8.302890365E0,-1.095670700E0,6.049889922E-1,-1.108203053E0,1.671711689E0
8.311104134E0,-1.078223228E0,5.729463696E-1,-1.048828244E0,1.609619073E0
8.319318250E0,-9.962778091E-1,5.171006918E-1,-9.310327768E-1,1.458349968E0
8.327531711E0,-7.924175262E-1,4.565272331E-1,-7.852913141E-1,1.205414907E0
8.335772519E0,-5.528116226E-1,3.533387482E-1,-6.784016490E-1,9.437572561E-1
8.344011750E0,-3.349123001E-1,2.408055067E-1,-5.701734424E-1,7.037409290E-1
8.352224327E0,-1.914691925E-1,1.712773442E-1,-4.809086323E-1,5.452242593E-1
8.360438019E0,8.590793610E-2,8.980244398E-2,-3.473441899E-1,3.689073578E-1
8.368652634E0,3.440179825E-1,8.499181271E-2,-3.134041429E-1,4.730688504E-1
8.376867019E0,4.609079361E-1,1.690010428E-1,-2.860134244E-1,5.681559266E-1
8.385079096E0,4.701128006E-1,3.075808287E-1,-2.600393891E-1,6.190577480E-1
8.393291249E0,6.229505539E-1,3.731419742E-1,-2.926678658E-1,7.829155798E-1
8.401503980E0,8.186836243E-1,4.626723230E-1,-3.054150045E-1,9.887299328E-1
8.409715211E0,9.471883774E-1,5.374206901E-1,-2.516545653E-1,1.117728429E0
8.417953903E0,1.070928574E0,5.678443909E-1,-2.057328969E-1,1.229496355E0
8.426195519E0,1.127600670E0,5.917538404E-1,-1.340865344E-1,1.280482361E0
8.434410018E0,1.167455673E0,5.800689459E-1,-3.234100342E-2,1.304024030E0
8.442622826E0,1.101947784E0,5.477961302E-1,1.045612693E-1,1.235031408E0
8.450835403E0,1.146583557E0,3.898093700E-1,1.088634431E-1,1.215917944E0
8.459048749E0,1.294266701E0,7.614427805E-2,7.886552811E-2,1.298901080E0
8.467262249E0,1.391800880E0,-2.964941859E-1,1.850610971E-2,1.423151773E0
8.475474480E0,1.489447594E0,-5.935183167E-1,8.536580205E-2,1.605616843E0
8.483697364E0,1.659059525E0,-8.401156068E-1,1.617190838E-1,1.866661673E0
8.491909211E0,1.857632637E0,-1.047103405E0,2.162898779E-1,2.143363214E0
8.500149441E0,2.056539536E0,-1.175141573E0,3.945538700E-1,2.401246621E0
8.508387711E0,2.236593246E0,-1.164867163E0,5.983328819E-1,2.591769105E0
8.516598326E0,2.345238686E0,-1.005105972E0,7.997830510E-1,2.673955018E0
8.524841634E0,2.394530296E0,-6.284587383E-1,1.122691989E0,2.718303336E0
8.533054134E0,2.461131096E0,-1.335233450E-1,1.292422175E0,2.783046862E0
8.541267326E0,2.401124001E0,3.726761937E-1,1.273218870E0,2.743240839E0
8.549479710E0,2.269220352E0,7.636907101E-1,1.156771779E0,2.659079814E0
8.557691480E0,1.993177414E0,1.068874002E0,9.361231327E-1,2.447769261E0
8.565904518E0,1.359535217E0,1.385405779E0,7.745265961E-1,2.089874787E0
8.574119095E0,5.790119171E-1,1.613154173E0,5.495805144E-1,1.799877753E0
8.582361172E0,8.266448975E-3,1.532725215E0,2.426293790E-1,1.551832444E0
8.590604710E0,-3.621683121E-1,1.293433666E0,1.255308986E-1,1.349034670E0
8.598820479E0,-7.740736008E-1,1.027318239E0,7.202190161E-2,1.288316676E0
8.607035210E0,-1.054873466E0,6.356304288E-1,6.019029021E-2,1.233047827E0
8.615248941E0,-1.187479973E0,1.787343621E-1,3.740873933E-2,1.201438335E0
8.623462210E0,-1.114142418E0,-3.877356052E-1,-1.434561610E-2,1.179770327E0
8.631675710E0,-1.004699707E0,-8.495138884E-1,-1.110554338E-1,1.320389585E0
8.639889518E0,-9.262237549E-1,-1.306059599E0,-1.647854596E-1,1.609607520E0
8.648102172E0,-8.617687225E-1,-1.663181067E0,-2.268566489E-1,1.886870565E0
8.656315133E0,-8.280630112E-1,-1.856406212E0,-2.507600784E-1,2.048124262E0
8.664553748E0,-8.441677094E-1,-1.854406357E0,-2.630164921E-1,2.054414693E0
8.672792210E0,-7.304315567E-1,-1.595733643E0,-2.572002411E-1,1.773710258E0
8.681005018E0,-4.078798294E-1,-1.255955219E0,-3.788757324E-1,1.373803584E0
8.689218479E0,-1.207551956E-1,-8.599052429E-1,-4.253684282E-1,9.669318196E-1
8.697431325E0,7.565784454E-2,-5.041597486E-1,-4.054066837E-1,6.513491696E-1
8.705641825E0,1.476116180E-1,-1.958078742E-1,-3.634150326E-1,4.384066598E-1
8.713853364E0,1.668615341E-1,-2.039939165E-2,-2.036396563E-1,2.640606301E-1
8.722065402E0,2.242355347E-1,6.518858671E-2,5.884107947E-2,2.408181876E-1
8.730288979E0,2.454309464E-1,2.423518896E-2,4.216218293E-1,4.884553825E-1
8.738501671E0,1.274509430E-1,-9.781759977E-2,8.836401105E-1,8.981268677E-1
8.746741133E0,-3.632831573E-2,-3.104277253E-1,1.393085599E0,1.427715870E0
8.754979017E0,-3.200426102E-1,-4.949196577E-1,1.706932187E0,1.805821207E0
8.763190210E0,-4.697437286E-1,-8.022801280E-1,1.938639164E0,2.150031252E0
8.771401710E0,-6.409101486E-1,-1.017203450E0,2.154820204E0,2.467532936E0
8.779614863E0,-7.449064255E-1,-1.260707617E0,2.318615913E0,2.742307246E0
8.787826863E0,-1.002013206E0,-1.295753598E0,2.412941933E0,2.916384169E0
8.796039671E0,-1.096148491E0,-1.497013092E0,2.416603327E0,3.046729616E0
8.804251979E0,-1.214094162E0,-1.588991404E0,2.208927870E0,2.979644383E0
8.812464171E0,-1.317537308E0,-1.671203852E0,2.027699471E0,2.939454374E0
8.820677709E0,-1.483162880E0,-1.703579545E0,1.730265856E0,2.845307598E0
8.828917440E0,-1.560136795E0,-1.695390344E0,1.433234692E0,2.713399513E0
8.837159902E0,-1.577172279E0,-1.737656593E0,1.149406075E0,2.613055139E0
8.845374555E0,-1.551032066E0,-1.767864823E0,9.384979010E-1,2.532158134E0
8.853586709E0,-1.577504158E0,-1.745467901E0,7.384493351E-1,2.465863943E0
8.861798748E0,-1.594339371E0,-1.766260624E0,6.254786253E-1,2.460247575E0
8.870009632E0,-1.570432663E0,-1.779785752E0,5.549660921E-1,2.437597882E0
8.878223171E0,-1.508166313E0,-1.799402833E0,4.985644221E-1,2.400204713E0
8.886434632E0,-1.436266899E0,-1.812436819E0,4.452123344E-1,2.354995510E0
8.894645978E0,-1.345170975E0,-1.752184391E0,4.237256944E-1,2.249261780E0
8.902856786E0,-1.225289345E0,-1.724368811E0,3.644362390E-1,2.146531049E0
8.911093863E0,-1.090957642E0,-1.712747335E0,2.181216478E-1,2.042368494E0
8.919332247E0,-8.966598511E-1,-1.710434437E0,7.712462544E-2,1.932752715E0
8.927543863E0,-5.609645844E-1,-1.714628935E0,2.546384931E-2,1.804240022E0
8.935755632E0,-3.520507812E-1,-1.647441030E0,6.091700494E-2,1.685737993E0
8.943969440E0,-2.890930176E-1,-1.540640712E0,9.774003923E-2,1.570573682E0
8.952182824E0,-2.499637604E-1,-1.529091954E0,1.147526503E-2,1.549430788E0
8.960394401E0,-1.939191818E-1,-1.537938714E0,-6.498222798E-2,1.551477627E0
8.968606401E0,-1.304807663E-1,-1.559077382E0,-8.653361350E-2,1.566919136E0
8.976828632E0,-7.163906097E-2,-1.549988270E0,-3.642592579E-2,1.552070436E0
8.985038824E0,4.492473602E-2,-1.548253059E0,1.057025641E-1,1.552507262E0
8.993275247E0,1.712865829E-1,-1.573879957E0,3.379150629E-1,1.618834088E0
9.001512862E0,2.476062775E-1,-1.574215889E0,5.788524151E-1,1.695445267E0
9.009723093E0,3.289222717E-1,-1.576072216E0,8.151988983E-1,1.804644767E0
9.017934324E0,3.193120956E-1,-1.495302200E0,9.624093175E-1,1.806687737E0
9.026144285E0,2.977313995E-1,-1.397011518E0,1.006615758E0,1.747443977E0
9.034355401E0,2.354431152E-1,-1.285766125E0,8.739824295E-1,1.572410021E0
9.042568401E0,2.761001587E-1,-1.247457027E0,7.302818298E-1,1.471628990E0
9.050780016E0,3.286018372E-1,-1.256768227E0,3.781862855E-1,1.352948783E0
9.058991208E0,5.939512253E-1,-1.563652515E0,9.538426995E-3,1.672685932E0
9.067201785E0,7.725820541E-1,-1.902743101E0,-5.566409230E-1,2.127713199E0
9.075440016E0,8.643741608E-1,-2.289497614E0,-1.023937583E0,2.652807982E0
9.083678478E0,8.550968170E-1,-2.602372169E0,-1.280752540E0,3.023881370E0
9.091887785E0,8.730859756E-1,-2.851566076E0,-1.371266961E0,3.282389570E0
9.100099477E0,8.987846375E-1,-2.791699409E0,-1.259415150E0,3.191790397E0
9.108310785E0,9.231224060E-1,-2.603143215E0,-1.013569355E0,2.942079607E0
9.116522516E0,1.022891998E0,-2.184853077E0,-5.935657024E-1,2.484393538E0
9.124733554E0,1.094896317E0,-1.611687064E0,-1.444815397E-1,1.953767656E0
9.132943554E0,1.038187981E0,-1.079271793E0,1.462068260E-1,1.504672165E0
9.141154554E0,8.353023529E-1,-6.869384050E-1,2.579091191E-1,1.111814511E0
9.149366631E0,6.320228577E-1,-4.411295652E-1,2.960083485E-1,8.256325625E-1
9.157605747E0,4.231395721E-1,-3.134516478E-1,3.396324813E-1,6.266173117E-1
9.165843746E0,2.178621292E-1,-4.113556147E-1,3.296132684E-1,5.703702795E-1
9.174054016E0,-1.037311554E-2,-6.209113598E-1,2.874210179E-1,6.842874833E-1
9.182265862E0,-3.309316635E-1,-8.333336115E-1,2.867517471E-1,9.413751847E-1
9.190476054E0,-7.002449036E-1,-1.131182075E0,2.334682345E-1,1.350712119E0
9.198689054E0,-8.016214371E-1,-1.490450382E0,9.542021155E-2,1.695035188E0
9.206902631E0,-8.071126938E-1,-1.822486281E0,-1.593023986E-1,1.999566053E0
9.215114054E0,-7.333621979E-1,-2.176654339E0,-5.041759014E-1,2.351560666E0
9.223337823E0,-6.472043991E-1,-2.457947731E0,-9.583047628E-1,2.716381527E0
9.231549977E0,-6.395826340E-1,-2.658948660E0,-1.342498302E0,3.046535018E0
9.239789823E0,-6.577224731E-1,-2.759421825E0,-1.597387075E0,3.255557269E0
9.248030592E0,-6.728162766E-1,-2.713001728E0,-1.797001600E0,3.322991855E0
9.256243823E0,-6.679849625E-1,-2.602658749E0,-1.880859494E0,3.279888551E0
9.264455515E0,-5.284643173E-1,-2.394171238E0,-1.723091960E0,2.996727608E0
9.272667554E0,-3.213806152E-1,-2.182061195E0,-1.293853521E0,2.557094737E0
9.280879938E0,-1.524448395E-1,-1.954985023E0,-7.668614388E-1,2.105536116E0
9.289094708E0,-1.895427704E-1,-1.729666352E0,-2.307934761E-1,1.755260032E0
9.297307208E0,-3.466358185E-1,-1.571802616E0,1.899282634E-1,1.620738289E0
9.305521092E0,-5.039482117E-1,-1.490423322E0,5.035522580E-1,1.651935336E0
9.313734092E0,-6.662864685E-1,-1.420865536E0,7.456278205E-1,1.737457158E0
9.321974707E0,-8.744220734E-1,-1.382596135E0,9.348762631E-1,1.884192045E0
9.330214477E0,-1.073359489E0,-1.375941873E0,1.058134675E0,2.040824740E0
9.338427784E0,-1.258271217E0,-1.359826684E0,1.156621814E0,2.184067098E0
9.346670515E0,-1.297312737E0,-1.344992399E0,1.228438854E0,2.236311004E0
9.354883246E0,-1.262187958E0,-1.301716924E0,1.345121741E0,2.257639894E0
9.363095015E0,-1.210317612E0,-1.203298688E0,1.376223683E0,2.192438843E0
9.371307092E0,-1.220795631E0,-1.069466710E0,1.311818361E0,2.086856112E0
9.379517669E0,-1.200214386E0,-9.336044788E-1,1.171820402E0,1.919712205E0
9.387728207E0,-1.184428215E0,-8.265365362E-1,1.006093860E0,1.760186836E0
9.395939515E0,-1.187899590E0,-6.626727581E-1,7.950350046E-1,1.575538409E0
9.404177169E0,-1.102826118E0,-4.991418123E-1,5.929772854E-1,1.347957736E0
9.412413707E0,-9.148111343E-1,-4.244201183E-1,4.563868642E-1,1.106933069E0
9.420623822E0,-7.173728943E-1,-3.219994307E-1,3.834220171E-1,8.748256661E-1
9.428834861E0,-5.728578568E-1,-1.972136497E-1,3.696801662E-1,7.097342975E-1
9.437045861E0,-4.191017151E-1,-1.343374252E-1,2.957968712E-1,5.302721758E-1
9.445256899E0,-2.807874680E-1,-1.407861710E-1,2.935520411E-1,4.299245851E-1
9.453468707E0,-1.787900925E-1,-1.425361633E-1,2.723827362E-1,3.556329709E-1
9.461679668E0,-5.785942078E-2,-1.552261114E-1,2.419364750E-1,2.932168416E-1
9.469900707E0,9.408760071E-2,-2.118173838E-1,2.320606858E-1,3.279805521E-1
9.478111476E0,2.295427322E-1,-2.921690941E-1,2.473581135E-1,4.463616043E-1
9.486348591E0,3.552656174E-1,-3.855267763E-1,2.521753907E-1,5.817533686E-1
9.494586707E0,4.305562973E-1,-4.750519991E-1,2.808333933E-1,6.999432276E-1
9.502797437E0,4.027223587E-1,-5.106276274E-1,3.403335512E-1,7.339978189E-1
9.511008591E0,4.274911880E-1,-6.017080545E-1,4.051571488E-1,8.419938325E-1
9.519219937E0,5.407381058E-1,-6.646646261E-1,5.284091830E-1,1.006674242E0
9.527429668E0,7.067003250E-1,-6.937366724E-1,6.723866463E-1,1.196996125E0
9.535640168E0,8.151569366E-1,-6.631327868E-1,8.586459756E-1,1.357018362E0
9.543850822E0,8.325157166E-1,-6.093156338E-1,1.045558333E0,1.468856762E0
9.552061514E0,8.545026779E-1,-5.398646593E-1,1.181905508E0,1.555162148E0
9.560274399E0,9.432744980E-1,-5.033328533E-1,1.206962585E0,1.612411059E0
9.568512514E0,8.738412857E-1,-5.043269396E-1,1.157681465E0,1.535633625E0
9.576750822E0,6.629381180E-1,-5.313491821E-1,1.167931557E0,1.444258641E0
9.584962322E0,2.939157486E-1,-5.551913977E-1,1.246467590E0,1.395817112E0
9.593173014E0,2.451515198E-2,-5.361269712E-1,1.399222255E0,1.498618043E0
9.601384476E0,-1.652336121E-1,-5.265846252E-1,1.607467532E0,1.699572117E0
9.609594822E0,-3.561677933E-1,-5.210760832E-1,1.811794281E0,1.918586537E0
9.617806476E0,-5.228214264E-1,-5.236073732E-1,1.926622272E0,2.063826616E0
9.626016591E0,-6.294393539E-1,-5.945464373E-1,2.026288986E0,2.203525907E0
9.634225629E0,-6.234846115E-1,-6.715884209E-1,2.095238686E0,2.286873240E0
9.642437206E0,-6.007604599E-1,-7.135660648E-1,2.037387609E0,2.240767264E0
9.650677052E0,-4.463748932E-1,-7.803995609E-1,2.020042181E0,2.211073141E0
9.658916437E0,-3.780145645E-1,-8.185311556E-1,1.914434075E0,2.116115803E0
9.667127398E0,-4.075803757E-1,-7.443848848E-1,1.851575732E0,2.036802227E0
9.675338552E0,-4.822645187E-1,-6.606996059E-1,1.787651181E0,1.965909403E0
9.683548668E0,-5.349817276E-1,-5.723443031E-1,1.692239761E0,1.864794589E0
9.691759014E0,-5.727825165E-1,-5.025587082E-1,1.588322282E0,1.761650572E0
9.699971014E0,-5.693664551E-1,-4.205311537E-1,1.511686444E0,1.669197567E0
9.708181937E0,-4.816856384E-1,-4.316960573E-1,1.434926748E0,1.573975004E0
9.716403937E0,-3.936977386E-1,-4.410928488E-1,1.433790445E0,1.550908073E0
9.724615014E0,-2.552156448E-1,-4.966180325E-1,1.486885428E0,1.588267223E0
9.732852821E0,-1.190614700E-1,-5.557876825E-1,1.614967942E0,1.712073899E0
9.741092283E0,6.756305695E-2,-6.450375319E-1,1.699329376E0,1.818889363E0
9.749303629E0,2.706594467E-1,-7.299772501E-1,1.752934098E0,1.918046213E0
9.757518090E0,5.068101883E-1,-7.793108225E-1,1.831766963E0,2.054154846E0
9.765732821E0,7.364654541E-1,-7.082134485E-1,1.855535626E0,2.118244583E0
9.773943783E0,9.302997589E-1,-5.255116224E-1,1.788528562E0,2.083375752E0
9.782156283E0,1.071576118E0,-2.753939629E-1,1.639350295E0,1.977773142E0
9.790367206E0,1.133859634E0,4.099893570E-2,1.329632998E0,1.747925196E0
9.798579475E0,1.255732536E0,2.274065018E-1,9.017944932E-1,1.562629588E0
9.806790975E0,1.319664001E0,3.376753330E-1,4.050216377E-1,1.421119360E0
9.815028321E0,1.270462990E0,3.519273996E-1,4.645574093E-2,1.319123663E0
9.823267206E0,1.141435623E0,2.403042316E-1,-2.176610380E-1,1.186590803E0
9.831478590E0,8.631696701E-1,3.422820568E-2,-2.386740148E-1,8.962135542E-1
9.839720475E0,5.052261353E-1,-2.031517029E-1,-3.492808342E-2,5.456592647E-1
9.847931898E0,2.378768921E-1,-4.243035316E-1,3.309487104E-1,5.883416964E-1
9.856144936E0,1.589679718E-2,-5.938858986E-1,7.744245529E-1,9.760566361E-1
9.864358436E0,-1.317501068E-1,-7.319310904E-1,1.040043354E0,1.278581789E0
9.872569436E0,-1.546983719E-1,-8.617370129E-1,1.329376459E0,1.591780147E0
9.880781398E0,-1.871252060E-1,-9.669543505E-1,1.504503250E0,1.798206492E0
9.888992744E0,-2.291193008E-1,-1.045460105E0,1.611893892E0,1.934860306E0
9.897230128E0,-3.477830887E-1,-1.138190389E0,1.661752105E0,2.043979084E0
9.905467551E0,-5.478296280E-1,-1.194548488E0,1.617531896E0,2.084100003E0
9.913679051E0,-7.738685608E-1,-1.248568535E0,1.591091156E0,2.165494632E0
9.921890744E0,-9.514379501E-1,-1.243526101E0,1.635629654E0,2.264260520E0
9.930102167E0,-9.918203354E-1,-1.238378525E0,1.739400506E0,2.354315839E0
9.938313744E0,-9.406604767E-1,-1.172670364E0,1.798549294E0,2.344094171E0
9.946526513E0,-7.953338623E-1,-1.143475294E0,1.915593386E0,2.368457245E0
9.954738667E0,-7.239027023E-1,-1.001939297E0,2.065470219E0,2.407090505E0
9.962962974E0,-5.586614609E-1,-9.224789143E-1,2.201880693E0,2.451805164E0
9.971176628E0,-4.026479721E-1,-7.453285456E-1,2.238478661E0,2.393413200E0
9.979417243E0,-2.561349869E-1,-6.135746241E-1,2.255822659E0,2.351768445E0
9.987656474E0,-1.073455811E-1,-4.752782583E-1,2.210118771E0,2.263191878E0
9.995868743E0,2.851486206E-4,-4.448621273E-1,2.073150635E0,2.120343356E0
1.000408351E1,4.511737823E-2,-4.439525604E-1,1.915621996E0,1.966910543E0
1.001229609E1,1.158828735E-1,-4.592366219E-1,1.693012118E0,1.758015116E0
1.002050955E1,1.620321274E-1,-5.038765669E-1,1.543299794E0,1.631539230E0
1.002872382E1,1.620550156E-1,-5.462700129E-1,1.420181990E0,1.530225356E0
1.003693905E1,1.688346863E-1,-6.451303959E-1,1.286387801E0,1.448962371E0
1.004515347E1,1.323928833E-1,-7.443097830E-1,1.220237374E0,1.435445638E0
1.005336855E1,1.032743454E-1,-7.993056774E-1,1.219355345E0,1.461636964E0
1.006160990E1,1.031522751E-1,-8.456161022E-1,1.294538260E0,1.549689094E0
1.006984967E1,1.199674606E-1,-7.905368805E-1,1.425953388E0,1.634834492E0
1.007806251E1,6.872558594E-2,-7.054294348E-1,1.539349556E0,1.694683141E0
1.008627359E1,2.737998962E-2,-5.910681486E-1,1.580522656E0,1.687650167E0
1.009448401E1,3.029823303E-3,-4.811369181E-1,1.547797561E0,1.620857552E0
1.010269394E1,-3.081417084E-2,-4.051365852E-1,1.479052067E0,1.533844902E0
1.011090532E1,-6.239414215E-2,-4.117109776E-1,1.406419992E0,1.466770655E0
1.011911544E1,-1.062078476E-1,-4.724655151E-1,1.442122459E0,1.521256375E0
1.012732678E1,-2.387504578E-1,-5.173608065E-1,1.543079972E0,1.644919386E0
1.013553809E1,-3.376836777E-1,-5.931458473E-1,1.699876189E0,1.831783645E0
1.014377505E1,-4.900093079E-1,-5.902576447E-1,1.842647552E0,1.995961726E0
1.015201344E1,-6.963119507E-1,-5.067770481E-1,2.108091831E0,2.277218584E0
1.016022478E1,-8.367538452E-1,-3.045058250E-1,2.431526184E0,2.589440167E0
1.016844244E1,-9.140462875E-1,-1.643562317E-2,2.664815426E0,2.817266760E0
1.017665497E1,-9.048995972E-1,3.096154928E-1,2.737087488E0,2.899371130E0
1.018486651E1,-8.370952606E-1,5.740212202E-1,2.677893400E0,2.863798509E0
1.019307840E1,-8.578042984E-1,8.495982885E-1,2.533352375E0,2.806335640E0
1.020128955E1,-9.626579285E-1,1.080073476E0,2.239587069E0,2.666274412E0
1.020951094E1,-1.006067276E0,1.218553662E0,1.840410471E0,2.425727745E0
1.021772159E1,-1.095785141E0,1.294192314E0,1.197757244E0,2.076126498E0
1.022595867E1,-1.267506599E0,1.298146248E0,5.381137729E-1,1.892438399E0
1.023419816E1,-1.343537331E0,1.263513684E0,1.897826791E-2,1.844429333E0
1.024241040E1,-1.282620430E0,1.228356957E0,-2.255395353E-1,1.790207827E0
1.025062213E1,-1.098770142E0,1.184252501E0,-2.222439945E-1,1.630687647E0
1.025883286E1,-8.494367599E-1,1.174044132E0,-1.037444621E-1,1.452819792E0
1.026704501E1,-4.892530441E-1,1.153899193E0,-1.227963716E-2,1.253396457E0
1.027525855E1,-9.992599487E-2,1.148795366E0,8.340601623E-2,1.156145562E0
1.028347086E1,2.487373352E-1,1.231385469E0,1.385451406E-1,1.263873092E0
1.029168093E1,6.136341095E-1,1.313220382E0,5.909632891E-2,1.450719465E0
1.029989097E1,8.340520859E-1,1.363257527E0,-5.555003136E-2,1.599124690E0
1.030812763E1,9.800262451E-1,1.345339417E0,-1.101180762E-1,1.668087402E0
1.031636582E1,1.097073555E0,1.319334388E0,-1.162806898E-1,1.719806620E0
1.032457674E1,1.114175797E0,1.372397304E0,7.330314070E-2,1.769247132E0
1.033278801E1,1.044604301E0,1.468487978E0,3.651420474E-1,1.838745171E0
1.034099786E1,1.022732735E0,1.482146502E0,7.679150105E-1,1.957660329E0
1.034920897E1,1.045934677E0,1.496630907E0,1.232363224E0,2.202862351E0
1.035742186E1,1.037463188E0,1.537896872E0,1.766327024E0,2.561516701E0
1.036563420E1,1.007054329E0,1.604247928E0,2.159843445E0,2.872750170E0
1.037384628E1,1.016867638E0,1.686093807E0,2.337222576E0,3.056066342E0
1.038205978E1,1.026121140E0,1.740085125E0,2.471207619E0,3.191815773E0
1.039029790E1,8.909778595E-1,1.856529593E0,2.578851700E0,3.300154507E0
1.039853732E1,7.670783997E-1,2.047249794E0,2.551625729E0,3.360124231E0
1.040674813E1,5.707931519E-1,2.205106497E0,2.310749054E0,3.244666497E0
1.041495951E1,3.571233749E-1,2.289298058E0,2.061213493E0,3.101132659E0
1.042317066E1,1.021318436E-1,2.359385490E0,1.704085946E0,2.912222470E0
1.043138317E1,-1.687145233E-2,2.350809574E0,1.344849229E0,2.708359235E0
1.043959674E1,-1.386756897E-1,2.373799086E0,1.099406719E0,2.619703834E0
1.044780778E1,-2.344474792E-1,2.388117313E0,9.288684130E-1,2.573104439E0
1.045603101E1,-2.320070267E-1,2.378484011E0,7.825520635E-1,2.514637386E0
1.046424359E1,-1.523857117E-1,2.411682844E0,7.656459808E-1,2.534886450E0
1.047248420E1,-6.022357941E-2,2.406612158E0,7.619476914E-1,2.525068958E0
1.048072240E1,8.297920227E-3,2.446203232E0,8.875257969E-1,2.602245405E0
1.048893474E1,2.686214447E-2,2.535240650E0,1.054452896E0,2.745912897E0
1.049718028E1,1.581773758E-1,2.560702324E0,1.201027036E0,2.832787040E0
1.050539274E1,3.566884995E-1,2.618148804E0,1.357961297E0,2.970856565E0
1.051360513E1,4.431056976E-1,2.613409042E0,1.458307862E0,3.025377878E0
1.052181774E1,6.257944107E-1,2.552578449E0,1.557564378E0,3.055042091E0
1.053002916E1,6.357917786E-1,2.562019587E0,1.583241224E0,3.078120908E0
1.053824082E1,5.107498169E-1,2.584385157E0,1.604701519E0,3.084635956E0
1.054645140E1,4.419155121E-1,2.639659882E0,1.564700127E0,3.100222588E0
1.055468774E1,3.660774231E-1,2.655058861E0,1.565016508E0,3.103647355E0
1.056292609E1,2.928171158E-1,2.714259624E0,1.524975657E0,3.127058990E0
1.057113790E1,2.581443787E-1,2.731492996E0,1.435148001E0,3.096343374E0
1.057935151E1,2.092428207E-1,2.756228209E0,1.422062874E0,3.108510787E0
1.058756370E1,2.037029266E-1,2.762701035E0,1.439391613E0,3.121836015E0
1.059577401E1,3.971929550E-1,2.739012957E0,1.390236139E0,3.097210155E0
1.060398551E1,5.622119904E-1,2.653695345E0,1.339349508E0,3.025233613E0
1.061219601E1,6.365594864E-1,2.578704834E0,1.250690460E0,2.935839442E0
1.062040859E1,6.920900345E-1,2.461449862E0,1.175350785E0,2.814102611E0
1.062862013E1,7.193918228E-1,2.384086132E0,1.161041141E0,2.747618571E0
1.063685862E1,8.957300186E-1,2.320846081E0,1.197491288E0,2.760913650E0
1.064509820E1,1.034406662E0,2.315165758E0,1.211146951E0,2.810136396E0
1.065330943E1,1.267138481E0,2.288267851E0,1.008144259E0,2.803241790E0
1.066152105E1,1.457448006E0,2.266422987E0,8.466940522E-1,2.824485557E0
1.066973209E1,1.586156845E0,2.325993299E0,7.548959851E-1,2.914790956E0
1.067794505E1,1.701002121E0,2.444989443E0,6.432657242E-1,3.047158083E0
1.068615801E1,1.674962044E0,2.656394005E0,4.401327074E-1,3.171063506E0
1.069436889E1,1.960232735E0,2.711752176E0,3.254980445E-1,3.361853836E0
1.070259116E1,2.003039360E0,2.947798967E0,-1.121340990E-1,3.565706029E0
1.071080178E1,1.843828201E0,3.087737799E0,-5.484890342E-1,3.637948236E0
1.071904220E1,1.608807564E0,3.210016727E0,-1.076126337E0,3.748401934E0
1.072728239E1,1.352803230E0,3.234614134E0,-1.596540332E0,3.852498696E0
1.073549705E1,1.075799942E0,3.070468664E0,-2.063899517E0,3.852895606E0
1.074371112E1,7.898178101E-1,2.832642555E0,-2.367545128E0,3.775307398E0
1.075192593E1,4.759693146E-1,2.431097269E0,-2.517239571E0,3.531752508E0
1.076014186E1,2.634763718E-1,2.004882336E0,-2.402656794E0,3.140339575E0
1.076835636E1,1.336526871E-1,1.449269772E0,-2.174614429E0,2.616714319E0
1.077656978E1,7.986450195E-2,9.543412924E-1,-1.872174025E0,2.102898290E0
1.078478366E1,6.203651428E-2,4.970910549E-1,-1.526817918E0,1.606897943E0
1.079299693E1,6.390190125E-2,2.003906965E-1,-1.166875243E0,1.185680276E0
1.080123616E1,8.101558685E-2,1.337453127E-1,-8.088281155E-1,8.238047429E-1
1.080947543E1,2.454042435E-1,2.298828363E-1,-5.274199247E-1,6.254927163E-1
1.081768893E1,5.306777954E-1,5.360411406E-1,-4.341676831E-1,8.703221266E-1
1.082590236E1,8.911037445E-1,8.414527774E-1,-5.963333249E-1,1.362982793E0
1.083411605E1,1.060159683E0,1.107648373E0,-8.282616735E-1,1.742653400E0
1.084232920E1,1.053902626E0,1.392392874E0,-1.094611883E0,2.060981280E0
1.085054255E1,9.152183533E-1,1.610538006E0,-1.364162445E0,2.300520915E0
1.085875489E1,7.589416504E-1,1.722381115E0,-1.576321125E0,2.455071776E0
1.086696701E1,5.901470184E-1,1.699519277E0,-1.703161716E0,2.477377466E0
1.087517832E1,3.705997467E-1,1.510261059E0,-1.579427838E0,2.216489326E0
1.088341789E1,5.964851379E-2,1.281485319E0,-1.246158004E0,1.788483251E0
1.089165793E1,-2.683172226E-1,1.011784554E0,-6.981049776E-1,1.258194212E0
1.089986836E1,-5.005502701E-1,7.532142401E-1,-2.352753282E-1,9.344713716E-1
1.090807993E1,-6.366443634E-1,4.755573273E-1,3.020546436E-1,8.501222410E-1
1.091629193E1,-8.392820358E-1,2.562295198E-1,7.028712034E-1,1.124311270E0
1.092450428E1,-1.005411148E0,1.687289476E-1,1.012026548E0,1.436495308E0
1.093271878E1,-9.555120468E-1,6.106495857E-3,1.074720144E0,1.438076476E0
1.094093212E1,-8.574180603E-1,-4.330158234E-2,1.064887285E0,1.367854410E0
1.094915578E1,-7.518558502E-1,-4.393792152E-2,9.470564127E-1,1.210013888E0
1.095736855E1,-6.533708572E-1,-5.729055405E-2,6.344610453E-1,9.125330145E-1
1.096560762E1,-5.667238235E-1,-9.136199951E-2,2.588829398E-1,6.297168282E-1
1.097384555E1,-5.157880783E-1,-1.629078388E-1,-1.092571020E-1,5.518273462E-1
1.098205686E1,-5.483293533E-1,-2.904154062E-1,-3.560936749E-1,7.154082004E-1
1.099026916E1,-5.684909821E-1,-3.581909537E-1,-4.463490844E-1,8.066661398E-1
1.099848051E1,-4.948892593E-1,-4.618022442E-1,-4.491559863E-1,8.123532432E-1
1.100669124E1,-3.346242905E-1,-6.003060937E-1,-3.384609818E-1,7.660918079E-1
1.101490170E1,-1.882438660E-1,-6.774380803E-1,-1.667295992E-1,7.226042243E-1
1.102311112E1,-8.938694000E-2,-6.917802691E-1,-2.476444840E-2,6.979708044E-1
1.103132309E1,7.445049286E-2,-7.149984241E-1,2.803426981E-2,7.194105522E-1
1.103953420E1,1.810760498E-1,-6.923427582E-1,-9.617716074E-3,7.156951384E-1
1.104777093E1,2.327356339E-1,-6.609890461E-1,-2.206161618E-2,7.011127650E-1
1.105601043E1,2.412672043E-1,-6.435070038E-1,-1.160936356E-1,6.969855522E-1
1.106422201E1,1.635437012E-1,-6.426808834E-1,-9.045886993E-2,6.693041665E-1
1.107243351E1,9.781074524E-2,-6.508022547E-1,-6.082534790E-2,6.609162122E-1
1.108064570E1,7.522201538E-2,-6.607540846E-1,-4.472643137E-2,6.665243923E-1
1.108885909E1,-1.180362701E-2,-7.411215901E-1,4.878419638E-2,7.428192477E-1
1.109707274E1,-1.009283066E-1,-7.813414931E-1,2.609960139E-1,8.299397395E-1
1.110528366E1,-7.243537903E-2,-8.575303555E-1,5.113210678E-1,1.001026687E0
1.111349593E1,-5.798053741E-2,-9.093529582E-1,7.497177720E-1,1.179983594E0
1.112170832E1,2.265930176E-3,-9.395654798E-1,1.071694613E0,1.425243056E0
1.112994755E1,1.258659363E-2,-8.998790979E-1,1.342886448E0,1.616565750E0
1.113819824E1,-1.275062561E-2,-8.773123622E-1,1.521031141E0,1.755954240E0
1.114641112E1,-5.699729919E-2,-8.428463340E-1,1.566861749E0,1.780082688E0
1.115462401E1,-8.910369873E-2,-8.235448003E-1,1.543195724E0,1.751461833E0
1.116283820E1,-7.559013367E-2,-7.810130119E-1,1.432573080E0,1.633389367E0
1.117105020E1,-9.547615051E-2,-7.034016848E-1,1.252016068E0,1.439247671E0
1.117927712E1,-1.467514038E-2,-6.290984154E-1,1.044303894E0,1.219241895E0
1.118749039E1,3.989791870E-2,-5.369081497E-1,7.518243790E-1,9.247173092E-1
1.119571608E1,1.141548157E-3,-4.206296206E-1,3.832464516E-1,5.690416711E-1
1.120392966E1,-9.015846252E-2,-3.563795090E-1,1.171475351E-1,3.858217824E-1
1.121216855E1,-2.005043030E-1,-2.677849531E-1,-1.016483605E-1,3.496328729E-1
1.122040816E1,-2.891988754E-1,-1.786562204E-1,-1.670072377E-1,3.787419334E-1
1.122862128E1,-2.628879547E-1,-1.727187634E-1,-1.785223484E-1,3.616795223E-1
1.123683497E1,3.164482117E-2,-4.153695107E-1,-2.701742053E-1,4.965151823E-1
1.124504705E1,1.944017410E-1,-6.920527220E-1,-2.960655987E-1,7.774212794E-1
1.125325955E1,1.672592163E-1,-8.767522573E-1,-2.076835483E-1,9.164074544E-1
1.126147389E1,1.331396103E-1,-9.110215902E-1,-4.713410139E-2,9.219046139E-1
1.126968589E1,2.557077408E-1,-9.289557934E-1,2.003530562E-1,9.841171993E-1
1.127789897E1,2.903108597E-1,-8.571962118E-1,4.257803559E-1,1.000177310E0
1.128611151E1,1.677141190E-1,-5.726314783E-1,6.202952266E-1,8.606979748E-1
1.129435151E1,-6.410598755E-2,-8.460617065E-2,8.029933572E-1,8.099790821E-1
1.130259247E1,-1.274700165E-1,5.054714680E-1,9.087771773E-1,1.047676462E0
1.131080339E1,-5.389022827E-2,1.036866903E0,8.928787708E-1,1.369390241E0
1.131901551E1,-3.091526031E-2,1.444565296E0,7.856073976E-1,1.644659123E0
1.132722735E1,-4.107475281E-3,1.693923473E0,5.936053991E-1,1.794926454E0
1.133543885E1,-1.684570312E-2,1.817253947E0,5.960808396E-1,1.912591973E0
1.134365128E1,8.367347717E-2,1.611387253E0,7.087293267E-1,1.762347125E0
1.135186155E1,7.762908936E-3,1.421537399E0,8.606570363E-1,1.661794023E0
1.136007308E1,-1.174478531E-1,1.050420642E0,1.086385965E0,1.515721607E0
1.136828343E1,-2.194986343E-1,6.384367347E-1,1.165749431E0,1.347127629E0
1.137652028E1,-2.068424225E-1,2.393856049E-1,1.158990026E0,1.201393830E0
1.138475693E1,-9.094715118E-2,-5.018126965E-2,1.075648904E0,1.080652631E0
1.139296801E1,1.859569550E-1,-2.281486988E-1,8.807026148E-1,9.285843600E-1
1.140117912E1,3.868589401E-1,-2.561663389E-1,5.064321160E-1,6.868438839E-1
1.140938955E1,4.616088867E-1,-1.095919609E-1,1.213017255E-1,4.897012056E-1
1.141759897E1,4.196691513E-1,1.221590042E-1,-3.134627342E-1,5.378697841E-1
1.142581101E1,4.115905762E-1,3.272572756E-1,-6.360393167E-1,8.252576199E-1
1.143402258E1,2.237768173E-1,6.103931069E-1,-8.516577482E-1,1.071436759E0
1.144224824E1,1.959962845E-1,7.333654761E-1,-8.733931780E-1,1.157175487E0
1.145046212E1,-4.061508179E-2,9.034960866E-1,-9.027069807E-1,1.277824188E0
1.145870258E1,-2.370395660E-1,9.985007644E-1,-7.530120611E-1,1.272878115E0
1.146694208E1,-4.337587357E-1,1.012397766E0,-6.198264360E-1,1.263835705E0
1.147515539E1,-7.239446640E-1,1.001294374E0,-3.370510936E-1,1.280737967E0
1.148337001E1,-1.009366035E0,9.942610860E-1,7.331599295E-2,1.418714254E0
1.149158316E1,-1.194087982E0,9.900479913E-1,3.325561285E-1,1.586390467E0
1.149979501E1,-1.337757111E0,9.684234262E-1,4.267366529E-1,1.705738019E0
1.150800866E1,-1.404487610E0,9.531486630E-1,4.183288813E-1,1.748163858E0
1.151622066E1,-1.459000587E0,9.080349207E-1,3.473275900E-1,1.753238885E0
1.152443308E1,-1.465424538E0,9.314613342E-1,1.732388437E-1,1.745021773E0
1.153264485E1,-1.512414932E0,9.536717534E-1,5.191370845E-2,1.788738039E0
1.154088428E1,-1.525812149E0,9.790140986E-1,-4.106733203E-2,1.813355411E0
1.154912212E1,-1.414540291E0,9.891958833E-1,-1.238882393E-1,1.730543564E0
1.155733385E1,-1.283926010E0,1.039336085E0,-2.161117643E-1,1.665950117E0
1.156554516E1,-1.059788704E0,1.100417972E0,-3.084405065E-1,1.558591465E0
1.157375678E1,-8.714160919E-1,1.165048599E0,-3.921843767E-1,1.506822096E0
1.158196816E1,-7.189073563E-1,1.234933376E0,-4.988333583E-1,1.513513446E0
1.159018097E1,-5.830717087E-1,1.295652866E0,-5.529869795E-1,1.524625714E0
1.159839578E1,-3.849220276E-1,1.303866863E0,-5.576245785E-1,1.469414487E0
1.160660893E1,-2.064752579E-1,1.378196001E0,-5.068687797E-1,1.482893189E0
1.161482066E1,-3.600597382E-2,1.402372718E0,-4.291431308E-1,1.467006986E0
1.162306051E1,1.118984222E-1,1.384647846E0,-3.052724004E-1,1.422308741E0
1.163129854E1,2.275266647E-1,1.357613921E0,-1.906850636E-1,1.389692317E0
1.163951101E1,3.635663986E-1,1.235161662E0,-3.385543823E-3,1.287562161E0
1.164772247E1,4.985837936E-1,1.139725924E0,1.409305632E-1,1.251967413E0
1.165593408E1,5.946016312E-1,1.041703105E0,2.556213737E-1,1.226392574E0
1.166414512E1,7.547912598E-1,9.540446401E-1,3.063742518E-1,1.254502373E0
1.167235585E1,9.649486542E-1,8.175327778E-1,3.786907196E-1,1.320186505E0
1.168056655E1,1.155000687E0,7.756813169E-1,3.727870286E-1,1.440374347E0
1.168878681E1,1.281535149E0,7.860919237E-1,3.388683498E-1,1.541137440E0
1.169699912E1,1.315571785E0,8.328663707E-1,2.646650672E-1,1.579380610E0
1.170523847E1,1.321542740E0,8.714210987E-1,1.473486423E-1,1.589830672E0
1.171347693E1,1.358284950E0,9.645380378E-1,1.212239265E-2,1.665958758E0
1.172168801E1,1.304080963E0,1.042934775E0,-6.955575943E-2,1.671280380E0
1.172989931E1,1.278563499E0,1.118078828E0,-1.429588795E-1,1.704482951E0
1.173811058E1,1.226553917E0,1.165113211E0,-2.370832711E-1,1.708254016E0
1.174632158E1,1.092950821E0,1.195863724E0,-2.915986776E-1,1.646104897E0
1.175453247E1,9.614429474E-1,1.188184261E0,-3.824895024E-1,1.575580083E0
1.176274162E1,7.976722717E-1,1.170195580E0,-4.577905536E-1,1.488358471E0
1.177095139E1,6.645145416E-1,1.141571760E0,-4.597276449E-1,1.398611872E0
1.177916035E1,5.524587631E-1,1.121857524E0,-4.362210929E-1,1.324410749E0
1.178739601E1,5.406751633E-1,1.073507190E0,-3.832751215E-1,1.261604985E0
1.179563204E1,7.323455811E-1,9.667978883E-1,-3.901122212E-1,1.274054847E0
1.180384381E1,9.456338882E-1,6.754249334E-1,-5.100894570E-1,1.269099502E0
1.181205574E1,9.458894730E-1,2.929065824E-1,-5.797265172E-1,1.147424941E0
1.182026628E1,7.665481567E-1,7.518851757E-2,-4.998685420E-1,9.182145441E-1
1.182847608E1,7.696704865E-1,-1.045454741E-1,-3.367196620E-1,8.465828634E-1
1.183668601E1,1.058766365E0,-1.754138470E-1,-2.280044556E-2,1.073441239E0
1.184489478E1,1.430378914E0,-1.628940105E-1,2.627127767E-1,1.463398886E0
1.185310301E1,1.668747902E0,-4.948842525E-2,4.659130573E-1,1.733275408E0
1.186131297E1,1.825913429E0,2.205241919E-1,5.982499719E-1,1.934035625E0
1.186954893E1,1.994789124E0,5.752078295E-1,5.255951285E-1,2.141564366E0
1.187778639E1,2.182435036E0,9.384560585E-1,2.845429182E-1,2.392631842E0
1.188599562E1,2.194643021E0,1.285840869E0,-3.760403395E-2,2.543866897E0
1.189420635E1,2.143652916E0,1.491563201E0,-3.979880810E-1,2.641666731E0
1.190241835E1,1.928571701E0,1.653685212E0,-8.608423471E-1,2.682370805E0
1.191063058E1,1.491971970E0,1.677762389E0,-1.313039064E0,2.600949553E0
1.191884424E1,1.047206879E0,1.597518086E0,-1.675809145E0,2.541071147E0
1.192705508E1,6.879987717E-1,1.328613520E0,-1.836902142E0,2.369127618E0
1.193527912E1,4.049825668E-1,1.021053314E0,-1.838170528E0,2.141362100E0
1.194349001E1,1.503610611E-1,6.160132885E-1,-1.636691093E0,1.755231767E0
1.195172743E1,3.445053101E-2,1.207317710E-1,-1.337691188E0,1.343570137E0
1.195996543E1,5.723857880E-2,-4.636932611E-1,-1.120342016E0,1.213859106E0
1.196817608E1,1.782770157E-1,-9.855208993E-1,-8.637696505E-1,1.322547597E0
1.197638701E1,1.870641708E-1,-1.401125908E0,-6.607985497E-1,1.560385060E0
1.198459685E1,1.530227661E-1,-1.659219742E0,-4.246656895E-1,1.719525244E0
1.199280866E1,6.195545197E-2,-1.724315405E0,-2.069032192E-1,1.737789123E0
1.200101993E1,-1.658630371E-2,-1.645533800E0,-4.582643509E-3,1.645623770E0
1.200923051E1,-2.989673615E-2,-1.478217006E0,1.202513576E-1,1.483401402E0
1.201744143E1,1.960563660E-2,-1.223975897E0,1.196416616E-1,1.229965652E0
1.202565170E1,6.475925446E-2,-9.808132648E-1,5.481824279E-2,9.844762370E-1
1.203388874E1,5.038070679E-2,-7.679744959E-1,-6.807222962E-2,7.726298405E-1
1.204212401E1,-3.798294067E-2,-5.824806690E-1,-1.225643158E-1,5.964465148E-1
1.205033427E1,-1.835794449E-1,-4.494758546E-1,-7.411095500E-2,4.911439607E-1
1.205854466E1,-3.887977600E-1,-4.003846645E-1,7.689386606E-2,5.633686576E-1
1.206675443E1,-5.746393204E-1,-4.021799266E-1,2.682049572E-1,7.509280531E-1
1.207496585E1,-6.860084534E-1,-4.811074734E-1,5.524392724E-1,1.003624008E0
1.208317720E1,-8.618097305E-1,-6.422170401E-1,8.307821751E-1,1.358439458E0
1.209138704E1,-9.943151474E-1,-8.234176636E-1,1.075689197E0,1.680412601E0
1.209960031E1,-1.150567055E0,-1.006060719E0,1.126366735E0,1.898595465E0
1.210781227E1,-1.282706261E0,-1.147620559E0,1.249478102E0,2.126867138E0
1.211605224E1,-1.335712433E0,-1.398888469E0,1.186136961E0,2.268906684E0
1.212429135E1,-1.395844460E0,-1.527541280E0,1.078936815E0,2.333638526E0
1.213250189E1,-1.458342552E0,-1.688872337E0,8.805495501E-1,2.398837277E0
1.214071281E1,-1.592650414E0,-1.699961424E0,6.866565943E-1,2.428559544E0
1.214892358E1,-1.686212540E0,-1.714656591E0,3.672697544E-1,2.432744752E0
1.215713747E1,-1.724595070E0,-1.737456799E0,7.846856117E-2,2.449314516E0
1.216535266E1,-1.846627712E0,-1.723787427E0,-1.385042220E-1,2.529952652E0
1.217356570E1,-1.944582939E0,-1.699943185E0,-2.172656208E-1,2.591990353E0
1.218179020E1,-1.941868305E0,-1.712665081E0,-2.452636361E-1,2.600813036E0
1.219000497E1,-1.912713528E0,-1.716895580E0,-2.424421608E-1,2.581662579E0
1.219824662E1,-1.957718849E0,-1.759836435E0,-1.278822869E-1,2.635534339E0
1.220648681E1,-1.973970890E0,-1.815967560E0,1.776593924E-2,2.682277928E0
1.221470008E1,-1.968733311E0,-1.923298120E0,2.197808325E-1,2.761030627E0
1.222291289E1,-1.879810333E0,-2.015159607E0,4.126993418E-1,2.786552687E0
1.223112343E1,-1.657007217E0,-2.120036602E0,6.484954953E-1,2.767810420E0
1.223933347E1,-1.546951294E0,-2.142481089E0,7.918599844E-1,2.758681887E0
1.224754474E1,-1.434718132E0,-2.245345831E0,8.859447241E-1,2.808004999E0
1.225575412E1,-1.260472298E0,-2.291189671E0,8.968728781E-1,2.764547247E0
1.226396458E1,-1.052904129E0,-2.354358673E0,9.079149961E-1,2.734213142E0
1.227217439E1,-9.365015030E-1,-2.367216587E0,8.467454910E-1,2.682858058E0
1.228041331E1,-8.297739029E-1,-2.344339371E0,7.732149363E-1,2.604287456E0
1.228865100E1,-6.800155640E-1,-2.342951775E0,7.558161020E-1,2.554036446E0
1.229686347E1,-4.345836639E-1,-2.317724228E0,7.793763876E-1,2.483573255E0
1.230507470E1,-4.796504974E-2,-2.207607985E0,8.770219684E-1,2.375921125E0
1.231328585E1,2.429046631E-1,-2.034528017E0,9.745318294E-1,2.268924682E0
1.232149973E1,4.597091675E-1,-1.859883547E0,1.068605423E0,2.193722151E0
1.232971243E1,6.911630630E-1,-1.702541113E0,1.105294704E0,2.144301519E0
1.233792243E1,7.003164291E-1,-1.563078880E0,1.171041131E0,2.074848432E0
1.234613223E1,7.146215439E-1,-1.405780673E0,1.238508344E0,2.005194796E0
1.235434354E1,6.334657669E-1,-1.240284443E0,1.263615966E0,1.880507827E0
1.236258039E1,5.693397522E-1,-1.104373813E0,1.231195927E0,1.749180574E0
1.237081843E1,6.371450424E-1,-1.189032793E0,1.040111184E0,1.703403670E0
1.237902931E1,6.883573532E-1,-1.393481255E0,7.581511736E-1,1.729282815E0
1.238723970E1,6.151351929E-1,-1.540853858E0,4.747539461E-1,1.725692101E0
1.239545070E1,6.673860550E-1,-1.694303513E0,2.744599283E-1,1.841574541E0
1.240366273E1,8.107585907E-1,-1.780385256E0,1.596726626E-1,1.962803228E0
1.241187577E1,8.585596085E-1,-1.800018311E0,1.067442298E-1,1.997144174E0
1.242008927E1,7.534666061E-1,-1.622092009E0,1.413438320E-1,1.794121649E0
1.242831366E1,6.608123779E-1,-1.217507958E0,2.930617332E-1,1.415939196E0
1.243652662E1,5.712509155E-1,-7.158305049E-1,4.414812326E-1,1.016684120E0
1.244476562E1,5.853509903E-1,-7.847434282E-2,5.875123143E-1,8.330454512E-1
1.245300370E1,6.017189026E-1,4.038620591E-1,6.013403535E-1,9.416901939E-1
1.246121543E1,6.614789963E-1,7.512452602E-1,5.426326990E-1,1.138584274E0
1.246945981E1,7.977485657E-1,8.355682492E-1,3.593927026E-1,1.209851308E0
1.247767196E1,8.067188263E-1,8.798521161E-1,3.119651973E-1,1.233797915E0
1.248588320E1,8.030118942E-1,7.634510994E-1,3.610480726E-1,1.165350331E0
1.249409543E1,7.051534653E-1,5.925599337E-1,4.124859869E-1,1.009214236E0
1.250230481E1,6.090946198E-1,3.030441403E-1,4.882932305E-1,8.374140468E-1
1.251051635E1,5.244293213E-1,1.602590084E-3,4.322907627E-1,6.796351851E-1
1.251872831E1,5.495643616E-1,-2.514936328E-1,2.945300639E-1,6.723228342E-1
1.252696704E1,5.530595779E-1,-4.034832716E-1,5.304479599E-2,6.866493993E-1
1.253520639E1,5.686130524E-1,-3.812856674E-1,-2.122796476E-1,7.167720783E-1
1.254341666E1,6.491060257E-1,-2.869310975E-1,-5.136959553E-1,8.761002350E-1
1.255162831E1,6.006593704E-1,-1.115346551E-1,-7.508902550E-1,9.680226410E-1
1.255984004E1,4.494457245E-1,1.598211527E-1,-1.008033156E0,1.115201822E0
1.256805123E1,1.856956482E-1,4.489519000E-1,-1.308097482E0,1.395406645E0
1.257626362E1,-1.547813416E-1,6.825556755E-1,-1.623478055E0,1.767914169E0
1.258447527E1,-3.997220993E-1,7.859631777E-1,-1.782601833E0,1.988764735E0
1.259268673E1,-6.259422302E-1,8.710971475E-1,-1.768311381E0,2.068221230E0
1.260089866E1,-9.005737305E-1,8.632487655E-1,-1.544081688E0,1.985049051E0
1.260913608E1,-1.192223549E0,7.636831999E-1,-1.131755948E0,1.812589459E0
1.261737477E1,-1.426514626E0,6.285094023E-1,-7.066981196E-1,1.711546166E0
1.262558796E1,-1.634452820E0,4.809452891E-1,-4.137813449E-1,1.753271055E0
1.263383139E1,-1.837369442E0,3.135595322E-1,-1.234633029E-1,1.868017461E0
1.264204454E1,-1.949054718E0,1.818295717E-1,1.741647124E-1,1.965250527E0
1.265025708E1,-2.031800747E0,1.132155061E-1,3.380886316E-1,2.062846565E0
1.265846992E1,-1.949179173E0,1.320597529E-1,3.861029744E-1,1.991435345E0
1.266668146E1,-1.741829395E0,1.767649651E-1,2.703378797E-1,1.771524221E0
1.267490470E1,-1.450464249E0,2.943345308E-1,1.827102900E-2,1.480139582E0
1.268311712E1,-1.151728630E0,4.698909521E-1,-2.793663740E-1,1.274881138E0
1.269135473E1,-9.630613327E-1,6.206098795E-1,-5.200362802E-1,1.258205661E0
1.269959262E1,-7.671699524E-1,8.391048908E-1,-7.284884453E-1,1.350311878E0
1.270780408E1,-5.687170029E-1,9.986906052E-1,-8.487614393E-1,1.428711985E0
1.271601585E1,-2.886514664E-1,1.166039228E0,-8.389911652E-1,1.465221255E0
1.272422793E1,-1.320075989E-2,1.230118752E0,-7.408580780E-1,1.436049127E0
1.273243942E1,1.832866669E-1,1.292419314E0,-4.688508511E-1,1.386997767E0
1.274065177E1,3.628864288E-1,1.313224912E0,-2.240957618E-1,1.380748036E0
1.274886196E1,4.416131973E-1,1.288848877E0,-4.926294088E-2,1.363297649E0
1.275707389E1,4.163684845E-1,1.194017172E0,1.165010333E-1,1.269886693E0
1.276528716E1,3.447971344E-1,1.122405171E0,2.501648068E-1,1.200525245E0
1.277352566E1,3.062057495E-1,9.593492150E-1,2.520750761E-1,1.038101499E0
1.278176331E1,2.984685898E-1,7.743077874E-1,2.259445786E-1,8.600505807E-1
1.278997512E1,3.457469940E-1,6.390566230E-1,1.845201254E-1,7.496546058E-1
1.279818723E1,4.319744110E-1,5.687503815E-1,1.423006654E-1,7.282364778E-1
1.280639850E1,6.427145004E-1,5.246765018E-1,7.456570864E-2,8.330230522E-1
1.281460931E1,9.469470978E-1,5.582644939E-1,-2.812308073E-2,1.099617642E0
1.282282150E1,1.289524078E0,6.519219875E-1,-2.233353257E-1,1.462105774E0
1.283103285E1,1.538800240E0,7.834601402E-1,-4.382242560E-1,1.781503990E0
1.283924481E1,1.709071159E0,9.416110516E-1,-6.718816161E-1,2.063729756E0
1.284745485E1,1.932045937E0,1.101720691E0,-8.610358238E-1,2.384947100E0
1.285569327E1,2.253260612E0,1.110842466E0,-1.166328669E0,2.769743117E0
1.286393235E1,2.284434319E0,1.266247034E0,-1.275055647E0,2.906507975E0
1.287214512E1,2.236156464E0,1.301075935E0,-1.323891282E0,2.906180044E0
1.288035831E1,2.014972687E0,1.279198885E0,-1.394195199E0,2.764099305E0
1.288857073E1,1.719135284E0,1.130981326E0,-1.295423269E0,2.431597486E0
1.289678269E1,1.356071472E0,1.026185274E0,-1.137400150E0,2.045889820E0
1.290499585E1,9.571075439E-1,9.450301528E-1,-8.958745003E-1,1.616084144E0
1.291320781E1,6.899900436E-1,8.412992358E-1,-5.942583084E-1,1.239763526E0
1.292143173E1,6.888790131E-1,6.467285156E-1,-3.516747057E-1,1.008209882E0
1.292964327E1,8.027343750E-1,3.124152422E-1,-2.792769670E-1,9.055282352E-1
1.293788231E1,7.510700226E-1,-1.251720786E-1,-2.741407752E-1,8.092758446E-1
1.294612177E1,5.507011414E-1,-4.968127608E-1,-2.082259655E-1,7.703588249E-1
1.295433277E1,5.178537369E-1,-7.582058311E-1,-9.709960222E-2,9.232967604E-1
1.296254362E1,6.457424164E-1,-9.451550841E-1,1.402799487E-1,1.153247530E0
1.297075323E1,8.936805725E-1,-1.056566954E0,4.873018861E-1,1.467127064E0
1.297896454E1,1.122845650E0,-1.033827305E0,8.726081848E-1,1.758131478E0
1.298717742E1,1.435861588E0,-8.249556422E-1,1.248846889E0,2.074094709E0
1.299538754E1,1.741540909E0,-4.818112254E-1,1.346552610E0,2.253510756E0
1.300359839E1,1.967969894E0,1.914381981E-3,1.338853836E0,2.380218218E0
1.301180766E1,2.024036407E0,3.423275650E-1,9.701901078E-1,2.270502232E0
1.302004546E1,1.837779999E0,7.077277303E-1,5.424164534E-1,2.042677036E0
1.302828373E1,1.404271126E0,1.015625000E0,6.582188606E-2,1.734302181E0
1.303649658E1,9.581518173E-1,1.089865446E0,-3.698305488E-1,1.497543399E0
1.304470866E1,5.020685196E-1,1.046655297E0,-8.544260263E-1,1.441389588E0
1.305292000E1,1.822319031E-1,8.564683795E-1,-1.148159981E0,1.443959104E0
1.306113146E1,-8.515644073E-2,4.732652903E-1,-1.353309155E0,1.436202396E0
1.306934269E1,-3.287305832E-1,2.511370182E-2,-1.339227915E0,1.379212058E0
1.307755362E1,-3.975286484E-1,-5.983237028E-1,-1.176126480E0,1.378148677E0
1.308576523E1,-4.086875916E-1,-1.234254241E0,-9.337298870E-1,1.600706276E0
1.309397562E1,-3.047685623E-1,-1.861253023E0,-6.530612111E-1,1.995904717E0
1.310221354E1,-2.677469254E-1,-2.325242281E0,-3.729734719E-1,2.370136977E0
1.311045058E1,-1.874923706E-1,-2.739183903E0,-8.821666241E-2,2.747010015E0
1.311866181E1,-3.799657822E-1,-2.657238483E0,2.187561393E-1,2.693166278E0
1.312687173E1,-3.110904694E-1,-2.556131840E0,4.982534647E-1,2.622754998E0
1.313508335E1,-1.867198944E-1,-2.286566734E0,6.708750129E-1,2.390256269E0
1.314329696E1,-4.988861084E-2,-1.973140001E0,7.211422920E-1,2.101384435E0
1.315151062E1,-6.583213806E-2,-1.578709126E0,7.305448055E-1,1.740790650E0
1.315972277E1,-1.627864838E-1,-1.291086555E0,7.477700710E-1,1.500854427E0
1.316794588E1,-3.000850677E-1,-1.085748672E0,7.928647399E-1,1.377510698E0
1.317615719E1,-4.107685089E-1,-9.545254707E-1,9.043540955E-1,1.377572493E0
1.318439615E1,-4.804992676E-1,-9.188709855E-1,1.101636767E0,1.512880366E0
1.319263338E1,-6.194248199E-1,-1.048160553E0,1.450967550E0,1.894105194E0
1.320084754E1,-9.065408707E-1,-1.152113080E0,1.880669355E0,2.384554072E0
1.320906058E1,-9.731817245E-1,-1.384877920E0,2.231071711E0,2.800473264E0
1.321727281E1,-1.310207367E0,-1.506626129E0,2.480982304E0,3.184625383E0
1.322548412E1,-1.433976173E0,-1.791061640E0,2.748663902E0,3.580410970E0
1.323369727E1,-1.677367210E0,-1.949456334E0,2.804455996E0,3.805116843E0
1.324191027E1,-1.848914623E0,-2.065656662E0,2.841330767E0,3.969708208E0
1.325012281E1,-1.967861652E0,-2.223329544E0,2.733945131E0,4.036103285E0
1.325833550E1,-2.062991619E0,-2.284202337E0,2.372579813E0,3.886212772E0
1.326657581E1,-2.165500641E0,-2.273159742E0,1.882411957E0,3.660617846E0
1.327481523E1,-2.237100124E0,-2.180758953E0,1.311207771E0,3.388154719E0
1.328302789E1,-2.227443218E0,-2.091238022E0,7.620598674E-1,3.148891074E0
1.329123965E1,-2.172395229E0,-1.939242840E0,2.691869140E-1,2.924453012E0
1.329945339E1,-2.112566948E0,-1.785141945E0,-7.848492265E-2,2.766917194E0
1.330766623E1,-2.074289322E0,-1.703802824E0,-3.099392056E-1,2.702162572E0
1.331587935E1,-2.016826630E0,-1.641149879E0,-4.639841318E-1,2.641258006E0
1.332409046E1,-1.983299255E0,-1.614560604E0,-4.705103338E-1,2.600319568E0
1.333230285E1,-1.990500927E0,-1.597336650E0,-3.889116347E-1,2.581633315E0
1.334051638E1,-1.937861919E0,-1.639220357E0,-2.315829098E-1,2.548721805E0
