"Time (s)","Acceleration x (m/s^2)","Acceleration y (m/s^2)","Acceleration z (m/s^2)","Absolute acceleration (m/s^2)"
4.345333320E-3,1.030457153E1,2.581082611E0,1.237626343E0,1.069476044E1
1.441433327E-2,9.818681946E0,2.129920807E0,1.172960815E0,1.011528126E1
2.448333334E-2,9.693093109E0,1.825154572E0,1.313817902E0,9.950545749E0
3.455233329E-2,9.683213654E0,1.292113037E0,4.724176025E-1,9.780458126E0
4.462133325E-2,9.669292603E0,1.029259644E0,-6.686595154E-1,9.746881573E0
5.469033332E-2,9.804311829E0,3.107537842E-1,-9.671388245E-1,9.856797444E0
6.476033328E-2,9.822873230E0,1.417851562E0,-1.114881592E0,9.987096801E0
7.482933335E-2,9.914632416E0,1.961820374E0,-1.286724243E0,1.018844122E1
8.489833330E-2,9.801767120E0,1.723216553E0,-1.212179260E0,1.002564175E1
9.496733325E-2,9.419611816E0,1.833088074E0,-1.255439301E0,9.678090023E0
1.050363333E-1,9.569150848E0,1.947150879E0,-1.123114471E0,9.829620065E0
1.151053333E-1,1.000953506E1,2.195783844E0,-6.385720825E-1,1.026742583E1
1.251753332E-1,9.985135803E0,2.166594543E0,-4.489164734E-1,1.022734545E1
1.352443333E-1,1.018871246E1,2.188748474E0,-2.899470520E-1,1.042518829E1
1.453133333E-1,1.296768356E1,1.767524414E0,-3.016227722E-1,1.309106321E1
1.553823333E-1,1.252774841E1,2.344574432E0,-1.886077881E0,1.288405213E1
1.654513333E-1,8.608448639E0,9.972262573E-1,-2.244432678E0,8.951945388E0
1.755203333E-1,7.356003113E0,1.350192261E-1,-9.874964905E-1,7.423217719E0
1.855893333E-1,8.387957153E0,6.379733276E-1,-3.499722290E-1,8.419460537E0
1.956593333E-1,8.607400818E0,8.225395203E-1,-3.471281433E-1,8.653578338E0
2.057283333E-1,9.429491272E0,5.659730530E-1,-3.384461975E-1,9.452522255E0
2.157973333E-1,9.214987335E0,6.975494385E-1,-9.066645813E-1,9.285720622E0
2.258663332E-1,9.116192780E0,7.915539551E-1,-1.414708099E0,9.259207713E0
2.359353333E-1,8.844208374E0,7.717950439E-1,-1.676813049E0,9.034787842E0
2.460043333E-1,8.076754303E0,5.063969421E-1,-1.476978607E0,8.226291007E0
2.560743333E-1,7.332052917E0,2.176473999E-1,-8.677455139E-1,7.386430305E0
2.661433333E-1,6.970554657E0,5.763015747E-2,-3.366499329E-1,6.978917297E0
2.762123332E-1,6.883435822E0,-1.182540894E-2,2.035766602E-2,6.883476083E0
2.862813333E-1,6.741231537E0,-1.272354126E-1,1.465452576E-1,6.744024540E0
2.963503333E-1,6.741680603E0,5.044509888E-2,2.441423035E-1,6.746288426E0
3.064193333E-1,7.244035950E0,3.507206726E-1,4.213737488E-1,7.264751728E0
3.164893333E-1,8.162825317E0,3.477268982E-1,7.738906860E-1,8.206798277E0
3.265583332E-1,8.967551880E0,-2.338137817E-1,8.131091309E-1,9.007374871E0
3.366273333E-1,9.741292877E0,-5.203179932E-1,4.842430115E-1,9.767190437E0
3.466963333E-1,1.019095779E1,-1.593586121E0,-2.568658447E-1,1.031799969E1
3.567653333E-1,1.025667114E1,-2.050585785E0,-1.071322174E0,1.051436808E1
3.668343333E-1,9.905052338E0,-1.408421173E0,-1.789528656E0,1.016347012E1
3.769043332E-1,9.551188202E0,-1.113983459E0,-2.592309265E0,9.959228009E0
3.869733333E-1,9.421557770E0,-1.274150391E0,-3.315006409E0,1.006868797E1
3.970423333E-1,9.664801941E0,-1.276246033E0,-3.846850433E0,1.048024135E1
4.071113333E-1,9.371412048E0,-9.857002258E-1,-4.247267761E0,1.033606560E1
4.171803333E-1,9.641600189E0,-4.819976807E-1,-4.142635345E0,1.050496090E1
4.272493332E-1,9.642348633E0,-3.576063538E-1,-4.201313324E0,1.052396328E1
4.373193333E-1,1.004486160E1,-3.011737061E-1,-3.986809387E0,1.081131811E1
4.473883333E-1,9.545799408E0,-4.017645264E-1,-3.477867737E0,1.016755944E1
4.574573333E-1,9.690847778E0,-5.514532471E-1,-2.730771332E0,1.008333989E1
4.675263333E-1,1.137005585E1,-6.602769470E-1,-2.201921082E0,1.160011173E1
4.775953332E-1,1.293190796E1,-6.613247681E-1,-1.972298584E0,1.309815085E1
4.876643333E-1,1.291798691E1,-6.213578796E-1,-1.646725616E0,1.303733779E1
4.977333333E-1,1.213990494E1,-1.049168243E0,-1.405876465E0,1.226599097E1
5.078033333E-1,1.210787155E1,-1.344653778E0,-1.034049683E0,1.222611574E1
5.178723333E-1,1.398182465E1,-1.293909302E0,-8.424481201E-1,1.406681700E1
5.279413332E-1,1.516421585E1,-1.635199585E0,-3.820056152E-1,1.525690822E1
5.380103333E-1,1.522648636E1,-1.381028137E0,-9.684860229E-1,1.531963089E1
5.480793333E-1,1.155282578E1,-1.316961365E0,-1.137634277E-2,1.162765239E1
5.581483333E-1,1.092473190E1,-1.178499298E0,7.327262878E-1,1.101251631E1
5.682183333E-1,1.395024033E1,-6.718029785E-1,1.986519012E0,1.410697637E1
5.782873333E-1,1.323921890E1,-2.221380615E-1,8.961863708E-1,1.327137568E1
5.883563333E-1,1.257759476E1,3.005749512E-1,1.898052979E-1,1.258261742E1
5.984253333E-1,1.113863708E1,3.137475586E-1,1.039737854E0,1.119145783E1
6.084943333E-1,1.055350388E1,5.152285767E-1,1.037492523E0,1.061688727E1
6.185633333E-1,8.809480591E0,5.321434021E-1,1.045276337E0,8.887222710E0
6.286333333E-1,7.637717285E0,5.966592407E-1,1.036594391E0,7.730799151E0
6.387023333E-1,6.353088684E0,6.816824341E-1,1.227746887E0,6.506442130E0
6.487713333E-1,5.135071564E0,8.075706482E-1,9.743238831E-1,5.288708476E0
6.588403333E-1,4.441414032E0,7.893086243E-1,4.312532043E-1,4.531572137E0
6.689093333E-1,4.118685150E0,6.991960144E-1,2.674937439E-1,4.186167141E0
6.789783332E-1,3.751798096E0,6.460565186E-1,2.103126526E-1,3.812821709E0
6.890483333E-1,4.704866180E0,5.866300964E-1,2.776725769E-1,4.749421302E0
6.991173333E-1,6.209237823E0,5.204676819E-1,2.586621094E-1,6.236379322E0
7.091863332E-1,8.287815399E0,5.292993164E-1,1.218466187E-1,8.305593805E0
7.192553333E-1,1.028855484E1,5.144801331E-1,-4.221221924E-2,1.030149661E1
7.293243333E-1,1.124057510E1,3.791615295E-1,4.101470947E-2,1.124704292E1
7.393933333E-1,1.118713623E1,-1.796264648E-3,2.679428101E-1,1.119034466E1
7.494633333E-1,9.724378052E0,-6.002517700E-1,1.841171265E-1,9.744625688E0
7.595323332E-1,7.220983887E0,-1.228794708E0,-1.222956848E-1,7.325810601E0
7.696013333E-1,7.594606934E0,-1.383273468E0,-4.421804810E-1,7.732206900E0
7.796703333E-1,1.201745956E1,-1.283580780E0,-1.221459961E-1,1.208643180E1
7.897393333E-1,1.822864334E1,-1.795516205E0,3.234773254E-1,1.831971490E1
7.998083333E-1,1.975516891E1,-2.862198029E0,-1.404080200E-1,1.996192853E1
8.098783332E-1,1.725761261E1,-3.034639435E0,-2.626288605E0,1.771811563E1
8.199473333E-1,1.570040085E1,-3.150199127E0,-3.385809174E0,1.636734692E1
8.300163333E-1,1.433658691E1,-3.068618774E0,-2.862796783E0,1.493819771E1
8.400853333E-1,1.320000046E1,-2.450404358E0,-3.148253174E0,1.378970600E1
8.501543333E-1,1.205263641E1,-1.842967529E0,-1.908980255E0,1.234126328E1
8.602233332E-1,1.192944260E1,-1.440903625E0,-1.798659668E0,1.215001977E1
8.702933333E-1,1.190085205E1,-1.367855530E0,-1.705553284E0,1.210000910E1
8.803623333E-1,1.281649796E1,-1.142723694E0,-1.711989899E0,1.298072982E1
8.904313333E-1,1.314491501E1,-7.518864441E-1,-1.992057495E0,1.331624635E1
9.005003333E-1,1.301528458E1,-2.365081787E-1,-2.247426453E0,1.321001493E1
9.105693332E-1,1.400158356E1,4.340972900E-3,-1.873504028E0,1.412637173E1
9.206383333E-1,1.325718155E1,6.900650024E-2,-1.752555542E0,1.337269888E1
9.307083333E-1,1.119477036E1,2.115101624E-1,-9.714797974E-1,1.123883414E1
9.407773333E-1,1.075483521E1,1.006806335E0,-3.776646423E-1,1.080845826E1
9.508460417E-1,8.753796387E0,2.526146851E0,2.324665833E-1,9.113967841E0
9.609150416E-1,6.647975464E0,3.487298126E0,3.966751099E-2,7.507223155E0
9.709840416E-1,5.133125610E0,3.714974670E0,-1.597178650E-1,6.338416611E0
9.810530416E-1,4.224814453E0,4.127666473E0,-4.760101318E-2,5.906687188E0
9.911220416E-1,4.619244232E0,4.127516785E0,-9.131011963E-2,6.195332890E0
1.001192042E0,5.811215515E0,3.898792419E0,-3.757186890E-1,7.007993481E0
1.011261042E0,6.214925995E0,3.119512939E0,-5.668711853E-1,6.976962738E0
1.021330042E0,4.770130463E0,2.172282715E0,-2.897973633E-1,5.249470386E0
1.031399042E0,2.920576630E0,1.536105652E0,-3.248245239E-1,3.315855756E0
1.041468042E0,1.676214294E0,9.586065674E-1,-2.586621094E-1,1.948211231E0
1.051537042E0,1.041384430E0,5.373825073E-1,-3.216810608E-1,1.215211996E0
1.061607042E0,6.547384644E-1,2.921923828E-1,-5.894741821E-1,9.281910669E-1
1.071676042E0,3.167413330E-1,2.679428101E-2,-7.692503357E-1,8.323395248E-1
1.081745042E0,5.852828979E-2,-2.008822632E-1,-1.009800110E0,1.031249488E0
1.091814042E0,-3.068618774E-2,-4.152365112E-1,-1.178349609E0,1.249748296E0
1.101883042E0,2.245330811E-3,-3.278182983E-1,-1.211131439E0,1.254714805E0
1.111952042E0,2.595602417E-1,-1.056802368E-1,-1.009650421E0,1.047823365E0
1.122022042E0,5.701643372E-1,-3.293151855E-3,-1.066232758E0,1.209111455E0
1.132091042E0,1.663191376E0,2.031275940E-1,-1.235081635E0,2.081560236E0
1.142160042E0,2.901266785E0,3.894900513E-1,-1.326092377E0,3.213654065E0
1.152229042E0,4.472549286E0,7.267387390E-1,-1.487905884E0,4.769246296E0
1.162298042E0,5.079387360E0,9.328601074E-1,-2.039209442E0,5.552366980E0
1.172367042E0,5.437891846E0,1.009949799E0,-2.416425018E0,6.035708425E0
1.182437042E0,5.910908203E0,6.239025879E-1,-2.408192139E0,6.413070996E0
1.192506042E0,8.001610565E0,2.209405518E-1,-1.835034027E0,8.212303955E0
1.202575042E0,1.626502670E1,-1.277892609E0,-1.530866547E0,1.638681347E1
1.212644042E0,2.876747772E1,-4.201313324E0,-1.102307739E0,2.909353692E1
1.222713042E0,3.334331223E1,-5.249284058E0,1.563049622E0,3.379015504E1
1.232782042E0,3.197860016E1,-4.862189026E0,1.080004120E0,3.236414929E1
1.242852042E0,3.122611496E1,-5.662574615E0,-1.673070831E0,3.177946149E1
1.252921042E0,2.018552399E1,-4.820725250E0,-2.301613770E0,2.088042616E1
1.262990042E0,1.093715607E1,-3.010988617E0,-2.031275940E0,1.152447471E1
1.273059042E0,1.055784485E1,-2.846331024E0,-1.572480011E0,1.104727937E1
1.283128042E0,1.071397018E1,-3.391048279E0,-8.830137634E-1,1.127244778E1
1.293197042E0,9.952803040E0,-3.408711548E0,-4.785548401E-1,1.053122108E1
1.303266042E0,9.392518158E0,-3.043620758E0,-1.001417542E-1,9.873857050E0
1.313336042E0,8.943601685E0,-2.984643402E0,-1.496887207E-4,9.428473225E0
1.323405042E0,8.355175323E0,-2.900668030E0,-3.001258850E-1,8.849457907E0
1.333474042E0,8.147706757E0,-2.885699158E0,-6.527925110E-1,8.668247982E0
1.343543042E0,8.397237854E0,-3.046315155E0,-7.942483521E-1,8.967969115E0
1.353612042E0,8.724756775E0,-3.138373718E0,-7.217990112E-1,9.300094848E0
1.363681042E0,9.147028656E0,-3.201093292E0,-6.234535217E-1,9.711015693E0
1.373751042E0,9.430988159E0,-3.160078583E0,-3.664379883E-1,9.953085507E0
1.383820042E0,9.329798584E0,-3.075953522E0,-1.460961914E-1,9.824865179E0
1.393889042E0,1.055500076E1,-3.179687805E0,3.143463135E-2,1.102358580E1
1.403958042E0,1.135538635E1,-3.406166840E0,2.083666992E-1,1.185707335E1
1.414027042E0,1.091964249E1,-3.236120453E0,1.058299255E-1,1.138956837E1
1.424096042E0,1.064481400E1,-3.211122437E0,8.622070312E-2,1.111893908E1
1.434166042E0,1.024978546E1,-3.161126404E0,1.776805115E-1,1.072764618E1
1.444235042E0,9.588011627E0,-3.003204803E0,1.435514832E-1,1.004837365E1
1.454304042E0,9.044342194E0,-2.765948181E0,2.505789185E-1,9.461151349E0
1.464373042E0,8.615034943E0,-2.537373505E0,1.519340515E-1,8.982214388E0
1.474442042E0,8.167765045E0,-2.323168945E0,-1.077758789E-2,8.491738099E0
1.484511042E0,8.135881348E0,-2.345023499E0,-8.427474976E-2,8.467514555E0
1.494581042E0,9.461225281E0,-2.341580658E0,1.001417542E-1,9.747195092E0
1.504650042E0,1.076995377E1,-2.289039917E0,3.689826965E-1,1.101670350E1
1.514719042E0,1.142184814E1,-2.211201782E0,5.213658142E-1,1.164559362E1
1.524788042E0,1.262893799E1,-2.092199249E0,5.704637146E-1,1.281377389E1
1.534857042E0,1.400068542E1,-1.907034302E0,9.529183960E-1,1.416206290E1
1.544926042E0,1.469239700E1,-1.631008301E0,1.049766998E0,1.481987613E1
1.554996042E0,1.506332565E1,-9.999206543E-1,1.168470154E0,1.514162949E1
1.565065042E0,1.492351639E1,-3.149450684E-1,1.360371094E0,1.498870045E1
1.575134042E0,1.431143921E1,3.836521912E-1,1.421893158E0,1.438701711E1
1.585203042E0,1.329400497E1,1.236728210E0,1.240620117E0,1.340892252E1
1.595272042E0,1.171688461E1,2.349364471E0,1.255139923E0,1.201583433E1
1.605341042E0,1.003812561E1,3.047812042E0,1.224154358E0,1.056180278E1
1.615411042E0,9.234746246E0,4.171824646E0,9.277706909E-1,1.017572688E1
1.625480042E0,8.014633484E0,4.733756104E0,5.077441406E-1,9.322049176E0
1.635549042E0,6.702911224E0,4.622836761E0,1.851649475E-1,8.144564117E0
1.645618042E0,5.538332977E0,4.311933289E0,-4.885839844E-1,7.035951617E0
1.655687042E0,4.452041931E0,3.798051910E0,-1.925745392E0,6.160711889E0
1.665756042E0,3.311264191E0,2.725981293E0,-4.351900177E0,6.110194735E0
1.675826042E0,2.374212799E0,1.325493622E0,-6.038592682E0,6.622569089E0
1.685895042E0,2.271526337E0,8.800199890E-1,-5.585784302E0,6.093870145E0
1.695964042E0,3.515140228E0,1.127305756E0,-3.519181824E0,5.100163703E0
1.706033042E0,5.019661560E0,1.238075409E0,-1.973196716E0,5.533835756E0
1.716102042E0,6.139931946E0,1.445094910E0,-1.111738129E0,6.404921956E0
1.726171042E0,6.430926819E0,1.610051880E0,-7.640112305E-1,6.673290041E0
1.736240042E0,6.311774597E0,1.235381012E0,-5.153782654E-1,6.452153095E0
1.746310042E0,5.865402832E0,6.433621216E-1,-2.643502808E-1,5.906500341E0
1.756379042E0,5.979016571E0,6.750961304E-2,-8.801696777E-2,5.980045459E0
1.766448042E0,6.549629974E0,-5.272036743E-1,-6.122268677E-2,6.571099203E0
1.776517042E0,6.754404144E0,-1.129251709E0,-6.571334839E-2,6.848467202E0
1.786586042E0,7.142546997E0,-1.621278534E0,-2.454895020E-2,7.324283196E0
1.796656042E0,7.533084869E0,-2.274220734E0,-1.242416382E-1,7.869871891E0
1.806725042E0,8.779692535E0,-2.796035614E0,-1.175056458E-1,9.214913117E0
1.816794042E0,9.821076965E0,-3.330574036E0,4.483177185E-1,1.038013800E1
1.826863042E0,1.014036301E1,-4.082011414E0,8.801696777E-1,1.096651621E1
1.836932042E0,9.202712860E0,-4.508175201E0,6.942562866E-1,1.027110313E1
1.847001042E0,7.323370972E0,-4.242328033E0,9.894424438E-2,8.463976577E0
1.857070042E0,5.567971344E0,-4.279899902E0,9.041198730E-2,7.023391089E0
1.867140042E0,4.502037964E0,-4.601880341E0,-2.365081787E-1,6.442172352E0
1.877209042E0,3.913611603E0,-4.443060608E0,-4.040098572E-1,5.934674996E0
1.887278042E0,3.558400269E0,-4.788991241E0,-6.029461670E-1,5.996681888E0
1.897347042E0,3.814517670E0,-5.422324219E0,-7.372169495E-1,6.670504765E0
1.907416042E0,4.068838806E0,-5.504503326E0,-1.013692017E0,6.919723810E0
1.917485042E0,4.898563385E0,-5.389093323E0,-1.108894043E0,7.366674696E0
1.927555042E0,6.067632294E0,-4.970264282E0,-1.391805725E0,7.965978400E0
1.937624042E0,7.372468872E0,-4.236490173E0,-1.936972046E0,8.720837515E0
1.947693417E0,1.011252090E1,-2.962339783E0,-3.817661133E0,1.120772379E1
1.957762417E0,1.340372681E1,-1.322649536E0,-7.331753540E0,1.533505475E1
1.967831417E0,1.461875015E1,-1.411265259E0,-9.969867554E0,1.775099391E1
1.977900417E0,1.294044022E1,-2.214494934E0,-8.661887512E0,1.572854971E1
1.987970417E0,1.029828461E1,-1.758692780E0,-6.364165649E0,1.223316274E1
1.998039417E0,1.017089951E1,-7.921527100E-1,-5.479954376E0,1.158035417E1
2.008108417E0,1.074091415E1,-3.591032410E-1,-5.120102692E0,1.190426997E1
2.018177417E0,1.227103226E1,-3.637435913E-1,-4.473597107E0,1.306612464E1
2.028246417E0,1.442415482E1,-5.613327026E-1,-4.141737213E0,1.501750058E1
2.038315417E0,1.748977982E1,-7.496411133E-1,-3.695964203E0,1.789174422E1
2.048385417E0,1.965233276E1,-8.481362915E-1,-2.777474213E0,1.986574643E1
2.058454417E0,1.903396866E1,-7.625143433E-1,-1.817520447E0,1.913574591E1
2.068523417E0,1.920955353E1,-8.586145020E-1,-1.119821320E0,1.926131266E1
2.078592417E0,1.995844620E1,-1.933529205E0,-4.848417664E-1,2.005774617E1
2.088661417E0,2.022040146E1,-3.040028229E0,-4.363426208E-1,2.045230553E1
2.098730417E0,2.054612411E1,-3.521427155E0,-9.999206543E-1,2.086967912E1
2.108800417E0,2.120161102E1,-3.683390350E0,-2.576591949E0,2.167289783E1
2.118869417E0,2.185919357E1,-3.738475800E0,-4.649631042E0,2.265876461E1
2.128938417E0,2.229763184E1,-3.833528137E0,-6.232289886E0,2.346746174E1
2.139007417E0,2.311957260E1,-4.050277405E0,-7.376959534E0,2.460363624E1
2.149076417E0,2.386367523E1,-4.292922821E0,-8.179440765E0,2.558920540E1
2.159145417E0,2.480566635E1,-4.412673798E0,-8.368497620E0,2.654853151E1
2.169215417E0,2.615525986E1,-4.461921387E0,-7.783214722E0,2.765112642E1
2.179284417E0,2.653457108E1,-4.429438934E0,-6.589596863E0,2.769704277E1
2.189353417E0,2.435929459E1,-4.373455353E0,-5.494474182E0,2.535136270E1
2.199422417E0,2.094564331E1,-4.321064301E0,-4.476291504E0,2.185014316E1
2.209491417E0,1.821591980E1,-3.973038025E0,-3.770958252E0,1.902169528E1
2.219560417E0,1.640558441E1,-3.448678436E0,-3.115171967E0,1.705112545E1
2.229629417E0,1.361583572E1,-2.889890442E0,-2.539020081E0,1.414881876E1
2.239699417E0,1.070244415E1,-2.283202057E0,-1.909878387E0,1.110868840E1
2.249768417E0,9.127868500E0,-1.606908417E0,-1.561852112E0,9.398910577E0
2.259837417E0,6.414910126E0,-1.348096619E0,-1.615590363E0,6.751190164E0
2.269906417E0,3.414100342E0,-9.970765686E-1,-1.755100250E0,3.966184529E0
2.279975417E0,1.605261841E0,-6.340814209E-1,-1.804497528E0,2.497025461E0
2.290044417E0,-1.670526123E-1,-3.505709839E-1,-1.884281616E0,1.923882481E0
2.300114417E0,-1.363963623E0,-1.359173584E-1,-2.089654541E0,2.499105119E0
2.310183417E0,-1.996997223E0,1.646575928E-3,-1.979483643E0,2.811824339E0
2.320252417E0,-2.409389648E0,8.532257080E-2,-1.647474060E0,2.920035821E0
2.330321417E0,-2.359543304E0,1.107696533E-2,-1.394799500E0,2.740991235E0
2.340390417E0,-2.083666992E0,3.188369751E-2,-1.335822144E0,2.475299074E0
2.350460417E0,-1.589993591E0,-1.197509766E-3,-9.421408081E-1,1.848164050E0
2.360529417E0,-1.138682098E0,7.035369873E-3,-5.975573730E-1,1.285970930E0
2.370598417E0,-7.711962891E-1,6.885681152E-3,-3.285667419E-1,8.383002044E-1
2.380667417E0,-5.622308350E-1,-4.191284180E-3,-5.269042969E-2,5.647099787E-1
2.390736417E0,-1.689985657E-1,-1.437011719E-2,-2.377056885E-1,2.920120028E-1
2.400805417E0,-4.969665527E-2,-1.622625732E-1,-2.327659607E-1,2.880605712E-1
2.410874417E0,-4.070036316E-1,-3.894900513E-1,-5.839356995E-1,8.113786769E-1
2.420944417E0,-4.812492371E-1,-4.719685364E-1,-9.009764099E-1,1.125217143E0
2.431013417E0,-4.843927002E-1,-4.858895874E-1,-9.039701843E-1,1.134851124E0
2.441082417E0,-5.275030518E-1,-5.001100159E-1,-6.152206421E-1,9.522950887E-1
2.451151417E0,-6.509962463E-1,-5.968089294E-1,-9.175918579E-2,8.879170903E-1
2.461220417E0,-8.402027893E-1,-7.346722412E-1,3.635939026E-1,1.173833274E0
2.471289417E0,-1.009949799E0,-8.623567200E-1,8.208929443E-1,1.561256844E0
2.481359417E0,-1.266516266E0,-1.131347351E0,1.256636810E0,2.112615998E0
2.491428417E0,-1.564546509E0,-1.454525299E0,1.727856903E0,2.747533276E0
2.501497417E0,-1.716779938E0,-1.744472351E0,1.710942078E0,2.986275260E0
2.511566417E0,-1.955683136E0,-1.994452515E0,1.549278259E0,3.194182288E0
2.521635417E0,-2.442321167E0,-2.395318909E0,1.906136169E0,3.916100159E0
2.531704417E0,-1.665736084E0,-2.704126740E0,2.962639160E0,4.343294708E0
2.541774417E0,-1.036594391E0,-2.671644287E0,3.579656067E0,4.585427863E0
2.551843417E0,-6.340814209E-1,-2.536325684E0,3.832480316E0,4.639279319E0
2.561912417E0,-7.978408813E-2,-2.251018982E0,3.645519104E0,4.285237624E0
2.571981417E0,-3.766168213E-1,-1.922901306E0,2.495460663E0,3.172808469E0
2.582050417E0,-2.806813202E0,-1.137783966E0,2.549498291E0,3.958875376E0
2.592119417E0,-8.991801453E-1,-7.038363647E-1,1.560953979E0,1.934034097E0
2.602189417E0,2.321372681E0,-7.030879211E-1,5.340893555E-1,2.483617359E0
2.612258417E0,1.929786987E0,-2.389031982E-1,-3.673361206E-1,1.978910908E0
2.622327417E0,1.680405579E0,6.990463257E-2,-1.010398865E0,1.962028397E0
2.632396417E0,1.205742645E0,1.356179810E-1,-1.746118927E0,2.126296986E0
2.642465417E0,9.824070740E-1,-2.805166626E-1,-2.740052032E0,2.924328709E0
2.652534417E0,1.435963898E0,-6.722520447E-1,-3.017125854E0,3.408366698E0
2.662604417E0,2.472109222E0,-1.027014313E0,-2.449805603E0,3.628722902E0
2.672673417E0,5.794300690E0,-1.395248566E0,-2.521955566E0,6.471545327E0
2.682742417E0,8.958121490E0,-1.698966980E0,-3.554358673E0,9.786107245E0
2.692811417E0,1.101469482E1,-2.607427826E0,-4.345762939E0,1.212467886E1
2.702880417E0,1.539383835E1,-3.864513702E0,-1.551074524E1,2.219206937E1
2.712949417E0,5.948016037E1,-8.687783661E0,-6.191290146E1,8.629353643E1
2.723019417E0,7.205895264E1,-1.307516006E1,-3.177098190E1,7.983011811E1
2.733088417E0,4.512665863E1,-4.272714844E0,-4.321213989E0,4.553399062E1
2.743157417E0,4.457864822E1,-4.626878357E-1,4.511618042E0,4.480875645E1
2.753226417E0,3.286864929E1,-4.503085785E0,4.272565155E0,3.344967415E1
2.763295417E0,2.191622498E1,-4.835095367E0,9.255253601E-1,2.246231648E1
2.773364417E0,2.023791504E1,-2.851270752E0,-5.601351929E0,2.119146275E1
2.783433417E0,2.441303284E1,-2.003583527E0,-1.478101273E1,2.860924425E1
2.793503417E0,2.967504044E1,-2.463726654E0,-1.913261353E1,3.539399489E1
2.803572417E0,3.136757080E1,-4.096680908E0,-1.045500870E1,3.331688010E1
2.813641417E0,3.134616531E1,-5.594915314E0,-4.984335022E0,3.222931512E1
2.823710417E0,2.931773346E1,-5.787415009E0,-2.810705109E0,3.001539157E1
2.833779417E0,2.637575134E1,-3.926035767E0,-3.906276855E0,2.695093717E1
2.843848417E0,2.406949722E1,-1.935175781E0,-5.952371979E0,2.486998862E1
2.853918417E0,2.223521164E1,-1.058299255E0,-6.054609375E0,2.306909033E1
2.863987417E0,1.968376740E1,-7.556286621E-1,-5.834566956E0,2.054419249E1
2.874056417E0,1.701466782E1,-7.451504517E-1,-6.115682373E0,1.809573820E1
2.884125417E0,1.741897705E1,-7.679031372E-1,-7.340136108E0,1.891792893E1
2.894194417E0,1.476140350E1,-3.243754578E-1,-7.241042175E0,1.644496715E1
2.904263417E0,1.024110352E1,1.930984497E-2,-5.477110291E0,1.161375526E1
2.914333417E0,6.230493622E0,8.801696777E-2,-3.394191742E0,7.095585623E0
2.924402417E0,2.533182220E0,1.453477478E-1,-1.936373291E0,3.191814476E0
2.934471417E0,-4.321513367E-1,2.498304749E-1,-6.849755859E-1,8.475621495E-1
2.944540417E0,-3.007695465E0,3.751199341E-1,6.438111877E-1,3.098619018E0
2.954608833E0,-4.555476837E0,3.465293884E-1,1.381177826E0,4.772850722E0
2.964677833E0,-4.909939728E0,2.631527710E-1,1.622476044E0,5.177758784E0
2.974747833E0,-4.532873840E0,2.249821472E-1,1.277293854E0,4.714768479E0
2.984816833E0,-4.105063477E0,-3.049159241E-1,5.340893555E-1,4.150875969E0
2.994885833E0,-4.196074219E0,-9.901908875E-1,-3.670367432E-1,4.326919552E0
3.004954833E0,-4.769531708E0,-2.353256378E0,-1.121168518E-1,5.319663380E0
3.015023833E0,-5.337899780E0,-3.823648682E0,1.541494446E0,6.744602911E0
3.025092833E0,-5.555846558E0,-4.635709991E0,2.639910278E0,7.702360961E0
3.035162833E0,-5.533692627E0,-4.937931519E0,2.406395874E0,7.797157359E0
3.045231833E0,-3.947890320E0,-4.092339935E0,1.972298584E0,6.018558451E0
3.055300833E0,-9.865983582E-1,-2.519410858E0,2.720293121E0,3.836769743E0
3.065369833E0,1.263073425E0,-2.129920807E0,2.925815735E0,3.833055548E0
3.075438833E0,1.021176453E0,-1.852697296E0,2.905607758E0,3.594140378E0
3.085507833E0,1.298250275E0,-1.010099487E0,3.131338348E0,3.537094090E0
3.095577833E0,2.173929291E0,1.496887207E-4,3.583697662E0,4.191522100E0
3.105646833E0,2.866838379E0,5.539979553E-1,3.945345612E0,4.908301949E0
3.115715833E0,3.203638000E0,7.915539551E-1,3.088527374E0,4.519829139E0
3.125784833E0,2.834655304E0,1.195563812E0,2.090103607E0,3.719297865E0
3.135853833E0,2.540516968E0,1.583407288E0,1.894909515E0,3.542892487E0
3.145922833E0,2.312541046E0,1.814077606E0,1.861528931E0,3.479082294E0
3.155992833E0,1.844913483E0,1.814676361E0,1.559307404E0,3.021290392E0
3.166061833E0,1.366807709E0,1.779499512E0,1.071172485E0,2.486401480E0
3.176130833E0,1.033899994E0,1.674268341E0,4.855902100E-1,2.026800811E0
3.186199833E0,7.057823181E-1,1.573527832E0,1.811233521E-1,1.734048496E0
3.196268833E0,5.622308350E-1,1.249152374E0,-1.035845947E-1,1.373759416E0
3.206337833E0,6.007008362E-1,7.909552002E-1,-8.372090149E-1,1.298988282E0
3.216407833E0,4.240681458E-1,3.396437073E-1,-2.040257263E0,2.111360069E0
3.226476833E0,2.799179077E-1,1.740879822E-1,-2.651585999E0,2.671997187E0
3.236545833E0,3.758683777E-1,-3.278182983E-2,-2.860850830E0,2.885622837E0
3.246614833E0,5.848338318E-1,-1.790277100E-1,-2.511028290E0,2.584442803E0
3.256683833E0,6.659651184E-1,-1.610650635E-1,-2.148931274E0,2.255517040E0
3.266752833E0,6.349795532E-1,-1.410067749E-1,-2.230661316E0,2.323560167E0
3.276822833E0,5.851332092E-1,-2.972817993E-1,-2.385738831E0,2.474370043E0
3.286891833E0,8.253836060E-1,-6.694079590E-1,-2.431244202E0,2.653358905E0
3.296960833E0,1.433119812E0,-1.145867157E0,-2.734214172E0,3.292836327E0
3.307029833E0,2.422113190E0,-1.469344482E0,-3.091670837E0,4.193332097E0
3.317098833E0,3.887416077E0,-1.581910400E0,-3.876488800E0,5.713283617E0
3.327167833E0,5.448070679E0,-1.012195129E0,-5.722300415E0,7.965596973E0
3.337236833E0,9.061406708E0,7.155120850E-2,-9.577383728E0,1.318485837E1
3.347306833E0,1.609498032E1,2.529739380E-1,-1.306078995E1,2.072912495E1
3.357375833E0,2.391995819E1,-1.135239258E0,-1.165356628E1,2.663191272E1
3.367444833E0,2.716056931E1,-4.144880676E0,-1.943708038E0,2.754368461E1
3.377513833E0,2.983655457E1,-5.698350220E0,2.418820038E0,3.047198507E1
3.387582833E0,3.582889343E1,-4.874164124E0,-4.105961609E0,3.639129018E1
3.397651833E0,3.671460159E1,-3.781885529E0,-1.588481735E1,4.018198664E1
3.407721833E0,2.742147675E1,-2.851719818E0,-1.530522263E1,3.153283261E1
3.417790833E0,2.244103363E1,-2.622097321E0,-9.852511597E0,2.464847601E1
3.427859833E0,2.612008301E1,-1.475930786E0,-9.771529999E0,2.792704615E1
3.437928833E0,2.836780884E1,6.765930176E-2,-1.115495316E1,3.048229217E1
3.447997833E0,2.540621750E1,5.084925842E-1,-1.005519012E1,2.732839733E1
3.458066833E0,2.350591919E1,-5.629792786E-1,-1.002195923E1,2.555943758E1
3.468136833E0,2.402414154E1,-1.860331421E0,-1.022867935E1,2.617720556E1
3.478205833E0,2.352328308E1,-2.783461761E0,-1.069181625E1,2.598860214E1
3.488274833E0,2.409344742E1,-3.491339722E0,-1.275632309E1,2.748467646E1
3.498343833E0,2.486614059E1,-3.870950317E0,-1.276605286E1,2.821845690E1
3.508412833E0,2.524754745E1,-3.832929382E0,-1.157722504E1,2.803858305E1
3.518481833E0,2.551758591E1,-3.247945862E0,-1.015353561E1,2.765484819E1
3.528551833E0,2.569361984E1,-2.268233185E0,-8.733738098E0,2.723206132E1
3.538620833E0,2.519590485E1,-1.409918060E0,-7.548502808E0,2.634010981E1
3.548689833E0,2.355337051E1,-5.533992004E-1,-6.239325256E0,2.437204737E1
3.558758833E0,2.091016708E1,1.615141296E-1,-4.845573578E0,2.146487264E1
3.568827833E0,1.731494339E1,6.897656250E-1,-3.195554810E0,1.762085729E1
3.578896833E0,1.446741486E1,6.735992432E-1,-2.881807251E0,1.476701194E1
3.588966833E0,1.293145889E1,6.819818115E-1,-4.298461304E0,1.364421115E1
3.599035833E0,1.069106781E1,2.433938599E-1,-4.174369354E0,1.147970082E1
3.609104833E0,7.902666321E0,-3.308120728E-2,-3.182681580E0,8.519547604E0
3.619173833E0,4.993016968E0,5.179229736E-2,-2.179168396E0,5.448089186E0
3.629242833E0,2.586770782E0,1.633103943E-1,-1.292562103E0,2.896337369E0
3.639311833E0,6.831793213E-1,1.740879822E-1,-7.604187012E-1,1.036955742E0
3.649381833E0,-1.513352966E-1,1.691482544E-1,-1.360670471E-1,2.646275596E-1
3.659450833E0,-1.462458801E0,5.912704468E-2,7.717950439E-1,1.654674996E0
3.669519833E0,-3.186573486E0,-5.658233643E-2,1.839973755E0,3.680075483E0
3.679588833E0,-4.184548187E0,-4.182302856E-1,2.444267120E0,4.864134235E0
3.689657833E0,-4.090693359E0,-7.976911926E-1,2.635718994E0,4.931236966E0
3.699726833E0,-3.378624115E0,-1.240470428E0,2.400408325E0,4.326179368E0
3.709795833E0,-2.595602417E0,-1.783840485E0,2.126927032E0,3.800402266E0
3.719865833E0,-1.928290100E0,-2.427651672E0,1.604214020E0,3.490744616E0
3.729934833E0,-1.047521667E0,-2.834954681E0,1.735491028E0,3.485139710E0
3.740003833E0,3.728746033E-1,-3.066223755E0,2.155966644E0,3.766823032E0
3.750072833E0,1.277144165E0,-3.214265900E0,2.260149994E0,4.131692206E0
3.760141833E0,1.092428284E0,-2.182162170E0,2.258503418E0,3.325066764E0
3.770210833E0,1.075962524E0,-1.216520233E0,2.262245636E0,2.784846881E0
3.780280833E0,1.261426849E0,-8.632548523E-1,2.362387390E0,2.813766305E0
3.790349833E0,1.004860382E0,-5.123844910E-1,2.690505066E0,2.917378920E0
3.800418833E0,8.092172241E-1,-1.420545959E-1,2.903661804E0,3.017658678E0
3.810487833E0,6.664141846E-1,4.924758911E-2,2.715503082E0,2.796513934E0
3.820556833E0,2.314187622E-1,5.343887329E-2,2.402953033E0,2.414662220E0
3.830625833E0,-3.076103210E-1,2.245330811E-3,2.347717896E0,2.367785562E0
3.840695833E0,-5.189707947E-1,6.242019653E-2,2.532433777E0,2.585816660E0
3.850764833E0,-5.188211060E-1,1.999841309E-1,2.556084595E0,2.615862658E0
3.860833833E0,-6.123765564E-1,2.017803955E-1,2.255210266E0,2.345568954E0
3.870902833E0,-4.969665527E-1,2.769241333E-1,1.890867920E0,1.974599762E0
3.880971833E0,-5.364843750E-1,3.727249146E-1,1.613345032E0,1.740580805E0
3.891040833E0,-9.256750488E-1,5.530998230E-1,1.133592682E0,1.564552996E0
3.901110833E0,-1.135987701E0,4.999603271E-1,7.177574158E-1,1.433737805E0
3.911179833E0,-1.387315063E0,8.041278076E-1,2.963836670E-1,1.630677128E0
3.921248833E0,-1.122515717E0,1.033301239E0,1.227447510E-1,1.530627080E0
3.931317833E0,-2.606080627E-1,8.858578491E-1,3.011737061E-1,9.712704528E-1
3.941386833E0,2.547702026E-1,7.276368713E-1,2.097138977E-1,7.989638237E-1
3.951456708E0,3.851490784E-1,7.646099854E-1,8.816665649E-2,8.606634659E-1
3.961526708E0,4.448748779E-1,5.801934814E-1,-1.553768921E-1,7.474490695E-1
3.971595708E0,6.792874146E-1,3.870950317E-1,-5.595364380E-1,9.614338150E-1
3.981664708E0,1.159638519E0,2.207908630E-1,-7.355703735E-1,1.390889598E0
3.991733708E0,1.347497864E0,1.646575928E-2,-6.887178040E-1,1.513391498E0
4.001802708E0,1.475332031E0,-1.887574768E-1,-4.766088867E-1,1.561854673E0
4.011871708E0,1.782642975E0,-4.370910645E-1,-5.318440247E-1,1.910948100E0
4.021941708E0,1.960473175E0,-6.248007202E-1,-1.091081085E0,2.329010293E0
4.032010708E0,2.314187622E0,-7.572752380E-1,-2.230361938E0,3.302036419E0
4.042079708E0,3.538341980E0,-1.268462219E0,-4.736300812E0,6.046602827E0
4.052148708E0,1.246577728E1,-3.368744659E0,-1.770937317E1,2.191725215E1
4.062217708E0,3.460503845E1,-9.866432648E0,-3.827166367E1,5.253166111E1
4.072286708E0,2.405123520E1,-1.014245865E1,-1.944456482E1,3.254877084E1
4.082356708E0,2.074775482E1,-4.750221863E0,-1.621503067E1,2.675745050E1
4.092425708E0,2.685819809E1,6.776408386E-1,-1.365939514E1,3.013969272E1
4.102494708E0,4.577795425E1,6.789880371E-1,-6.047424316E-2,4.578302936E1
4.112563708E0,4.157155151E1,-1.171613617E0,1.125030487E1,4.308289607E1
4.122632708E0,2.336910370E1,6.289920044E-1,4.457580414E0,2.379875337E1
4.132701708E0,2.053399933E1,3.160976715E0,-7.391179962E0,2.205144992E1
4.142770708E0,2.251093826E1,4.892426147E0,-1.952300171E1,3.019645295E1
4.152840708E0,2.150428162E1,3.806584167E-1,-2.095866623E1,3.003072957E1
4.162909708E0,1.675151505E1,-4.264182587E0,-1.305764648E1,2.166330171E1
4.172978708E0,1.653910675E1,-5.104385376E0,-1.179142960E1,2.094360557E1
4.183047708E0,1.907213928E1,-5.777236176E0,-1.171703430E1,2.311734949E1
4.193116708E0,2.043685135E1,-6.736291809E0,-1.020832169E1,2.381706010E1
4.203185708E0,2.197984268E1,-7.342381439E0,-9.293424225E0,2.496781495E1
4.213255708E0,2.388552979E1,-6.979835358E0,-9.163793793E0,2.651814004E1
4.223324708E0,2.443443832E1,-5.371430054E0,-9.035061493E0,2.659936791E1
4.233393708E0,2.612906433E1,-4.117787018E0,-9.858648834E0,2.822901220E1
4.243462708E0,2.867302414E1,-2.927312622E0,-1.147423920E1,3.102208306E1
4.253531708E0,3.099933655E1,-1.671723633E0,-1.253628067E1,3.348002179E1
4.263600708E0,3.153881470E1,-6.083349609E-1,-1.168515060E1,3.363940619E1
4.273670708E0,2.918540863E1,2.424957275E-1,-9.754465485E0,3.077330788E1
4.283739708E0,2.504666519E1,9.327104187E-1,-7.892637177E0,2.627734971E1
4.293808708E0,2.011771500E1,1.198856964E0,-7.020850067E0,2.134132260E1
4.303877708E0,1.599034790E1,9.398954773E-1,-6.117029572E0,1.714621475E1
4.313946708E0,1.204724762E1,5.688171387E-1,-4.802463226E0,1.298165556E1
4.324015708E0,8.603508911E0,1.240919495E-1,-3.606600037E0,9.329701400E0
4.334085708E0,5.991740112E0,-5.786965942E-1,-2.316133575E0,6.449830545E0
4.344154708E0,4.705315247E0,-1.367705841E0,-9.707313538E-1,4.995290802E0
4.354223708E0,4.724325714E0,-1.696272583E0,3.248245239E-2,5.019726012E0
4.364292708E0,3.988156586E0,-1.767973480E0,2.944377136E-1,4.372392565E0
4.374361708E0,2.781515808E0,-1.628313904E0,8.262817383E-2,3.224137679E0
4.384430708E0,1.895957336E0,-1.360221405E0,-1.749861145E-1,2.339973639E0
4.394500708E0,1.258433075E0,-9.849517822E-1,-2.356100464E-1,1.615331517E0
4.404569708E0,4.833448792E-1,-7.929011536E-1,-1.320254517E-1,9.379473500E-1
4.414638708E0,-7.095245361E-2,-7.846682739E-1,6.436614990E-2,7.904944984E-1
4.424707708E0,-5.297483826E-1,-9.289682007E-1,3.356021118E-1,1.120822932E0
4.434776708E0,-9.334588623E-1,-9.657916260E-1,6.798861694E-1,1.505438181E0
4.444845708E0,-1.207987976E0,-1.004860382E0,8.265811157E-1,1.775448022E0
4.454915708E0,-1.492396545E0,-1.252894592E0,9.620494080E-1,2.173138599E0
4.464984708E0,-1.973795471E0,-1.408121796E0,1.146765289E0,2.682115990E0
4.475053708E0,-1.924996948E0,-1.454525299E0,1.038690033E0,2.626810629E0
4.485122708E0,-1.829196167E0,-1.226549377E0,7.632627869E-1,2.330869382E0
4.495191708E0,-4.633464661E0,-9.412426758E-1,2.470911713E0,5.334823074E0
4.505260708E0,-1.442011322E1,-1.125509491E0,9.861642609E0,1.750595418E1
4.515329708E0,-2.130818939E0,-1.383423157E0,3.764072571E0,4.541199324E0
4.525399708E0,1.239422607E0,-2.326312408E0,1.264570312E0,2.923531409E0
4.535468708E0,1.394350433E0,-2.154619446E0,1.511107635E0,2.978261972E0
4.545537708E0,1.710493011E0,-1.987267456E0,1.964215393E0,3.276150240E0
4.555606708E0,1.287622375E0,-1.581311646E0,2.672392731E0,3.361577131E0
4.565675708E0,1.121318207E0,-1.200802917E0,2.043849792E0,2.622328000E0
4.575744708E0,1.392254791E0,-9.639953613E-1,1.140777740E0,2.041821323E0
4.585814708E0,1.233734436E0,-7.423063660E-1,9.842033386E-1,1.744068695E0
4.595883708E0,1.249900818E0,-5.572911072E-1,8.755293274E-1,1.624615966E0
4.605952708E0,1.486708374E0,-4.026626587E-1,6.497987366E-1,1.671728867E0
4.616021708E0,1.896406403E0,-3.951782227E-2,5.863307190E-1,1.985372160E0
4.626090708E0,2.388732605E0,4.270619202E-1,8.798703003E-1,2.581200706E0
4.636159708E0,2.497256927E0,8.418493652E-1,1.562151489E0,3.063546930E0
4.646229708E0,2.609972534E0,1.148860931E0,1.796414337E0,3.370303034E0
4.656298708E0,2.647394714E0,1.320104828E0,1.744322662E0,3.434244761E0
4.666367708E0,2.593207397E0,1.495540009E0,1.495689697E0,3.346408850E0
4.676436708E0,2.467917938E0,1.695374451E0,1.353036346E0,3.285669008E0
4.686505708E0,2.180365906E0,1.854343872E0,1.071920929E0,3.056403304E0
4.696574708E0,1.693278809E0,1.821262665E0,7.158114624E-1,2.587774501E0
4.706644708E0,1.209335175E0,1.667831726E0,5.056484985E-1,2.121281366E0
4.716713708E0,9.078620911E-1,1.312919769E0,1.689985657E-1,1.605158065E0
4.726782708E0,7.285350037E-1,1.016386414E0,-1.432521057E-1,1.258700027E0
4.736851708E0,6.134243774E-1,8.144563293E-1,-4.016148376E-1,1.095866350E0
4.746920708E0,6.459068298E-1,4.086502075E-1,-9.925859070E-1,1.252763907E0
4.756989708E0,7.583230591E-1,1.017883301E-2,-1.858086090E0,2.006898450E0
4.767059708E0,8.701405334E-1,-3.568579102E-1,-2.772235107E0,2.927418591E0
4.777128708E0,1.160536652E0,-7.176077271E-1,-3.863465881E0,4.097337524E0
4.787197708E0,1.560804291E0,-1.005309448E0,-5.045857086E0,5.376563108E0
4.797266708E0,2.252366180E0,-1.403331757E0,-6.219716034E0,6.762200897E0
4.807335708E0,3.776796112E0,-1.410367126E0,-7.467670898E0,8.486426395E0
4.817404708E0,6.304739227E0,-1.454225922E0,-7.434739380E0,9.855955530E0
4.827474708E0,1.372735382E1,-8.217910767E-1,-5.581293640E0,1.484137535E1
4.837543708E0,2.358974487E1,-2.864742737E0,-4.448299713E0,2.417581818E1
4.847612708E0,5.428700958E1,-4.054319000E0,-3.248140457E1,6.339210168E1
4.857681708E0,7.288253998E1,-1.261905853E1,-7.611940887E1,1.061379747E2
4.867750708E0,1.690509567E1,-9.101972351E0,-1.645827484E1,2.528839598E1
4.877819708E0,1.502036499E1,-3.637435913E-1,7.635621643E0,1.685367591E1
4.887889708E0,2.640598846E1,-1.413360901E0,8.882378998E0,2.789570706E1
4.897958708E0,2.982338196E1,-1.566941528E0,9.887987823E0,3.145888937E1
4.908027708E0,3.295442093E1,-1.400787048E0,8.149503021E0,3.397602776E1
4.918096708E0,3.484948013E1,-1.166374512E0,4.299658813E0,3.513308641E1
4.928165708E0,3.631433395E1,-1.491947479E0,-4.125421143E-1,3.634731006E1
4.938234708E0,3.615476578E1,-2.038011932E0,-3.056194611E0,3.634089854E1
4.948304708E0,3.311578537E1,-2.210453339E0,-3.611240387E0,3.338536209E1
4.958373292E0,2.944796265E1,-2.021695862E0,-3.326981506E0,2.970418429E1
4.968442292E0,2.634326889E1,-1.864373016E0,-3.775748291E0,2.667770563E1
4.978511292E0,2.374751678E1,-1.777403870E0,-9.053772583E0,2.547694087E1
4.988580292E0,2.122810593E1,-2.636317749E0,-1.230875381E1,2.467970974E1
4.998649292E0,1.857068207E1,-2.480641479E0,-1.050410660E1,2.147929398E1
5.008718292E0,1.554771835E1,-1.512305145E0,-1.028660889E1,1.870382141E1
5.018788292E0,1.131317413E1,-1.106349335E0,-8.455317078E0,1.416701467E1
5.028857292E0,9.884245605E0,-1.045276337E0,-5.294789429E0,1.126169210E1
5.038926292E0,8.173004150E0,-1.126856689E0,-2.390828247E0,8.589753346E0
5.048995292E0,5.554050293E0,-8.029302979E-1,-1.238973541E0,5.746931978E0
5.059064292E0,3.669319611E0,-4.589456177E-1,-8.415499878E-1,3.792458815E0
5.069133292E0,1.591191101E0,-2.369572449E-1,-7.571255493E-1,1.777998018E0
5.079203292E0,1.513352966E-1,-2.017803955E-1,-8.059240723E-1,8.444710239E-1
5.089272292E0,-4.942721558E-1,-2.324665833E-1,-1.100810852E0,1.228873553E0
5.099341292E0,-5.724096680E-1,-1.716929626E-1,-1.190773773E0,1.332318836E0
5.109410292E0,-6.920109558E-1,-8.861572266E-2,-9.714797974E-1,1.196037167E0
5.119479292E0,-9.487271118E-1,-1.243913269E-1,-8.235873413E-1,1.262478690E0
5.129548292E0,-1.450334015E0,-2.218386841E-1,-5.312452698E-1,1.560417474E0
5.139618292E0,-1.548080750E0,-3.734733582E-1,-1.264869690E-1,1.597509095E0
5.149687292E0,-8.568182373E-1,-5.604345703E-1,9.463320923E-1,1.394191102E0
5.159756292E0,-8.482859802E-1,-5.047503662E-1,1.285077667E0,1.620427921E0
5.169825292E0,-7.638615417E-1,-4.369413757E-1,8.403524780E-1,1.216796823E0
5.179894292E0,-7.146139526E-1,-3.826043701E-1,3.644920349E-1,8.887708641E-1
5.189963292E0,-6.948550415E-1,-4.141886902E-1,2.984793091E-1,8.622445696E-1
5.200033292E0,-6.665638733E-1,-4.559518433E-1,4.218228149E-1,9.111168793E-1
5.210102292E0,-7.447013855E-1,-4.824467468E-1,4.507127380E-1,9.952271044E-1
5.220171292E0,-9.210346985E-1,-5.777984619E-1,5.542973328E-1,1.220410387E0
5.230240292E0,-1.078058167E0,-7.044351196E-1,7.015910339E-1,1.466515676E0
5.240309292E0,-1.384770355E0,-8.551716614E-1,1.017284546E0,1.919316377E0
5.250378292E0,-5.336552582E0,-1.322799225E0,3.843257904E0,6.708145986E0
5.260448292E0,-1.014395554E1,-1.809586945E0,7.581434326E0,1.279267702E1
5.270517292E0,-3.501967621E0,-8.722361755E-1,1.416354675E0,3.876936127E0
5.280586292E0,-1.861229553E0,-8.246351624E-1,1.327738953E-1,2.040055761E0
5.290655292E0,-1.206191711E0,-7.580236816E-1,-7.514373779E-2,1.426585058E0
5.300724292E0,-6.727011108E-1,-6.174659729E-1,-3.020718384E-1,9.617891701E-1
5.310793292E0,-4.273612976E-1,-5.292993164E-1,-2.038760376E-1,7.101836972E-1
5.320862292E0,-4.989125061E-1,-3.692820740E-1,3.119512939E-1,6.946916933E-1
5.330932292E0,-5.128335571E-1,-2.779719543E-1,5.981561279E-1,8.354983053E-1
5.341001292E0,-4.195774841E-1,-2.242337036E-1,5.572911072E-1,7.327341927E-1
5.351070292E0,-2.302212524E-1,-1.199006653E-1,3.141966248E-1,4.075506271E-1
5.361139292E0,-1.722917175E-1,-3.936813354E-2,4.026626587E-2,1.812612977E-1
5.371208292E0,-1.471440125E-1,7.858657837E-2,-2.050735474E-2,1.680707062E-1
5.381277292E0,-7.813751221E-2,1.544787598E-1,8.831634521E-3,1.733411544E-1
5.391347292E0,-6.990463257E-2,2.927911377E-1,1.543290710E-1,3.382761744E-1
5.401416292E0,-4.834945679E-2,4.167333984E-1,4.840933228E-1,6.405862475E-1
5.411485292E0,2.918930054E-2,4.749623108E-1,8.252339172E-1,9.526028711E-1
5.421554292E0,1.567240906E-1,4.899311829E-1,8.723858643E-1,1.012744835E0
5.431623292E0,4.128414917E-1,4.186793518E-1,5.875282288E-1,8.312159265E-1
5.441692292E0,6.310876465E-1,2.833607483E-1,1.451980591E-1,7.068574167E-1
5.451762292E0,6.906637573E-1,7.200027466E-2,-2.173480225E-1,7.276267093E-1
5.461831292E0,6.719526672E-1,-2.568658447E-1,-5.307962036E-1,8.940050665E-1
5.471900292E0,6.812333679E-1,-5.264552307E-1,-8.580157471E-1,1.215493741E0
5.481969292E0,7.717950439E-1,-7.685018921E-1,-1.254092102E0,1.661026715E0
5.492038292E0,9.707313538E-1,-1.052012329E0,-1.855840759E0,2.343756435E0
5.502107292E0,1.213077393E0,-1.257684631E0,-2.267784119E0,2.862895772E0
5.512177292E0,1.648222504E0,-1.564097443E0,-1.857337646E0,2.934747240E0
5.522246292E0,4.731211395E0,-1.957928467E0,-2.417173462E0,5.662205639E0
5.532315292E0,8.890013123E0,-2.766247559E0,-4.512067108E0,1.034616878E1
5.542384292E0,1.360026810E1,-4.555027771E0,-4.312831421E0,1.497718549E1
5.552453292E0,3.228037262E1,-6.333928528E0,-5.302573242E0,3.332054006E1
5.562522292E0,4.036176727E1,-2.321372681E0,-2.067051544E0,4.048127630E1
5.572592292E0,3.515694077E1,2.858605499E0,4.459226990E-1,3.527578428E1
5.582661292E0,3.728237091E1,1.490600281E0,1.013093262E0,3.732590827E1
5.592730292E0,4.085574005E1,-2.220033417E0,1.364861755E0,4.093877002E1
5.602799292E0,5.371953964E1,-1.245260468E0,-5.268743591E0,5.399165928E1
5.612868292E0,7.312024567E1,1.527932648E1,-6.343807983E1,9.800213323E1
5.622937292E0,2.408805862E1,1.302441559E1,-4.384711945E1,5.169564637E1
5.633007292E0,1.000220032E0,4.699327698E0,-1.813433945E1,1.876002100E1
5.643076292E0,7.830216980E0,2.987637177E0,-1.279314651E1,1.529388347E1
5.653145292E0,1.700314178E1,1.772913208E0,-1.086051544E1,2.025341570E1
5.663214292E0,2.799433548E1,1.099014587E0,-9.644893341E0,2.962962402E1
5.673283292E0,3.271042831E1,8.613088989E-1,-4.586462402E0,3.304163451E1
5.683352292E0,2.999208115E1,1.138532410E0,3.460803223E-1,3.001567856E1
5.693422292E0,2.590453125E1,1.101858673E0,1.988764343E0,2.600411536E1
5.703491292E0,2.267005737E1,5.272036743E-1,1.757644958E0,2.274420280E1
5.713560292E0,2.082185074E1,2.893482971E-1,1.091679840E0,2.085245682E1
5.723629292E0,1.957943436E1,6.593788147E-1,-9.520202637E-2,1.959076552E1
5.733698292E0,1.910058014E1,1.239871674E0,-6.738986206E-1,1.915263905E1
5.743767292E0,2.191368027E1,1.580862579E0,-8.695417786E-1,2.198782873E1
5.753836292E0,2.429477875E1,1.785936127E0,-5.601351929E-1,2.436677233E1
5.763906292E0,2.541250443E1,1.763931885E0,-2.918930054E-2,2.547366658E1
5.773975292E0,2.416215454E1,1.561702423E0,-9.804611206E-1,2.423241487E1
5.784044292E0,1.989842102E1,8.458909607E-1,-3.112776947E0,2.015817628E1
5.794113292E0,1.478460526E1,-1.758842468E-1,-5.126688995E0,1.564923090E1
5.804182292E0,1.139595200E1,-1.266516266E0,-6.647526398E0,1.325373127E1
5.814251292E0,8.809330902E0,-1.954635315E0,-7.216642914E0,1.155442967E1
5.824321292E0,6.283483429E0,-2.059567108E0,-6.786736908E0,9.475430256E0
5.834390292E0,4.021088104E0,-1.567839661E0,-6.158343658E0,7.520137456E0
5.844459292E0,2.088906097E0,-9.689350891E-1,-5.551505585E0,6.010122973E0
5.854528292E0,8.512797546E-1,-7.168592834E-1,-4.564607849E0,4.698319835E0
5.864597292E0,4.191284180E-2,-4.766088867E-1,-3.845353546E0,3.875004079E0
5.874666292E0,-4.053570557E-1,-3.113525391E-1,-3.173550568E0,3.214448312E0
5.884736292E0,-8.009843445E-1,-4.029620361E-1,-2.528841248E0,2.683093807E0
5.894805292E0,-8.690927124E-1,-4.803511047E-1,-1.944007416E0,2.182939339E0
5.904874292E0,-8.183482361E-1,-6.538403320E-1,-1.450483704E0,1.789162930E0
5.914943292E0,-8.195457458E-1,-7.691006470E-1,-8.934919739E-1,1.435792096E0
5.925012292E0,-1.012943573E0,-9.328601074E-1,-3.989204407E-1,1.433673666E0
5.935081292E0,-1.030606842E0,-8.530760193E-1,-1.794767761E-1,1.349852240E0
5.945151292E0,-8.170010376E-1,-6.384223938E-1,1.221459961E-1,1.044027534E0
5.955220167E0,-1.040037231E0,-7.824229431E-1,9.032217407E-1,1.584194627E0
5.965289167E0,-1.187929688E0,-8.351133728E-1,5.125341797E-1,1.539896936E0
5.975358167E0,-1.473984833E0,-9.556127930E-1,3.121009827E-1,1.784162022E0
5.985427167E0,-1.794767761E0,-1.265618134E0,2.359094238E-1,2.208762964E0
5.995496167E0,-2.035467224E0,-1.570084991E0,4.569996643E-1,2.610965797E0
6.005566167E0,-2.044897614E0,-1.671723633E0,4.569996643E-1,2.680506454E0
6.015635167E0,-1.844763794E0,-1.716181183E0,3.694317627E-1,2.546548868E0
6.025704167E0,-1.631607056E0,-1.766925659E0,2.848576355E-1,2.421840569E0
6.035773167E0,-1.987566833E0,-2.133213959E0,8.801696777E-1,3.045607061E0
6.045842167E0,-2.448458405E0,-2.346670074E0,1.596430206E0,3.748386106E0
6.055911167E0,-2.974464569E0,-2.473755798E0,2.223775635E0,4.462295967E0
6.065981167E0,-3.711531830E0,-2.540217590E0,3.118465118E0,5.472933274E0
6.076050167E0,-3.425027618E0,-2.282004547E0,3.786226501E0,5.592304539E0
6.086119167E0,-2.205812988E0,-2.112706604E0,3.009491730E0,4.287910984E0
6.096188167E0,-1.378333740E0,-2.126477966E0,2.524350586E0,3.576878293E0
6.106257167E0,-4.535568237E-1,-2.231409760E0,1.810185699E0,2.908895937E0
6.116326167E0,1.097218323E-1,-2.063159637E0,1.332678680E0,2.458596965E0
6.126396167E0,3.176394653E-1,-1.759141846E0,8.225395203E-1,1.967751541E0
6.136465167E0,2.993774414E-1,-1.424437866E0,3.670367432E-1,1.501121600E0
6.146534167E0,7.035369873E-2,-1.147214355E0,1.193019104E-1,1.155544619E0
6.156603167E0,-2.375559998E-1,-1.024619293E0,7.529342651E-2,1.054488809E0
6.166672167E0,-1.550775146E-1,-8.972341919E-1,9.774673462E-2,9.157688872E-1
6.176741167E0,-1.287322998E-2,-8.159532166E-1,1.264869690E-1,8.257992038E-1
6.186810167E0,2.619552612E-2,-8.292755127E-1,3.302133179E-1,8.929865155E-1
6.196880167E0,1.167572021E-2,-8.391549683E-1,5.860313416E-1,1.023596657E0
6.206949167E0,-4.939727783E-2,-9.638456726E-1,3.734733582E-1,1.034853091E0
6.217018167E0,3.233276367E-2,-1.214274902E0,-1.133143616E-1,1.219979135E0
6.227087167E0,1.574725342E-1,-1.145867157E0,-5.523513794E-2,1.157955120E0
6.237156167E0,4.737648010E-1,-1.333277435E0,-1.193019104E-1,1.419969983E0
6.247225167E0,7.765850830E-1,-1.601968689E0,-2.936892700E-1,1.804339619E0
6.257295167E0,9.919871521E-1,-1.937570801E0,-3.278182983E-1,2.201291429E0
6.267364167E0,1.418450317E0,-2.355501709E0,-4.294569397E-1,2.782952186E0
6.277433167E0,2.400707703E0,-2.932851105E0,-6.218069458E-1,3.840788585E0
6.287502167E0,3.313509521E0,-3.613336029E0,-1.231189728E0,5.054836373E0
6.297571167E0,4.097429352E0,-4.719984741E0,-1.947150879E0,6.546646454E0
6.307640167E0,6.135291595E0,-6.654412079E0,-1.234033813E0,9.134869596E0
6.317710167E0,1.396910110E1,-8.057145081E0,-2.331701202E0,1.629387011E1
6.327779167E0,1.519594986E1,-8.372838593E0,-1.208736420E0,1.739202007E1
6.337848167E0,2.878648819E1,-9.987381134E0,-1.515598297E0,3.050748633E1
6.347917167E0,5.932568161E1,-4.199517059E0,-5.628445587E0,5.973986811E1
6.357986167E0,6.096028244E1,3.143463135E-1,-6.503675537E0,6.130703585E1
6.368055167E0,7.390072266E1,3.280727692E0,-1.560175598E1,7.560089135E1
6.378125167E0,6.878900253E1,1.388602386E1,-5.704831741E1,9.043925612E1
6.388194167E0,2.474878464E1,1.731494339E1,-4.368216248E1,5.310782357E1
6.398263167E0,6.974745941E0,5.775140533E0,-8.555458832E0,1.245773675E1
6.408332167E0,9.227860565E0,1.534758453E0,-6.744674377E0,1.153254207E1
6.418401167E0,1.568662949E1,5.529501343E-1,-7.831414490E0,1.754158349E1
6.428470167E0,2.106808868E1,5.385800171E-1,-7.843389587E0,2.248717833E1
6.438540167E0,2.250704636E1,-1.193019104E-1,-5.695655823E0,2.321684440E1
6.448609167E0,2.160157928E1,-2.266287231E-1,-3.993395691E0,2.196876868E1
6.458678167E0,2.043759979E1,-2.908451843E-1,-2.224075012E0,2.056031580E1
6.468747167E0,1.965847000E1,-5.650749207E-1,-8.577163696E-1,1.968528460E1
6.478816167E0,1.949126770E1,-6.794371033E-1,-6.408174133E-1,1.951363109E1
6.488885167E0,1.946552124E1,-1.006506958E0,-1.205443268E0,1.952876511E1
6.498955167E0,2.137899216E1,-9.794132996E-1,-2.290836182E0,2.152367270E1
6.509024167E0,2.370261017E1,-4.969665527E-1,-3.707340546E0,2.399593879E1
6.519093167E0,2.619866959E1,4.580474854E-2,-4.406985626E0,2.656678205E1
6.529162167E0,2.644879944E1,3.522175598E-1,-4.080065460E0,2.676396800E1
6.539231167E0,2.455179428E1,6.414161682E-1,-3.680097198E0,2.483435388E1
6.549300167E0,2.316732330E1,9.886940002E-1,-3.951782227E0,2.352273300E1
6.559370167E0,2.026381119E1,1.371747437E0,-4.317621460E0,2.076404561E1
6.569439167E0,1.661739395E1,1.588496704E0,-4.878056030E0,1.739127753E1
6.579508167E0,1.357961105E1,1.069675598E0,-4.963677979E0,1.449786679E1
6.589577167E0,1.019050873E1,5.013075256E-1,-5.046904907E0,1.138283912E1
6.599646167E0,7.264692993E0,3.216810608E-1,-4.513114929E0,8.558472373E0
6.609715167E0,4.753664703E0,1.526824951E-2,-3.944896545E0,6.177359467E0
6.619785167E0,2.345771942E0,-1.342707825E-1,-3.367547150E0,4.106220702E0
6.629854167E0,5.578898621E-1,-2.582130432E-1,-2.741997986E0,2.810065485E0
6.639923167E0,-8.476872253E-1,-4.264631653E-1,-2.726430359E0,2.886843772E0
6.649992167E0,-1.743574219E0,-4.318519592E-1,-2.767744446E0,3.299538830E0
6.660061167E0,-2.347119141E0,-7.203021240E-1,-2.517165527E0,3.516237435E0
6.670130167E0,-2.443219299E0,-7.228468323E-1,-2.161355438E0,3.341150314E0
6.680199167E0,-2.364932098E0,-6.553372192E-1,-1.755100250E0,3.017076000E0
6.690269167E0,-4.560566254E0,-1.395697632E0,1.957030334E0,5.155259854E0
6.700338167E0,-4.874313812E0,-1.947599945E0,3.420836334E0,6.265317383E0
6.710407167E0,-4.885839844E0,-2.064656525E0,7.860304413E0,9.482543066E0
6.720476167E0,-5.463039551E0,-2.248474274E0,3.852538605E0,7.052835699E0
6.730545167E0,-4.735252991E0,-2.266736298E0,-5.710624695E-1,5.280797920E0
6.740614167E0,-4.126019897E0,-1.867217102E0,2.941383362E-1,4.538398094E0
6.750684167E0,-3.248245239E0,-1.417701874E0,4.691244507E-1,3.575059928E0
6.760753167E0,-2.430645447E0,-1.243464203E0,1.096918945E0,2.942358184E0
6.770822167E0,-1.606159973E0,-1.151705017E0,1.467548218E0,2.461680742E0
6.780891167E0,-5.146298218E-1,-1.030606842E0,1.321002960E0,1.752724490E0
6.790960167E0,2.110610962E-2,-6.959028625E-1,1.294058990E0,1.469460763E0
6.801029167E0,3.191363525E-1,-4.773573303E-1,1.730551300E0,1.823328230E0
6.811099167E0,5.718109131E-1,-4.700225830E-1,2.261197815E0,2.379265539E0
6.821168167E0,7.819738770E-1,-4.465214539E-1,2.707868958E0,2.853667613E0
6.831237167E0,9.785151672E-1,-2.689906311E-1,3.172652435E0,3.331001556E0
6.841306167E0,1.222358093E0,9.460327148E-2,2.816093903E0,3.071399348E0
6.851375167E0,2.002835083E0,2.636018372E-1,3.163521423E0,3.753491987E0
6.861444167E0,2.052082672E0,3.790118408E-1,3.151995392E0,3.780180977E0
6.871514167E0,1.752705231E0,3.936813354E-1,1.586850128E0,2.396884217E0
6.881583167E0,2.502945099E0,2.731819153E-1,1.151705017E0,2.768715762E0
6.891652167E0,3.302133179E0,3.915856934E-1,1.076261902E-1,3.327011614E0
6.901721167E0,4.758155365E0,9.102571106E-1,-5.462141418E-1,4.875136959E0
6.911790167E0,5.672304382E0,1.294208679E0,-3.713777161E-1,5.829917197E0
6.921859167E0,3.995341644E0,1.206042023E0,3.731739807E-1,4.190053822E0
6.931929167E0,2.046095123E0,1.031055908E0,1.019679565E0,2.507853256E0
6.941998167E0,6.744973755E-1,7.280859375E-1,9.711804199E-1,1.388613427E0
6.952067583E0,2.136058044E-1,5.119354248E-1,7.128176880E-1,9.032244323E-1
6.962136583E0,1.552272034E-1,2.342628479E-1,5.005590820E-1,5.740504866E-1
6.972205583E0,-4.697232056E-1,-1.591191101E-1,9.116043091E-1,1.037777046E0
6.982274583E0,-1.251397705E0,-3.354524231E-1,1.878294067E0,2.281778505E0
6.992344583E0,-1.574276276E0,-5.792953491E-1,2.857707367E0,3.313671723E0
7.002413583E0,-1.901495819E0,-5.625302124E-1,3.529660034E0,4.048533876E0
7.012482583E0,-1.572929077E0,1.426533508E0,5.443130951E0,5.842668764E0
7.022551583E0,2.848576355E0,7.724985809E0,1.206910217E1,1.461003149E1
7.032620583E0,8.453520813E0,8.574918365E0,1.724384125E1,2.103191147E1
7.042689583E0,1.337199280E1,1.693877563E0,2.061363373E0,1.363556495E1
7.052759583E0,1.473341171E1,-1.322799225E0,-8.872499542E0,1.724947729E1
7.062828583E0,1.950578751E1,-2.622696075E0,-1.813134567E1,2.676004441E1
7.072897583E0,2.429537750E1,-3.817810822E0,-2.667917038E1,3.628524741E1
7.082966583E0,2.762640060E1,-6.777605896E0,-2.985810974E1,4.123906727E1
7.093035583E0,2.929932175E1,-1.077384567E1,-2.681613556E1,4.115374991E1
7.103104583E0,2.735127274E1,-1.267519180E1,-2.258353729E1,3.766654702E1
7.113174583E0,1.833462296E1,-1.356119934E1,-1.936103851E1,2.991511890E1
7.123243583E0,1.438643326E1,-7.350614319E0,-1.615036514E1,2.284371439E1
7.133312583E0,1.421848251E1,-8.249345398E-1,-1.057999878E1,1.774210067E1
7.143381583E0,1.086874832E1,-1.499731293E0,-6.502627716E0,1.275394258E1
7.153450583E0,1.270572830E1,-3.534150696E0,-4.982389069E0,1.409787054E1
7.163519583E0,1.508158768E1,-2.504591675E0,-5.133874054E0,1.612711782E1
7.173588583E0,1.461440918E1,-6.357279968E-1,-7.202272797E0,1.630514763E1
7.183658583E0,1.427222076E1,5.304968262E-1,-9.430389404E0,1.711461237E1
7.193727583E0,1.506646912E1,1.379231873E0,-1.197479828E1,1.929498811E1
7.203796583E0,1.675361069E1,4.101470947E-1,-1.454016357E1,2.218711447E1
7.213865583E0,1.789573563E1,-1.383273468E0,-1.434721481E1,2.297854155E1
7.223934583E0,1.902498734E1,-2.179168396E0,-1.340372681E1,2.337431946E1
7.234003583E0,2.026770309E1,-2.590063934E0,-1.248299149E1,2.394396158E1
7.244073583E0,1.948168762E1,-2.880310364E0,-1.164233963E1,2.287742146E1
7.254142583E0,1.933693863E1,-2.808010712E0,-1.220397171E1,2.303777431E1
7.264211583E0,1.905073380E1,-3.596870270E0,-1.068433182E1,2.213646043E1
7.274280583E0,1.835498062E1,-4.428091736E0,-7.319029999E0,2.025046938E1
7.284349583E0,1.632101028E1,-3.563040619E0,-6.401288452E0,1.788986107E1
7.294418583E0,1.727213242E1,-2.796933746E0,-6.180048523E0,1.855646508E1
7.304488583E0,2.001068756E1,-1.412762146E0,-5.337899780E0,2.075853289E1
7.314557583E0,2.119756943E1,-4.643344116E-1,-3.785627747E0,2.153795565E1
7.324626583E0,2.187236618E1,2.330653381E-1,-2.975362701E0,2.207504258E1
7.334695583E0,2.065569626E1,5.795947266E-1,-2.843187561E0,2.085850986E1
7.344764583E0,1.864313141E1,1.199306030E0,-2.939886475E0,1.891157360E1
7.354833583E0,1.608779526E1,2.109563141E0,-3.279230804E0,1.655357265E1
7.364903583E0,1.333621719E1,2.818039856E0,-3.675456848E0,1.411754301E1
7.374972583E0,1.067115921E1,2.952460327E0,-3.873045959E0,1.172992523E1
7.385041583E0,7.648794250E0,2.975512390E0,-3.792812805E0,9.041192203E0
7.395110583E0,5.319787445E0,2.750380554E0,-2.959346008E0,6.680004525E0
7.405179583E0,3.532953186E0,2.340233459E0,-2.247875519E0,4.797019409E0
7.415248583E0,2.771187286E0,1.638193359E0,-1.721569977E0,3.650610859E0
7.425318583E0,2.359842682E0,9.828561401E-1,-1.039737854E0,2.759695360E0
7.435387583E0,1.536854095E0,8.261320496E-1,-3.873944092E-1,1.787313376E0
7.445456583E0,9.147477722E-1,9.888436890E-1,3.787124634E-2,1.347593989E0
7.455525583E0,6.641688538E-1,1.136885834E0,2.650987244E-1,1.343096050E0
7.465594583E0,3.730242920E-1,1.250798950E0,-2.332150269E-1,1.325908890E0
7.475663583E0,-4.805007935E-2,1.047821045E0,-7.984396362E-1,1.318235034E0
7.485733583E0,-3.650907898E-1,3.574566650E-1,-1.018631744E0,1.139595184E0
7.495802583E0,-1.457968140E-1,-3.475772095E-1,-5.927673340E-1,7.024526601E-1
7.505871583E0,4.239184570E-1,-5.923182678E-1,1.191522217E-1,7.380684525E-1
7.515940583E0,7.896080017E-1,-7.566764832E-1,6.954537964E-1,1.296030894E0
7.526009583E0,6.051914978E-1,-5.090913391E-1,8.024812317E-1,1.126679576E0
7.536078583E0,4.939727783E-2,-2.336640930E-1,8.351133728E-1,8.685927382E-1
7.546148583E0,-1.694476318E-1,-1.670526123E-1,9.665400696E-1,9.953988052E-1
7.556217583E0,-1.163081360E-1,-2.389031982E-1,9.125024414E-1,9.504015079E-1
7.566286583E0,-1.537303162E-1,-2.586621094E-1,8.433462524E-1,8.954172203E-1
7.576355583E0,-3.412902832E-2,-2.751278687E-1,7.843688965E-1,8.319222923E-1
7.586424583E0,-9.849517822E-2,-2.655477905E-1,7.762857056E-1,8.263391712E-1
7.596493583E0,-2.450404358E-1,-2.094145203E-1,1.061592407E0,1.109449276E0
7.606562583E0,-3.031196594E-1,-1.513352966E-1,1.247505798E0,1.292692777E0
7.616632583E0,-3.116519165E-1,-9.654922485E-2,1.228195953E0,1.270792654E0
7.626701583E0,-3.478765869E-1,-1.167572021E-1,1.426832886E0,1.473262518E0
7.636770583E0,-3.414399719E-1,-1.767823792E-1,1.634750519E0,1.679357771E0
7.646839583E0,-1.116677856E-1,-2.508782959E-1,1.475781097E0,1.501112741E0
7.656908583E0,4.306544495E-1,-2.959346008E-1,1.209634552E0,1.317670783E0
7.666977583E0,6.727011108E-1,-3.565585327E-1,1.111887817E0,1.347573853E0
7.677047583E0,7.307803345E-1,-4.177812195E-1,8.646020508E-1,1.206697042E0
7.687116583E0,8.271798706E-1,-4.472698975E-1,7.821235657E-1,1.223108405E0
7.697185583E0,8.541238403E-1,-3.830534363E-1,6.496490479E-1,1.139430277E0
7.707254583E0,1.039438477E0,-2.859054565E-1,4.099974060E-1,1.153374245E0
7.717323583E0,1.318458252E0,-2.914439392E-1,1.381626892E-1,1.357335869E0
7.727392583E0,1.542093201E0,-3.222798157E-1,2.360591125E-1,1.592997057E0
7.737462583E0,1.529818726E0,-2.465373230E-1,3.203338623E-1,1.582321007E0
7.747531583E0,1.434317322E0,-1.314266968E-1,5.239105225E-3,1.440335587E0
7.757600583E0,1.245260468E0,-2.350112915E-2,-2.477348328E-1,1.269881287E0
7.767669583E0,9.523196411E-1,7.679031372E-2,-5.123844910E-1,1.084134363E0
7.777738583E0,7.750881958E-1,2.493814087E-1,-7.713459778E-1,1.121573634E0
7.787807583E0,7.096742249E-1,3.770658875E-1,-9.759704590E-1,1.264252556E0
7.797877583E0,1.106948090E0,5.068460083E-1,-9.852511597E-1,1.566188621E0
7.807946583E0,2.277214508E0,7.932005310E-1,-8.002359009E-1,2.540718500E0
7.818015583E0,4.366569672E0,1.087787933E0,-5.740562439E-1,4.536491360E0
7.828084583E0,6.136788483E0,1.654958496E0,-7.295828247E-1,6.397761452E0
7.838153583E0,8.990753632E0,2.687511292E0,-1.486109619E0,9.500783631E0
7.848222583E0,1.043255539E1,2.908601532E0,-2.940784607E0,1.122258388E1
7.858292583E0,1.031969009E1,2.159110107E0,-2.663561096E0,1.087438816E1
7.868361583E0,1.429437469E1,3.032094727E0,-6.413562927E0,1.595796152E1
7.878430583E0,2.243579453E1,6.176306305E0,-1.064990341E1,2.559164079E1
7.888499583E0,2.816513031E1,9.760602722E0,-9.544601898E0,3.129925488E1
7.898568583E0,3.411914886E1,1.327589264E1,-9.884095917E0,3.792177470E1
7.908637583E0,3.807602051E1,1.258642639E1,-1.224019638E1,4.192879529E1
7.918707583E0,3.308060852E1,8.205935669E0,-1.578033463E1,3.755906017E1
7.928776583E0,2.716012024E1,7.193890228E0,-1.722498047E1,3.295639756E1
7.938845583E0,2.082170105E1,5.908363495E0,-1.528800842E1,2.649858855E1
7.948914583E0,1.632026184E1,4.222419434E0,-1.093940140E1,2.009602636E1
7.958983583E0,1.288475601E1,3.171754303E0,-8.095615082E0,1.554400033E1
7.969052583E0,9.449549561E0,2.873873749E0,-6.854695587E0,1.202247848E1
7.979122583E0,8.533604279E0,2.787353668E0,-7.394622803E0,1.163065728E1
7.989191583E0,1.094523926E1,2.800077209E0,-9.209299164E0,1.457566074E1
7.999260583E0,1.299552567E1,3.089126129E0,-1.132320328E1,1.751117700E1
8.009329583E0,1.312844925E1,3.474724274E0,-1.299612442E1,1.879705132E1
8.019398583E0,1.481544113E1,3.649261322E0,-1.354682922E1,2.040419041E1
8.029467583E0,1.660047913E1,2.984793091E0,-1.354952362E1,2.163502917E1
8.039536583E0,1.764844986E1,3.154240723E0,-1.308818298E1,2.219724196E1
8.049606583E0,1.735790405E1,4.581672363E0,-1.217358490E1,2.169065983E1
8.059675583E0,1.697694626E1,6.143374786E0,-1.168799469E1,2.150737032E1
8.069744583E0,1.678803909E1,7.364385681E0,-1.154174881E1,2.166297299E1
8.079813583E0,1.545521072E1,8.157735901E0,-1.138951538E1,2.085984789E1
8.089882583E0,1.401685181E1,8.252339172E0,-1.088835754E1,1.957369578E1
8.099951583E0,1.310764252E1,7.894882507E0,-1.019290375E1,1.838572133E1
8.110021583E0,1.342857513E1,7.332501984E0,-9.054521027E0,1.777854231E1
8.120090583E0,1.495225662E1,7.224875793E0,-7.199279022E0,1.809968029E1
8.130159583E0,1.642294830E1,7.243736572E0,-5.100493469E0,1.866011747E1
8.140228583E0,1.715851868E1,7.018754425E0,-3.636238403E0,1.889179469E1
8.150297583E0,1.740640320E1,6.889722748E0,-2.721041565E0,1.891706159E1
8.160366583E0,1.719189926E1,6.764882355E0,-2.035018158E0,1.858672463E1
8.170436583E0,1.622206604E1,6.099815369E0,-1.396146698E0,1.738713317E1
8.180505583E0,1.439825867E1,4.547393646E0,-8.662486267E-1,1.512412074E1
8.190574583E0,1.282038986E1,3.168910217E0,2.444416809E-1,1.320848742E1
8.200643583E0,1.103699844E1,2.363884277E0,1.595532074E0,1.139951780E1
8.210712583E0,8.716523895E0,1.595232697E0,2.422412567E0,9.186437765E0
8.220781583E0,6.156397705E0,5.255570984E-1,2.050885162E0,6.510266732E0
8.230851583E0,3.955374756E0,7.574249268E-2,1.293609924E0,4.162229333E0
8.240920583E0,1.818568268E0,1.583706665E-1,5.908213806E-1,1.918682287E0
8.250989583E0,1.643582153E-1,5.433700562E-1,-4.770579529E-1,7.415179912E-1
8.261058583E0,-8.663983154E-1,8.178991699E-1,-1.396446075E0,1.835665202E0
8.271127583E0,-1.309626617E0,7.943980408E-1,-1.307231598E0,2.013714124E0
8.281196583E0,-1.283580780E0,6.518943787E-1,-9.690847778E-1,1.735416724E0
8.291266583E0,-1.210532684E0,3.326083374E-1,-1.794767761E-1,1.268159926E0
8.301335583E0,-1.275946655E0,-2.095642090E-3,5.072950745E-1,1.373095973E0
8.311404583E0,-1.247206421E0,-2.038760376E-1,1.026415558E0,1.628071925E0
8.321473583E0,-1.296304321E0,-2.556683350E-1,1.405128021E0,1.928770579E0
8.331542583E0,-1.648671570E0,-3.288661194E-1,1.728605347E0,2.411295775E0
8.341611583E0,-1.681752777E0,-4.113446045E-1,1.996997223E0,2.643008645E0
8.351681583E0,-1.626817017E0,-3.769161987E-1,2.176473999E0,2.743289721E0
8.361750583E0,-1.601669312E0,-2.903961182E-1,2.333647156E0,2.845273895E0
8.371819583E0,-1.686991882E0,-2.730322266E-1,2.562221832E0,3.079848848E0
8.381888583E0,-1.484013977E0,-3.984713745E-1,2.269281006E0,2.740568044E0
8.391957583E0,-1.294807434E0,-5.200186157E-1,2.107617188E0,2.527646309E0
8.402026583E0,-1.159488831E0,-5.559439087E-1,1.837578735E0,2.242807077E0
8.412096583E0,-1.005309448E0,-5.718109131E-1,1.533411255E0,1.920667822E0
8.422165583E0,-8.476872253E-1,-6.255491638E-1,1.253942413E0,1.637759739E0
8.432234583E0,-6.761439514E-1,-6.502478027E-1,8.843609619E-1,1.289219593E0
8.442303583E0,-5.641767883E-1,-6.182144165E-1,5.122348022E-1,9.812588883E-1
8.452372583E0,-5.096900940E-1,-6.060896301E-1,2.598596191E-1,8.334600490E-1
8.462441583E0,-4.605921936E-1,-6.084846497E-1,-1.841171265E-2,7.633726016E-1
8.472511583E0,-5.110372925E-1,-7.378157043E-1,6.077362061E-2,8.995690973E-1
8.482580583E0,-5.186714172E-1,-8.017327881E-1,2.227368164E-1,9.805137388E-1
8.492649583E0,-4.767585754E-1,-8.354127502E-1,3.153941345E-1,1.012268078E0
8.502718583E0,-4.194277954E-1,-8.803193665E-1,1.535806274E-1,9.871518990E-1
8.512787583E0,-3.905378723E-1,-9.547146606E-1,-1.496887207E-3,1.031504801E0
8.522856583E0,-4.366419983E-1,-1.120569763E0,8.681945801E-3,1.202667121E0
8.532925583E0,-4.816983032E-1,-1.364712067E0,2.954855347E-1,1.477086315E0
8.542995583E0,-3.799099731E-1,-1.623972931E0,5.797444153E-1,1.765707579E0
8.553064583E0,-4.849914551E-2,-1.769170990E0,5.854325867E-1,1.864148458E0
8.563133583E0,4.354444885E-1,-1.789977722E0,4.828958130E-1,1.904421307E0
8.573202583E0,1.076411591E0,-1.705104218E0,3.134481812E-1,2.040659714E0
8.583271583E0,2.077829132E0,-1.465153198E0,2.718347168E-1,2.556939950E0
8.593340583E0,4.402045898E0,-5.502557373E-1,1.279389496E0,4.617101575E0
8.603410583E0,9.243877258E0,1.764830017E0,3.792812805E0,1.014639447E1
8.613479583E0,1.718471420E1,3.280877380E0,9.035510559E0,1.969058175E1
8.623548583E0,2.615705612E1,5.880521393E0,9.746382294E0,2.852655052E1
8.633617583E0,2.822305984E1,9.858349457E0,-6.371201019E0,3.056665444E1
8.643686583E0,2.911819839E1,1.201970490E1,-2.146850601E1,3.812137896E1
8.653755583E0,3.339016479E1,1.393706772E1,-2.809702194E1,4.581034385E1
8.663825583E0,3.312865860E1,1.252580246E1,-2.673680054E1,4.437634788E1
8.673894583E0,2.416155579E1,6.848558350E0,-1.825169540E1,3.104525591E1
8.683963583E0,1.742706024E1,3.070415039E0,-1.110046646E1,2.088899789E1
8.694032583E0,1.565714081E1,2.008972321E0,-7.646249542E0,1.753987344E1
8.704101583E0,1.487307129E1,8.825646973E-1,-7.749385071E0,1.679405070E1
8.714170583E0,1.404424484E1,1.445693665E0,-8.134085083E0,1.629399225E1
8.724240583E0,1.325478653E1,3.370391235E0,-7.839347992E0,1.576401852E1
8.734309583E0,1.304806641E1,3.907474365E0,-8.518485718E0,1.606502386E1
8.744378583E0,1.565773956E1,3.613186340E0,-9.581125946E0,1.870876528E1
8.754447583E0,1.829645233E1,2.559078369E0,-1.032462982E1,2.116381419E1
8.764516583E0,1.886751480E1,1.732946320E0,-1.050754944E1,2.166552129E1
8.774585583E0,1.888921967E1,1.983674927E0,-1.029514114E1,2.160387736E1
8.784655583E0,1.913291290E1,3.052901459E0,-9.891730042E0,2.175396255E1
8.794724583E0,1.782283722E1,4.515809326E0,-9.624385986E0,2.075270744E1
8.804793583E0,1.652174286E1,5.920039215E0,-9.141789551E0,1.978856153E1
8.814862583E0,1.604408615E1,6.855893097E0,-8.486602020E0,1.940202011E1
8.824931583E0,1.628508499E1,7.701185303E0,-8.753497009E0,2.002837882E1
8.835000583E0,1.653192169E1,8.409512329E0,-9.156758423E0,2.068503220E1
8.845070583E0,1.633687729E1,9.292675781E0,-9.868677979E0,2.122824034E1
8.855139583E0,1.703322922E1,1.219364319E1,-9.985285492E0,2.320607158E1
8.865208583E0,1.599558701E1,1.398541718E1,-7.859106903E0,2.265427683E1
8.875277583E0,1.252385651E1,1.318637878E1,-6.154152374E0,1.919898848E1
8.885346583E0,1.147169449E1,1.284778290E1,-5.887856140E0,1.820253141E1
8.895415583E0,1.191522217E1,1.225890747E1,-5.079387360E0,1.783405472E1
8.905485583E0,1.239272919E1,1.139774826E1,-3.543880463E0,1.720603065E1
8.915554583E0,1.276814850E1,1.060424835E1,-2.735411682E0,1.682136071E1
8.925623583E0,1.255050110E1,1.014215927E1,-3.474574585E0,1.650609406E1
8.935692583E0,1.021715332E1,9.301806793E0,-3.923191681E0,1.436333055E1
8.945761583E0,7.602839813E0,9.283095703E0,-2.947819977E0,1.235591687E1
8.955830292E0,6.316714325E0,9.288783875E0,1.008901978E-1,1.123354639E1
8.965900292E0,6.052663422E0,7.209607544E0,1.288221130E0,9.501194089E0
8.975969292E0,5.514981537E0,4.191134491E0,-1.808239746E0,7.158935721E0
8.986038292E0,5.093009033E0,1.971849518E0,-6.373745728E-1,5.498470504E0
8.996107292E0,4.552483063E0,2.674937439E-1,1.809437256E0,4.906191815E0
9.006176292E0,3.217259674E0,-8.575666809E-1,1.479373627E0,3.643449842E0
9.016245292E0,1.727108459E0,-1.416654053E0,8.994795227E-1,2.408085494E0
9.026315292E0,8.442443848E-2,-1.002165985E0,3.116519165E-1,1.052896512E0
9.036384292E0,-4.299060059E-1,-1.194815369E0,-2.439926147E-2,1.270038686E0
9.046453292E0,-5.498066711E-1,-1.651815033E0,4.800517273E-1,1.805887577E0
9.056522292E0,-1.019380188E0,-1.855691071E0,7.966433716E-1,2.262159583E0
9.066591292E0,-1.510957947E0,-2.092049561E0,1.142723694E0,2.822318678E0
9.076660292E0,-1.737436981E0,-2.106419678E0,1.346000977E0,3.044242065E0
9.086730292E0,-1.952389984E0,-1.974693604E0,1.985920258E0,3.413959687E0
9.096799292E0,-2.637964325E0,-1.620979156E0,1.870510254E0,3.617352321E0
9.106868292E0,-2.928959198E0,-8.425978088E-1,2.303559723E0,3.820361298E0
9.116937292E0,-2.687511292E0,-9.520202637E-2,3.281326447E0,4.242509118E0
9.127006292E0,-2.268532562E0,3.966751099E-1,3.733236694E0,4.386416230E0
9.137075292E0,-2.106120300E0,7.887098694E-1,3.577710114E0,4.225850877E0
9.147145292E0,-1.068178711E0,7.819738770E-1,3.050356750E0,3.325231602E0
9.157214292E0,-2.775228882E-1,3.905378723E-1,1.813329163E0,1.875553634E0
9.167283292E0,-5.284011841E-2,-5.418731689E-2,3.152444458E-1,3.242027206E-1
9.177352292E0,2.624043274E-1,-5.360353088E-1,-2.380050659E-1,6.425233807E-1
9.187421292E0,1.227746887E0,-4.294569397E-1,6.152206421E-2,1.302144633E0
9.197490292E0,1.524130554E0,-2.261796570E-1,6.721023560E-2,1.542286744E0
9.207560292E0,9.590556335E-1,-4.086502075E-2,-1.725910950E-1,9.753180734E-1
9.217629292E0,2.773731995E-1,2.285746765E-1,-3.354524231E-1,4.916407252E-1
9.227698292E0,1.532812500E-1,5.816903687E-1,4.700225830E-2,6.033805092E-1
9.237767292E0,-6.391708374E-2,7.125183105E-1,2.562670898E-1,7.598950966E-1
9.247836292E0,2.260299683E-2,6.197113037E-1,8.711883545E-2,6.262129725E-1
9.257905292E0,5.945635986E-1,7.018904114E-1,-3.710783386E-1,9.918947302E-1
9.267974292E0,1.719324646E0,8.476872253E-1,-6.385720825E-1,2.020501219E0
9.278044292E0,2.253713379E0,9.949809265E-1,-9.286688232E-1,2.632800186E0
9.288113292E0,1.918710022E0,1.151854706E0,-1.725012817E0,2.825577221E0
9.298182292E0,1.410816193E0,9.201365662E-1,-2.614313507E0,3.109933881E0
9.308251292E0,1.800006866E0,7.381150818E-1,-2.885250092E0,3.479871648E0
9.318320292E0,2.899171143E0,1.074166260E0,-3.376528473E0,4.578206089E0
9.328389292E0,3.298540649E0,1.621278534E0,-4.525688782E0,5.830160671E0
9.338459292E0,4.343816986E0,2.827170868E0,-5.052742767E0,7.238221508E0
9.348528292E0,5.662125549E0,4.539759521E0,-6.645879822E0,9.840569133E0
9.358597292E0,7.811954956E0,6.781198425E0,-7.843688965E0,1.298209339E1
9.368666292E0,1.146001877E1,8.777596893E0,-2.711461487E0,1.468775888E1
9.378735292E0,1.356449249E1,1.067819458E1,2.206860809E0,1.740372175E1
9.388804292E0,1.397972900E1,1.236877899E1,1.443448334E0,1.872172695E1
9.398874292E0,1.521196655E1,1.483520004E1,-6.394702148E-1,2.125784582E1
9.408943292E0,2.009047165E1,1.778601379E1,-8.503816223E-1,2.684571636E1
9.419012292E0,2.681838089E1,2.052486832E1,2.189796295E0,3.384214799E1
9.429081292E0,2.576202759E1,2.260628998E1,-1.225950623E-1,3.427450133E1
9.439150292E0,2.480880981E1,2.284249878E1,-1.336555618E1,3.627526550E1
9.449219292E0,2.656241318E1,2.284833664E1,-2.201936050E1,4.138188635E1
9.459289292E0,1.997700760E1,2.131657196E1,-1.363858841E1,3.224109438E1
9.469358292E0,1.867875732E1,2.222099121E1,-1.463566498E1,3.250955421E1
9.479427292E0,2.262799484E1,2.443204330E1,-8.550668793E0,3.438116966E1
9.489496292E0,2.436483307E1,2.332329895E1,-4.433779907E0,3.401881492E1
9.499565292E0,2.335443420E1,2.047157913E1,-3.903881836E0,3.130104539E1
9.509634292E0,2.099249588E1,1.883069138E1,-4.346361694E0,2.853367626E1
9.519704292E0,1.812251404E1,1.680016388E1,-4.545298004E0,2.512629609E1
9.529773292E0,1.516197052E1,1.495255600E1,-4.379742279E0,2.174043292E1
9.539842292E0,1.362122452E1,1.358619736E1,-3.988006897E0,1.964756257E1
9.549911292E0,1.345372284E1,1.323113571E1,-2.868934021E0,1.908655005E1
9.559980292E0,1.253179001E1,1.227312790E1,-2.288141785E0,1.768929117E1
9.570049292E0,1.008138565E1,1.015009277E1,-1.956581268E0,1.443907650E1
9.580119292E0,7.671397247E0,7.156617737E0,-1.343755646E0,1.057701245E1
9.590188292E0,5.992488556E0,4.458328857E0,-6.578819275E-1,7.497961318E0
9.600257292E0,4.436623993E0,2.363285522E0,6.346801758E-2,5.027203905E0
9.610326292E0,2.525997162E0,7.429051208E-1,6.167175293E-1,2.704239300E0
9.620395292E0,3.400927734E-1,-6.227050781E-1,1.352287903E0,1.527123859E0
9.630464292E0,-1.624871063E0,-1.701062622E0,2.151625671E0,3.187995145E0
9.640534292E0,-3.552263031E0,-2.712060242E0,3.485202484E0,5.667493251E0
9.650603292E0,-4.862937469E0,-3.437601471E0,3.410657501E0,6.862787283E0
9.660672292E0,-5.423821106E0,-3.887266388E0,1.674717407E0,6.879923964E0
9.670741292E0,-5.094805298E0,-4.603227539E0,5.890251160E-1,6.891566976E0
9.680810292E0,-3.984713745E0,-5.317542114E0,5.291496277E-1,6.665898071E0
9.690879292E0,-2.319576416E0,-4.146826630E0,1.659299469E0,5.032879948E0
9.700949292E0,-1.482367401E0,-1.707050171E0,2.963986359E0,3.727820883E0
9.711018292E0,-1.315314789E0,-3.966751099E-1,4.041745148E0,4.268853239E0
9.721087292E0,-7.991880798E-1,1.297801208E-1,4.118984528E0,4.197806333E0
9.731156292E0,-2.745291138E-1,1.685494995E-1,3.277284851E0,3.293079283E0
9.741225292E0,1.393601990E-1,-4.082011414E-1,2.116149445E0,2.159661526E0
9.751294292E0,1.080752563E-1,-1.250948639E0,1.240919495E0,1.765342446E0
9.761364292E0,1.071771240E-1,-1.479523315E0,7.204518127E-1,1.649098842E0
9.771433292E0,5.144801331E-1,-1.287772064E0,5.089416504E-3,1.386748931E0
9.781502292E0,1.193917236E0,-7.592211914E-1,-1.636097717E-1,1.424297491E0
9.791571292E0,1.483265533E0,-2.830613708E-1,-2.963836670E-2,1.510324076E0
9.801640292E0,1.394500122E0,8.547225952E-2,-2.516267395E-1,1.419595757E0
9.811709292E0,8.842112732E-1,-6.242019653E-2,-6.728507996E-1,1.112858506E0
9.821779292E0,7.128176880E-1,-1.011895752E-1,-5.661227417E-1,9.158839146E-1
9.831848292E0,1.173709259E0,5.644761658E-1,6.077362061E-2,1.303809879E0
9.841917292E0,7.185058594E-1,-1.314266968E-1,6.568341064E-1,9.823210728E-1
9.851986292E0,3.303630066E-1,-4.022135925E-1,1.128652954E-1,5.325918372E-1
9.862055292E0,6.092330933E-1,5.029541016E-1,-6.474037170E-1,1.021400687E0
9.872124292E0,7.189549255E-1,1.921254730E0,-8.707392883E-1,2.228520323E0
9.882194292E0,6.580316162E-1,2.724783783E0,-1.372944946E0,3.121286609E0
9.892263292E0,1.648222504E0,2.690056000E0,-2.184257813E0,3.837189192E0
9.902332292E0,2.781515808E0,2.404150543E0,-2.794389038E0,4.617941113E0
9.912401292E0,4.090843048E0,3.011737061E0,-2.922073517E0,5.860381438E0
9.922470292E0,5.432652740E0,4.275708618E0,-3.207978973E0,7.621451901E0
9.932539292E0,6.668183441E0,5.900429993E0,-4.023483124E0,9.770780980E0
9.942609292E0,8.979826355E0,7.774383087E0,-4.535867615E0,1.271426006E1
9.952678292E0,1.074735077E1,9.318122864E0,-1.729353790E0,1.432911814E1
9.962746917E0,1.196147598E1,1.241922409E1,2.131717072E0,1.737406839E1
9.972815917E0,1.507829453E1,1.579066315E1,6.782395935E-1,2.184399271E1
9.982884917E0,1.835123840E1,2.034224808E1,-5.010081482E-1,2.740120466E1
9.992953917E0,2.155682236E1,2.601395370E1,-4.623884583E0,3.409989276E1
1.000302292E1,2.607233231E1,2.995899994E1,-1.162362854E1,4.138135969E1
1.001309292E1,2.836316849E1,2.844235382E1,-1.514251099E1,4.292705972E1
1.002316192E1,2.691507980E1,2.528407150E1,-1.469194794E1,3.974366776E1
1.003323092E1,2.552926163E1,2.474743744E1,-1.174322983E1,3.744438951E1
1.004329992E1,2.503723480E1,2.314861221E1,-8.872349854E0,3.523407393E1
1.005336892E1,2.343825989E1,2.228101639E1,-6.807244263E0,3.304745516E1
1.006343892E1,2.124232635E1,2.197445389E1,-7.247778168E0,3.141087934E1
1.007350792E1,2.080119370E1,2.048041077E1,-7.635771332E0,3.017352959E1
1.008357692E1,1.990785141E1,1.834450241E1,-6.724466400E0,2.789375853E1
1.009364592E1,1.827130463E1,1.661574738E1,-5.598358154E0,2.532321559E1
1.010371492E1,1.656769730E1,1.516511398E1,-3.908671875E0,2.279796025E1
1.011378392E1,1.379486343E1,1.312740143E1,-2.430495758E0,1.919724551E1
1.012385392E1,1.181852325E1,1.100047440E1,-1.624421997E0,1.622734346E1
1.013392292E1,1.016835480E1,8.886420593E0,-9.684860229E-1,1.353890230E1
1.014399192E1,8.779842224E0,6.679859161E0,-4.791535950E-1,1.104245154E1
1.015406092E1,7.207212524E0,4.204007721E0,4.998106384E-1,8.358672380E0
1.016412992E1,4.455784149E0,2.227068787E0,1.250200195E0,5.135839590E0
1.017419892E1,1.618883514E0,5.102888489E-1,4.577481079E-1,1.758042057E0
1.018426792E1,-7.783813477E-3,-1.482966156E0,7.086264038E-1,1.643593803E0
1.019433792E1,-1.667682037E0,-2.611020355E0,2.104324036E0,3.745233013E0
1.020440692E1,-2.982697449E0,-2.029479675E0,4.015848999E0,5.398362252E0
1.021447592E1,-4.147126007E0,-8.689430237E-1,3.507655792E0,5.500669528E0
1.022454492E1,-4.394262085E0,-1.476379852E0,1.427880707E0,4.850575229E0
1.023461392E1,-3.998784485E0,-2.478246460E0,1.002615051E0,4.810116403E0
1.024468292E1,-3.503314819E0,-2.769690399E0,1.643582153E0,4.758756342E0
1.025475292E1,-3.134781189E0,-2.802621918E0,2.420616302E0,4.851899216E0
1.026482192E1,-2.900518341E0,-2.329156494E0,3.074456635E0,4.825998365E0
1.027489092E1,-1.636846161E0,-1.211281128E0,3.307222595E0,3.883836843E0
1.028495992E1,-5.819897461E-1,-5.180726624E-1,2.279609528E0,2.409093387E0
1.029502892E1,-3.005749512E-1,-1.535806274E-1,1.528621216E0,1.565444069E0
1.030509792E1,1.136137390E-1,1.902543640E-1,1.581760712E0,1.597207486E0
1.031516792E1,5.387297058E-1,1.510359192E-1,1.473236389E0,1.575901965E0
1.032523692E1,8.637039185E-1,-2.853067017E-1,1.512155457E0,1.764652515E0
1.033530592E1,9.818083191E-1,-8.738827515E-1,1.321002960E0,1.863509447E0
1.034537492E1,1.029409332E0,-1.026265869E0,8.128097534E-1,1.665402325E0
1.035544392E1,1.466949463E0,-7.086264038E-1,2.065704346E-2,1.629269413E0
1.036551292E1,1.700613556E0,5.336402893E-1,-3.573069763E-1,1.817835719E0
1.037558292E1,2.717449036E0,9.357041931E-1,-5.053491211E-1,2.918124283E0
1.038565192E1,2.955903168E0,1.730850677E0,-9.713301086E-1,3.560433932E0
1.039572092E1,1.976938934E0,2.082319794E0,-1.138682098E0,3.088841238E0
1.040578992E1,1.653910675E0,1.315913544E0,-9.437873840E-1,2.314688662E0
1.041585892E1,1.456321564E0,7.467970276E-1,-2.772235107E-1,1.659949147E0
1.042592892E1,1.883084106E-1,6.262976074E-1,1.453477478E-1,6.699512806E-1
1.043599792E1,-1.248403931E0,3.538641357E-1,-3.808081055E-1,1.352311730E0
1.044606692E1,-1.424737244E0,-1.002914429E-2,-1.083746338E0,1.790106958E0
1.045613592E1,-6.731501770E-1,-1.222956848E-1,-5.757028198E-1,8.941594556E-1
1.046620492E1,1.128652954E-1,2.733316040E-1,-3.962260437E-1,4.944125993E-1
1.047627392E1,1.112486572E0,7.858657837E-1,-1.072819061E0,1.733825868E0
1.048634292E1,2.112556915E0,1.720671844E0,-1.160237274E0,2.961377863E0
1.049641292E1,3.512595520E0,2.995870056E0,-1.069974976E0,4.739030611E0
1.050648192E1,5.286855927E0,4.584217072E0,-1.909279633E0,7.253360632E0
1.051655092E1,7.435188446E0,6.705755310E0,-3.239712982E0,1.052354131E1
1.052661992E1,1.009380981E1,9.287137299E0,-4.229903870E0,1.435367558E1
1.053668892E1,1.262908768E1,1.136945709E1,-4.272415466E0,1.752175631E1
1.054675792E1,1.469164856E1,1.326601318E1,-5.390141144E0,2.051548841E1
1.055682792E1,1.770757690E1,1.681917435E1,-8.061635742E0,2.571833736E1
1.056689692E1,1.930325867E1,2.026081741E1,-1.056128769E1,2.991082271E1
1.057696592E1,2.194526459E1,2.503409134E1,-1.453956482E1,3.632766593E1
1.058703492E1,2.549094131E1,2.873155243E1,-1.205533081E1,4.025693971E1
1.059710392E1,2.511791702E1,2.772759018E1,-1.059661423E1,3.888466595E1
1.060717292E1,2.388208694E1,2.507390854E1,-1.218226685E1,3.670780015E1
1.061724292E1,2.544393906E1,2.307496536E1,-9.729018402E0,3.570016611E1
1.062731192E1,2.456077560E1,2.673305832E1,-8.783434753E0,3.735019185E1
1.063738092E1,2.400079010E1,2.694816101E1,-7.880362701E0,3.693699262E1
1.064744992E1,2.238460098E1,2.467214401E1,-7.633076935E0,3.417673060E1
1.065751892E1,1.965293152E1,2.145054337E1,-8.170758820E0,3.021795538E1
1.066758792E1,1.699086731E1,1.845931366E1,-7.637268219E0,2.622524926E1
1.067765792E1,1.490854752E1,1.631457367E1,-6.084996185E0,2.292285501E1
1.068772692E1,1.326197159E1,1.402089340E1,-5.119354248E0,1.996680070E1
1.069779592E1,1.223196350E1,1.243389359E1,-3.505859528E0,1.779083168E1
1.070786492E1,8.916957092E0,9.439819794E0,-1.755100250E0,1.310353763E1
1.071793392E1,5.956263885E0,6.734794922E0,-6.704557800E-1,9.015766915E0
1.072800292E1,4.072581024E0,4.585115204E0,-4.788542175E-1,6.151300594E0
1.073807292E1,2.798131256E0,3.018173676E0,2.739303589E-1,4.124796808E0
1.074814192E1,1.593735809E0,1.433568878E0,5.486091614E-1,2.212710006E0
1.075821092E1,3.303630066E-1,2.652484131E-1,1.273701324E0,1.342315723E0
1.076827992E1,-1.555415497E0,-8.452922058E-1,1.881736908E0,2.583557639E0
1.077834892E1,-3.676804047E0,-3.021017761E0,1.552721100E0,5.005634737E0
1.078841792E1,-4.127516785E0,-4.619244232E0,1.708696747E0,6.425998495E0
1.079848792E1,-3.112327881E0,-4.303251343E0,1.996398468E0,5.673637616E0
1.080855692E1,-2.970273285E0,-4.140090637E0,1.999841309E0,5.473777410E0
1.081862592E1,-2.738106079E0,-3.516786804E0,1.925146637E0,4.855018424E0
1.082869492E1,-2.038910065E0,-1.852098541E0,1.933678894E0,3.365492137E0
1.083876392E1,-1.491049347E0,-9.620494080E-1,1.896705780E0,2.597356355E0
1.084883292E1,-1.091081085E0,-4.415817261E-1,1.987117767E0,2.309564759E0
1.085890292E1,-8.250842285E-1,-1.628613281E-1,1.822909241E0,2.007557196E0
1.086897192E1,-6.539900208E-1,-5.613327026E-2,1.536405029E0,1.670746631E0
1.087904092E1,-5.231620789E-1,5.134323120E-2,1.626817017E0,1.709639814E0
1.088910992E1,-5.387297058E-1,-5.508544922E-2,2.458038483E0,2.516985754E0
1.089917892E1,-1.072519684E0,-2.929408264E-1,6.053112488E0,6.154371096E0
1.090924792E1,-2.156715088E0,-6.583309937E-1,1.133877090E1,1.156081940E1
1.091931792E1,-8.550219727E-1,-6.457571411E-1,1.848056946E0,2.136206763E0
1.092938692E1,-1.422042847E-1,-6.289920044E-1,-6.008505249E-1,8.814047614E-1
1.093945592E1,3.817062378E-2,-4.632865906E-1,-2.163900146E0,2.213268015E0
1.094952492E1,-2.529739380E-2,-1.059796143E-1,-2.109413452E0,2.112225544E0
1.095959417E1,9.295669556E-2,6.173162842E-1,-6.565347290E-1,9.059570588E-1
1.096966317E1,-3.390449524E-1,9.099577332E-1,1.820214844E0,2.063045475E0
1.097973317E1,-8.196954346E-1,1.310375061E0,2.926713867E0,3.309779066E0
1.098980217E1,-2.594105530E-1,1.468745728E0,-1.190474396E0,1.908333601E0
1.099987117E1,7.189549255E-1,8.252339172E-1,-2.521506500E0,2.748800144E0
1.100994017E1,3.156785431E0,-3.845503235E-1,3.085084534E-1,3.195050966E0
1.102000917E1,3.044818268E0,-1.601669312E0,2.100132751E-1,3.446791036E0
1.103007817E1,1.447938995E0,-2.138303375E0,-8.785231018E-1,2.727759428E0
1.104014817E1,-4.839436340E-1,-2.439626770E0,-2.504292297E0,3.529512732E0
1.105021717E1,-8.677455139E-1,-2.310894470E0,-3.417543182E0,4.215781889E0
1.106028617E1,4.510121155E-1,-1.502276001E0,-2.189347229E0,2.693229734E0
1.107035517E1,1.745819550E0,-5.319937134E-1,-2.312840424E0,2.946206720E0
1.108042417E1,3.620970154E0,3.547622681E-2,9.934840393E-1,3.754955919E0
1.109049317E1,5.504802704E0,5.763015747E-1,3.604504395E0,6.605106225E0
1.110056317E1,4.950056305E0,7.301815796E-1,-5.658233643E-2,5.003940859E0
1.111063217E1,6.258186035E0,1.203647003E0,-5.028493195E0,8.117844687E0
1.112070117E1,1.390997406E1,3.008144531E0,-1.524280243E0,1.431292221E1
1.113077017E1,1.913396072E1,3.491339722E0,-2.132615204E0,1.956644969E1
1.114083917E1,1.949186646E1,5.803581390E0,-1.296933014E1,2.412090254E1
1.115090817E1,2.543151489E1,1.169877228E1,-1.700897964E1,3.275558901E1
1.116097817E1,3.542997299E1,1.508922180E1,-1.101559296E1,4.005384986E1
1.117104717E1,3.904660217E1,1.018257523E1,-5.776338043E0,4.076380822E1
1.118111617E1,3.747546936E1,4.909490662E0,-6.187682648E0,3.829884227E1
1.119118517E1,3.410687439E1,7.393125916E-1,-9.668843536E0,3.545859556E1
1.120125417E1,3.149495590E1,-2.986589355E0,-1.094464050E1,3.347591849E1
1.121132317E1,2.758808029E1,-4.781207428E0,-1.524923904E1,3.188261925E1
1.122139317E1,2.482782028E1,-5.202132111E0,-1.861918121E1,3.146675623E1
1.123146217E1,2.141821060E1,-4.376898193E0,-2.067216202E1,3.008712791E1
1.124153117E1,1.892140274E1,-2.931803284E0,-2.143886765E1,2.874439072E1
1.125160017E1,1.983719833E1,-1.480571136E0,-1.831231934E1,2.703789134E1
1.126166917E1,2.742716492E1,-2.044897614E0,-9.915380859E0,2.923603529E1
1.127173817E1,3.005749512E1,-4.556524658E-1,-9.251361694E0,3.145231828E1
1.128180817E1,3.485576706E1,9.334588623E-1,-9.549691315E0,3.615235050E1
1.129187717E1,3.252975403E1,-6.508465576E-1,2.278262329E0,3.261593135E1
1.130194617E1,1.767045410E1,-1.493743744E0,-4.707710266E0,1.834771796E1
1.131201517E1,1.202404587E1,-1.038390656E0,-1.421414154E1,1.864665530E1
1.132208417E1,1.764919830E1,-1.893412628E0,-7.650291138E0,1.932889460E1
1.133215317E1,1.763931885E1,-1.771715698E0,-2.784659271E0,1.794544157E1
1.134222317E1,1.142244690E1,-1.603914642E0,-6.446793823E0,1.321385583E1
1.135229217E1,1.152767807E1,-2.427801361E0,-1.822160797E0,1.192064810E1
1.136236117E1,8.937464447E0,-1.745071106E0,-3.099903717E0,9.619404709E0
1.137243017E1,3.099454651E0,-7.664062500E-1,-2.943029938E0,4.342283142E0
1.138249917E1,1.598525848E0,-5.252577209E-1,-2.172133026E0,2.747606676E0
1.139256917E1,1.972298584E0,-7.083270264E-1,-1.286873932E0,2.459213980E0
1.140263817E1,1.061742096E0,-1.301543427E0,-1.109792175E0,2.013194040E0
1.141270717E1,-4.783303070E0,-1.038839722E0,-6.371500397E0,8.034624667E0
1.142277617E1,-6.151757355E0,-1.204395447E0,-8.297245789E-1,6.323221475E0
1.143284517E1,-5.455555115E0,-1.678459625E0,-1.853146362E0,6.001204859E0
1.144291417E1,-4.694537659E0,-1.412163391E0,-1.872605896E-1,4.905910293E0
1.145298417E1,-3.336711273E0,-1.131946106E0,7.348219299E-1,3.599292622E0
1.146305317E1,-6.984475708E-1,-7.572752380E-1,6.968009949E-1,1.243714767E0
1.147312217E1,-4.821473694E-1,-7.378157043E-1,1.101259918E0,1.410535893E0
1.148319117E1,-5.261558533E-1,-6.557862854E-1,9.719288635E-1,1.285123087E0
1.149326017E1,-3.628454590E-1,-3.411405945E-1,4.120930481E-1,6.464165937E-1
1.150332917E1,-3.567082214E-1,-2.305206299E-1,2.812651062E-1,5.094021751E-1
1.151339917E1,-2.249821472E-1,-2.218386841E-1,8.503816223E-1,9.071814989E-1
1.152346817E1,-7.978408813E-2,-3.183879089E-1,1.200802917E0,1.244855015E0
1.153353717E1,1.499880981E-1,-6.553372192E-1,1.546733551E0,1.686519487E0
1.154360617E1,-2.540217590E-1,-8.192463684E-1,1.891017609E0,2.076448714E0
1.155367517E1,-3.365002441E-1,-6.086343384E-1,2.586471405E0,2.678339504E0
1.156374417E1,-7.237449646E-1,-7.659571838E-1,4.151317291E0,4.282981722E0
1.157381417E1,-7.764353943E-1,-7.044351196E-1,5.085374908E0,5.192313426E0
1.158388317E1,-4.501139832E-1,-6.300398254E-1,5.561834106E0,5.615474282E0
1.159395217E1,-5.948629761E-1,-8.663983154E-1,5.051245880E0,5.159417888E0
1.160402117E1,-4.987628174E-1,-1.104253693E0,4.150718536E0,4.323957092E0
1.161409017E1,-8.201445007E-1,-1.405876465E0,4.188290405E0,4.493428775E0
1.162415917E1,-2.388732605E0,-1.234931946E0,3.931723938E0,4.763355277E0
1.163422917E1,-3.311413879E0,-1.144220581E0,4.088597717E0,5.384360121E0
1.164429817E1,-3.455863495E0,-1.414259033E0,4.432133331E0,5.795422933E0
1.165436717E1,-2.878065033E0,-1.578916626E0,3.721860352E0,4.962708990E0
1.166443617E1,-2.239193573E0,-1.475781097E0,2.136357422E0,3.428693737E0
1.167450517E1,-1.693877563E0,-1.258133698E0,1.076112213E0,2.368573219E0
1.168457417E1,1.028361511E-1,-1.213825836E0,2.763253784E-1,1.249121351E0
1.169464417E1,1.515897675E0,-1.337468719E0,-1.004710693E0,2.257479106E0
1.170471317E1,1.609303436E0,-1.359772339E0,-1.835333405E0,2.794152299E0
1.171478217E1,1.522334290E0,-1.297501831E0,-1.497186584E0,2.498515631E0
1.172485117E1,1.326840820E0,-1.031205597E0,-5.108876038E-1,1.756387682E0
1.173492017E1,9.357041931E-1,-5.361849976E-1,6.195616150E-1,1.243741647E0
1.174498917E1,8.637039185E-1,-1.028361511E-1,1.266366577E0,1.536308576E0
1.175505917E1,1.174457703E0,2.155517578E-1,3.432362366E-1,1.242426887E0
1.176512817E1,2.595183289E1,-2.772085419E0,1.914518738E-1,2.610016746E1
1.177519717E1,7.832612000E1,-1.889640472E1,2.926264801E0,8.062641137E1
1.178526617E1,7.502698059E1,-3.074785950E1,-1.356224716E1,8.220956896E1
1.179533517E1,4.859599411E1,-2.006322830E1,-2.294039520E1,5.736170766E1
1.180540417E1,1.560699509E1,1.657054138E1,1.257954071E1,2.600780617E1
1.181547417E1,4.087639709E1,2.110356491E1,3.322191467E0,4.612241589E1
1.182554317E1,5.183929962E1,5.441933441E0,-1.725342133E1,5.490544756E1
1.183561217E1,3.724210464E1,1.282832336E-1,-1.649554733E1,4.073197634E1
1.184568117E1,2.645508636E1,6.183641052E-1,-9.407337341E0,2.808472832E1
1.185575017E1,2.225452148E1,9.307644653E-1,-6.591243439E0,2.322874381E1
1.186581917E1,1.985396347E1,5.870791626E-1,-6.243815918E0,2.082089731E1
1.187588917E1,1.988120682E1,8.152047729E-1,-5.251230011E0,2.057917297E1
1.188595817E1,1.893891632E1,4.924758911E-2,-4.919819183E0,1.956756494E1
1.189602717E1,1.991189301E1,-4.041595459E-1,-5.282065887E0,2.060453950E1
1.190609617E1,1.941178299E1,-5.736071777E-1,-5.948629761E0,2.031089708E1
1.191616517E1,1.687890015E1,-5.303471375E-1,-5.019062805E0,1.761730767E1
1.192623417E1,1.238749008E1,-1.635798340E0,-3.653003540E0,1.301807135E1
1.193630417E1,8.834777985E0,-4.442761230E0,-6.712042236E-1,9.911707446E0
1.194637317E1,6.242319031E0,-6.018684082E0,4.730163574E-2,8.671409482E0
1.195644242E1,2.462828522E0,-5.710025940E0,-3.089575195E-1,6.226184651E0
1.196651142E1,-8.873547363E-1,-5.959557037E0,1.796564026E0,6.287396982E0
1.197658042E1,-2.631527710E0,-5.386398926E0,1.394949188E0,6.155007288E0
1.198664942E1,-3.116070099E0,-5.272785187E0,7.345225525E-1,6.168604369E0
1.199671942E1,-5.852828979E-1,-3.967948608E0,-9.205856323E-2,4.011938061E0
1.200678842E1,-7.638615417E-1,-2.536325684E0,-2.808609467E0,3.860663099E0
1.201685742E1,-2.088007965E0,-2.373314667E0,-3.171754303E0,4.477993427E0
1.202692642E1,-1.644629974E0,-2.004481659E0,-2.798879700E0,3.815295801E0
1.203699542E1,-1.298549652E0,-1.665586395E0,-2.003134460E0,2.910834400E0
1.204706442E1,-8.819659424E-1,-1.235231323E0,-1.587448883E0,2.196281927E0
1.205713442E1,-7.676037598E-1,-1.103355560E0,-5.149291992E-1,1.439361353E0
1.206720342E1,-6.331832886E-1,-6.908134460E-1,5.984555054E-1,1.111887263E0
1.207727242E1,-3.692820740E-1,-6.182144165E-2,2.045646057E0,2.079629518E0
1.208734142E1,9.849517822E-2,8.876541138E-1,3.740870819E0,3.846003850E0
1.209741042E1,6.673123169E-1,2.033371582E0,4.696782990E0,5.161363790E0
1.210748042E1,9.538165283E-1,2.631976776E0,4.212839355E0,5.058169941E0
1.211754942E1,9.286688232E-1,2.765199738E0,3.125650177E0,4.275329742E0
1.212761842E1,4.602928162E-1,2.508932648E0,2.050735474E0,3.272938816E0
1.213768742E1,-1.022373962E-1,2.305355988E0,7.164102173E-1,2.416270331E0
1.214775642E1,-4.254153442E-1,2.557282104E0,3.490740967E-1,2.615821611E0
1.215782542E1,-8.059240723E-1,2.951562195E0,5.322930908E-1,3.105570629E0
1.216789442E1,-9.870474243E-1,3.116369476E0,-3.989204407E-1,3.293198878E0
1.217796442E1,-4.004173279E-1,3.614832916E0,-1.284927979E0,3.857251737E0
1.218803342E1,-1.469943237E-1,4.196523285E0,-2.098186798E0,4.694124290E0
1.219810242E1,-6.735992432E-2,3.601809998E0,-2.474055176E0,4.370185537E0
1.220817142E1,1.719923401E-1,6.039490814E0,-1.777852936E0,6.298078415E0
1.221824042E1,3.201841736E-1,7.316335602E0,-2.124382324E0,7.625239983E0
1.222831042E1,-3.338058472E-2,1.090302704E1,-6.483018494E-1,1.092233529E1
1.223837942E1,-3.579356689E0,1.475676315E1,1.078207855E0,1.522289017E1
1.224844842E1,-4.947361908E0,1.217074081E1,1.760339355E-1,1.313903763E1
1.225851742E1,-3.310665436E0,6.170618134E0,-1.327738953E-1,7.003903389E0
1.226858642E1,-1.188528442E0,2.884351959E0,1.902543640E-1,3.125425220E0
1.227865542E1,-5.975573730E-1,1.553469543E0,1.377136230E-1,1.670121995E0
1.228872542E1,-3.740721130E-1,6.177653503E-1,-1.972897339E-1,7.486569394E-1
1.229879442E1,4.475692749E-2,-3.150947571E-1,-6.581813049E-1,7.310885847E-1
1.230886342E1,3.523672485E-1,-1.353485413E0,3.002755737E-1,1.430472251E0
1.231893242E1,4.454736328E-1,-3.029400330E0,2.284549255E0,3.820324386E0
1.232900142E1,1.388811951E0,-4.071682892E0,3.420686646E0,5.496225735E0
1.233907042E1,1.633253632E0,-5.168003082E0,-5.604345703E-1,5.448840261E0
1.234914042E1,6.481222229E0,-8.137078857E0,-4.343816986E0,1.127328878E1
1.235920942E1,6.131115280E1,-3.113181107E1,-1.677097458E1,7.077791115E1
1.236927842E1,8.080391739E1,-7.218469116E1,-2.552117844E1,1.113159164E2
1.237934742E1,6.703030975E1,-4.990891388E1,-2.030258057E1,8.600091213E1
1.238941642E1,3.434742416E1,-2.311029190E1,-3.151246948E0,4.151820680E1
1.239948542E1,2.829131790E1,-4.578977966E0,5.683830414E0,2.921765966E1
1.240955542E1,3.369912231E1,6.458469543E0,4.010160828E-1,3.431477069E1
1.241962442E1,2.957654526E1,5.908812561E0,-1.094703552E1,3.208619145E1
1.242969342E1,2.369871826E1,2.987786865E0,-1.479463440E1,2.809692732E1
1.243976242E1,2.355935806E1,2.839145966E0,-1.099224152E1,2.615212182E1
1.244983142E1,2.188688599E1,3.489244080E0,-4.027075653E0,2.252616125E1
1.245990042E1,1.635783371E1,2.971470795E0,7.373666382E-1,1.664187706E1
1.246997042E1,1.132440079E1,1.926643524E0,-6.680607605E-1,1.150653352E1
1.248003942E1,9.340426483E0,1.794169006E0,-3.534450073E0,1.014667170E1
1.249010842E1,9.861043854E0,2.078876953E0,-5.325475616E0,1.139835979E1
1.250017742E1,8.795559540E0,7.473957825E-1,-6.238576813E0,1.080926957E1
1.251024642E1,5.661826172E0,-1.317260742E0,-6.697971497E0,8.868724465E0
1.252031642E1,2.993774414E0,-2.815195770E0,-5.978268127E0,7.254495315E0
1.253038542E1,1.078656921E0,-3.974085846E0,-4.010909271E0,5.748413020E0
1.254045442E1,-5.478607178E-2,-4.687801666E0,-1.391506348E0,4.890273601E0
1.255052342E1,-4.791535950E-1,-4.559518433E0,1.515448608E0,4.828600314E0
1.256059242E1,-1.227746887E0,-3.641028442E0,4.044439545E0,5.578704309E0
1.257066142E1,-2.483485565E0,-2.671045532E0,5.526357880E0,6.621390806E0
1.258073142E1,-3.762425995E0,-2.232008514E0,5.815855865E0,7.277492070E0
1.259080042E1,-4.512366486E0,-2.331252136E0,4.395609283E0,6.716961277E0
1.260086942E1,-4.456682281E0,-2.514171753E0,2.232158203E0,5.582616484E0
1.261093842E1,-3.378474426E0,-2.604583740E0,2.076182556E-1,4.270954372E0
1.262100742E1,-3.147355042E0,-2.642604675E0,-1.016985168E0,4.233610995E0
1.263107642E1,-3.125350800E0,-2.674188995E0,-1.129850464E0,4.265637874E0
1.264114642E1,-2.910098419E0,-2.564167786E0,-7.557783508E-1,3.951560471E0
1.265121542E1,-2.517614594E0,-2.298919373E0,-3.444337463E-1,3.426667204E0
1.266128442E1,-2.276016998E0,-2.077829132E0,2.483335876E-1,3.091811257E0
1.267135342E1,-2.166295166E0,-1.858535156E0,1.083596649E0,3.053059019E0
1.268142242E1,-2.459535370E0,-1.401236115E0,2.098336487E0,3.523605099E0
1.269149142E1,-2.473755798E0,-8.652008057E-1,3.097658386E0,4.057527284E0
1.270156142E1,-2.251468048E0,-2.924917603E-1,3.687282257E0,4.330209030E0
1.271163042E1,-1.494192810E0,2.389031982E-1,3.810775452E0,4.100206877E0
1.272169942E1,-6.565347290E-1,7.966433716E-1,3.532354431E0,3.680109555E0
1.273176842E1,-1.143621826E-1,1.117126923E0,2.995271301E0,3.198859396E0
1.274183742E1,6.325845337E-1,1.011147308E0,2.057471466E0,2.378186474E0
1.275190642E1,5.466632080E-1,7.695497131E-1,1.324296112E0,1.626286450E0
1.276197642E1,6.710545349E-1,4.318519592E-1,1.035845947E0,1.307588288E0
1.277204542E1,9.348060608E-1,2.462379456E-1,8.484356689E-1,1.286210940E0
1.278211442E1,1.161584473E0,1.749861145E-1,4.821473694E-1,1.269789240E0
1.279218342E1,1.877545624E0,7.619155884E-2,-2.406994629E-1,1.894444234E0
1.280225242E1,3.523223419E0,1.383123779E-1,-1.445394287E0,3.810695241E0
1.281232142E1,5.785768433E0,5.896238708E-1,-3.447331238E0,6.760685271E0
1.282239142E1,1.012808853E1,5.932164001E-1,-6.314618683E0,1.195008335E1
1.283246042E1,1.680330734E1,-1.119671631E0,-8.026009827E0,1.865533800E1
1.284252942E1,2.208537323E1,-3.379073181E0,-7.032825165E0,2.342311841E1
1.285259842E1,2.784689209E1,-6.536607056E0,-9.492959290E0,3.013789818E1
1.286266742E1,2.137495056E1,-8.745114441E0,-8.208330688E0,2.451004347E1
1.287273642E1,1.767793854E1,-6.483467560E0,-2.879262543E0,1.904822867E1
1.288280642E1,1.696691711E1,-5.945785675E0,-2.155517578E-1,1.797985279E1
1.289287542E1,1.758034149E1,-9.292526093E0,7.936495972E-1,1.990098811E1
1.290294442E1,2.929138824E1,-8.994495850E0,-4.287084961E0,3.093970715E1
1.291301342E1,3.634636734E1,-6.210285645E0,-6.349196777E0,3.741575024E1
1.292308242E1,2.778851349E1,-6.825506287E0,-6.180198212E0,2.927428680E1
1.293315242E1,2.095926498E1,-5.932762756E0,-6.988217926E0,2.287626832E1
1.294322142E1,2.311283661E1,-3.852239227E0,-8.486302643E0,2.492108135E1
1.295329042E1,2.598895569E1,-3.615880737E0,-1.317350555E1,2.936054597E1
1.296335879E1,2.703617798E1,-3.621568909E0,-1.344848373E1,3.041270122E1
1.297342779E1,2.898512512E1,-3.605103149E0,-1.185519699E1,3.152268933E1
1.298349679E1,3.313210144E1,-4.110003204E0,-1.224199265E1,3.555973363E1
1.299356679E1,3.343971176E1,-5.463638306E0,-1.198737213E1,3.594110122E1
1.300363579E1,2.761846710E1,-4.419409790E0,-6.000571747E0,2.860625402E1
1.301370479E1,3.054323502E1,-2.081421661E0,-1.116378479E0,3.063442218E1
1.302377379E1,2.485955429E1,-2.655777283E0,-3.148402863E0,2.519847283E1
1.303384279E1,1.556268723E1,-2.148931274E0,-3.011287994E0,1.599634317E1
1.304391179E1,1.300061508E1,-9.506730652E-1,-1.106199646E-1,1.303579720E1
1.305398179E1,1.237895782E1,-7.466473389E-1,-4.255650330E-1,1.240875436E1
1.306405079E1,1.214963470E1,-8.801696777E-1,-1.765428772E0,1.230873921E1
1.307411979E1,1.062415695E1,-9.119036865E-1,-2.275418243E0,1.090329342E1
1.308418879E1,7.545658722E0,-9.797126770E-1,-2.191891937E0,7.918408473E0
1.309425779E1,4.090693359E0,-1.161883850E0,-2.038161621E0,4.715702390E0
1.310432679E1,1.091081085E0,-1.318009186E0,-1.938019867E0,2.585251855E0
1.311439679E1,-6.129753113E-1,-1.250499573E0,-1.362616425E0,1.948386880E0
1.312446579E1,-1.371298370E0,-8.340655518E-1,-8.243357849E-1,1.804343108E0
1.313453479E1,-1.805395660E0,-3.249742126E-1,-5.809419250E-1,1.924202497E0
1.314460379E1,-1.887275391E0,1.541793823E-1,-6.427633667E-1,1.999681081E0
1.315467279E1,-1.652713165E0,8.542735291E-1,-9.141490173E-1,2.072899538E0
1.316474179E1,-1.327140198E0,1.380878448E0,-1.353036346E0,2.344959221E0
1.317481179E1,-1.266067200E0,1.456171875E0,-1.612147522E0,2.514434791E0
1.318488079E1,-1.290616150E0,1.570683746E0,-1.698667603E0,2.649190273E0
1.319494979E1,-1.251547394E0,1.817670135E0,-1.657802582E0,2.760182059E0
1.320501879E1,-1.072968750E0,1.658700714E0,-1.407672729E0,2.425714845E0
1.321508779E1,-1.027014313E0,1.661095734E0,-1.028211823E0,2.207083367E0
1.322515779E1,-9.008267212E-1,1.727108459E0,-2.924917603E-1,1.969757305E0
1.323522679E1,-1.194815369E0,2.077829132E0,6.875202942E-1,2.493519966E0
1.324529579E1,-1.647623749E0,1.951940918E0,1.511407013E0,2.968010870E0
1.325536479E1,-1.743574219E0,1.402733002E0,2.275867310E0,3.191752331E0
1.326543379E1,-2.007625122E0,1.191971283E0,2.811004486E0,3.654189430E0
1.327550279E1,-2.310595093E0,1.283431091E0,3.010090485E0,4.005831970E0
1.328557279E1,-2.379900970E0,1.097966766E0,2.718347168E0,3.776092024E0
1.329564179E1,-2.148033142E0,5.908213806E-1,2.353705444E0,3.240840262E0
1.330571079E1,-1.918560333E0,1.466949463E-2,1.606010284E0,2.502070738E0
1.331577979E1,-1.621428223E0,-5.483097839E-1,8.641529846E-1,1.917402796E0
1.332584879E1,-1.290765839E0,-9.214837646E-1,4.569996643E-1,1.650471894E0
1.333591779E1,-9.577084351E-1,-1.105451202E0,2.860551453E-1,1.490320554E0
1.334598779E1,-5.358856201E-1,-1.334025879E0,1.546284485E-1,1.445928214E0
1.335605679E1,-1.663041687E-1,-1.569037170E0,-4.864883423E-2,1.578575759E0
1.336612579E1,-5.733078003E-2,-1.553170166E0,-1.299298096E-1,1.559649364E0
1.337619479E1,6.316864014E-2,-1.482367401E0,-2.378553772E-1,1.502657170E0
1.338626379E1,1.749861145E-1,-1.124162292E0,-4.032614136E-1,1.207054584E0
1.339633379E1,5.304968262E-1,-4.520599365E-1,-6.646179199E-1,9.630690776E-1
1.340640279E1,7.822732544E-1,-5.987548828E-4,-1.037342834E0,1.299242841E0
1.341647179E1,7.729925537E-1,8.726852417E-2,-1.257684631E0,1.478818419E0
1.342654079E1,7.261399841E-1,8.382568359E-2,-1.351389771E0,1.536411512E0
1.343660979E1,6.649172974E-1,9.400451660E-2,-1.649569702E0,1.781019950E0
1.344667879E1,6.587800598E-1,5.224136353E-2,-1.745370483E0,1.866290023E0
1.345674879E1,7.658074951E-1,5.927673340E-2,-1.688788147E0,1.855257464E0
1.346681779E1,1.132395172E0,1.606159973E-1,-2.076481934E0,2.370631465E0
1.347688679E1,2.258802795E0,3.562591553E-1,-3.520828400E0,4.198254789E0
1.348695579E1,3.968397675E0,4.363426208E-1,-5.585185547E0,6.865338490E0
1.349702479E1,2.168241119E1,-1.178648987E0,-1.529908539E1,2.656272167E1
1.350709379E1,6.645745102E1,-1.163964523E1,-1.830079330E1,6.990703236E1
1.351716379E1,7.950761307E1,-1.411399979E1,-7.792645111E0,8.112577176E1
1.352723279E1,7.531288605E1,-1.386132523E1,-1.555220901E1,7.814114375E1
1.353730179E1,6.189044815E1,-6.678661652E0,-8.411158905E0,6.281544148E1
1.354737079E1,3.864049667E1,-6.289920044E-1,1.122665405E-1,3.864577878E1
1.355743979E1,2.658351929E1,5.846841431E-1,2.726580048E0,2.672937695E1
1.356750879E1,2.356100464E1,7.104226685E-1,2.436483307E0,2.369730134E1
1.357757879E1,2.394360901E1,1.181343384E0,9.663903809E-1,2.399220488E1
1.358764779E1,2.339155701E1,1.499880981E0,2.349813538E0,2.355708398E1
1.359771679E1,2.186233704E1,5.902226257E-1,6.492897949E0,2.281376486E1
1.360778579E1,2.618504791E1,1.730401611E-1,-6.340814209E0,2.694239414E1
1.361785479E1,2.311193848E1,-2.015858002E0,-3.959865417E0,2.353520592E1
1.362792479E1,1.829181198E1,-1.382525024E0,-8.206235046E0,2.009587158E1
1.363799379E1,1.275991562E1,-3.466940460E0,-4.274511108E0,1.389627893E1
1.364806279E1,8.916957092E0,-4.053570557E-1,-7.971822510E0,1.196772294E1
1.365813179E1,5.604345703E0,1.767823792E0,-9.521100769E0,1.118862152E1
1.366820079E1,4.336631927E0,1.832788696E0,-8.011040955E0,9.292054028E0
1.367826979E1,4.023632812E0,1.745819550E0,-5.757626953E0,7.237939972E0
1.368833979E1,2.042951660E0,1.480870514E0,-2.857108612E0,3.811784174E0
1.369840879E1,-6.048921204E-1,1.305884399E0,-5.095404053E-1,1.526715418E0
1.370847779E1,-1.678609314E0,9.961784363E-1,1.002615051E0,2.194387761E0
1.371854679E1,-2.133962402E0,5.903723145E-1,2.504142609E0,3.342613530E0
1.372861579E1,-2.287992096E0,3.112028503E-1,3.618425446E0,4.292406988E0
1.373868479E1,-2.112556915E0,2.406994629E-1,3.465593262E0,4.065854106E0
1.374875479E1,-2.109413452E0,4.790039062E-3,3.152743835E0,3.793341765E0
1.375882379E1,-2.572250977E0,-6.056405640E-1,3.300935669E0,4.228410088E0
1.376889279E1,-3.256328430E0,-1.374441833E0,4.080963593E0,5.398798852E0
1.377896179E1,-3.922293549E0,-1.676214294E0,4.692591705E0,6.341490200E0
1.378903079E1,-5.017565918E0,-1.404678955E0,4.431534576E0,6.840145423E0
1.379909979E1,-1.001956421E1,-1.547481995E0,2.620151367E0,1.047146411E1
1.380916979E1,-7.990234222E0,-1.754651184E0,8.336164856E-1,8.222989733E0
1.381923879E1,-6.747967529E0,-2.135010223E0,1.153201904E0,7.170997773E0
1.382930779E1,-4.292623444E0,-2.011816406E0,1.742526398E0,5.050784051E0
1.383937679E1,-2.734214172E0,-1.740879822E0,2.064357147E0,3.842936394E0
1.384944579E1,-1.391805725E0,-1.426383820E0,2.281256104E0,3.029162159E0
1.385951579E1,-6.387217712E-1,-1.113684082E0,2.399959259E0,2.721775557E0
1.386958479E1,-1.076261902E-1,-5.748046875E-1,1.945504303E0,2.031494725E0
1.387965379E1,1.024319916E0,-3.293151855E-3,1.087937622E0,1.494272533E0
1.388972279E1,1.547481995E0,2.481838989E-1,2.538720703E-1,1.587685989E0
1.389979179E1,1.979783020E0,9.954299927E-2,-6.029461670E-1,2.071954077E0
1.390986079E1,1.815724182E0,4.790039062E-3,-1.591939545E0,2.414777167E0
1.391993079E1,1.689686279E0,1.237925720E-1,-2.741848297E0,3.223056997E0
1.392999979E1,1.718725891E0,3.255729675E-1,-4.167333984E0,4.519589471E0
1.394006879E1,1.769021301E0,4.177812195E-1,-5.530698853E0,5.821735764E0
1.395013779E1,2.120939484E0,2.465373230E-1,-6.334527283E0,6.684713968E0
1.396020767E1,2.495161285E0,-1.460961914E-1,-6.846462708E0,7.288430938E0
1.397027667E1,2.221979370E0,-3.944297791E-1,-6.372248840E0,6.760053436E0
1.398034667E1,1.720671844E0,-3.252735901E-1,-5.368436279E0,5.646824115E0
1.399041567E1,1.965712280E0,-2.299218750E-1,-4.764591980E0,5.159285374E0
1.400048467E1,2.697839813E0,-2.760260010E-1,-4.791236572E0,5.505495246E0
1.401055367E1,3.660637665E0,-2.832110596E-1,-5.074747009E0,6.263667761E0
1.402062267E1,4.857848053E0,-2.799179077E-1,-5.480403442E0,7.328837809E0
1.403069167E1,6.460265808E0,-3.522175598E-1,-7.241042175E0,9.710395631E0
1.404076167E1,7.545059967E0,-3.004252625E-1,-8.101452942E0,1.107482393E1
1.405083067E1,1.109268265E1,2.921923828E-1,-6.077362061E0,1.265177119E1
1.406089967E1,1.427281952E1,1.469643860E0,-6.905589752E0,1.592358000E1
1.407096867E1,3.243515076E1,2.000140686E0,-9.665550385E0,3.390372298E1
1.408103767E1,5.284595627E1,5.789959717E-1,-1.114672028E1,5.401184780E1
1.409110767E1,7.527995453E1,1.595083008E0,-2.124711639E1,7.823717658E1
1.410117667E1,7.896618896E1,2.760709076E0,-2.748374725E1,8.365785604E1
1.411124567E1,6.840520065E1,4.668192444E0,-1.209903992E1,6.962363294E1
1.412131467E1,4.144027451E1,5.367388458E0,-3.277883606E0,4.191479131E1
1.413138367E1,2.889995224E1,4.303101654E0,8.524772644E-1,2.923098768E1
1.414145267E1,2.662962341E1,3.288960571E0,4.520749054E0,2.721013188E1
1.415152267E1,2.807711334E1,1.163380737E0,4.103865967E0,2.839928633E1
1.416159167E1,2.889815598E1,7.893086243E-1,1.173409882E0,2.893273782E1
1.417166067E1,2.358929581E1,1.217867432E0,-1.627565460E0,2.367671952E1
1.418172967E1,1.853460709E1,1.929637299E0,-4.310436401E0,1.912681421E1
1.419179867E1,1.533620819E1,1.858086090E0,-5.192552032E0,1.629767966E1
1.420186767E1,1.135254227E1,1.341360626E0,-4.579277344E0,1.231459481E1
1.421193767E1,7.906857605E0,-1.037342834E-1,1.048868866E0,7.976796593E0
1.422200667E1,9.420060883E0,-1.746867371E0,7.620802460E0,1.224196564E1
1.423207567E1,9.831555176E-1,-1.735940094E0,-4.655319214E-1,2.048609956E0
1.424214467E1,-1.207389221E0,-5.951623535E-1,-3.123255157E0,3.400989523E0
1.425221367E1,-7.794291687E-1,-3.330574036E-1,-2.580783234E0,2.716409241E0
1.426228367E1,-1.001567230E0,-3.763174438E-1,-2.459086304E0,2.681763820E0
1.427235267E1,-1.164278870E0,-4.712200928E-1,-2.562970276E0,2.854191706E0
1.428242167E1,-1.353635101E0,-6.045927429E-1,-2.361489258E0,2.788277584E0
1.429249067E1,-1.778451691E0,-7.982899475E-1,-1.584754486E0,2.512290596E0
1.430255967E1,-8.226742401E0,-1.429676971E0,6.389013977E0,1.051393201E1
1.431262867E1,-2.508184204E0,-7.021897888E-1,1.061143341E0,2.812487101E0
1.432269867E1,-2.839145966E0,-7.348219299E-1,4.031865692E0,4.985644797E0
1.433276767E1,-3.679049377E0,-1.432371368E0,4.594246216E0,6.057572975E0
1.434283667E1,-5.428461456E0,-2.433489532E0,7.870183868E0,9.865589653E0
1.435290567E1,-6.201753387E0,-3.372786255E0,1.227926514E1,1.416396076E1
1.436297467E1,-6.236630859E0,-3.138673096E0,6.388115845E0,9.463342820E0
1.437304367E1,-3.862567749E0,-4.343517609E0,5.951473846E0,8.318991272E0
1.438311367E1,-2.309098206E0,-4.039200439E0,4.312981110E0,6.344200562E0
1.439318267E1,-1.791773987E0,-2.546205139E0,1.543889465E0,3.475227951E0
1.440325167E1,-1.534758453E0,-1.725012817E0,-3.095562744E-1,2.329587478E0
1.441332067E1,-1.734592896E0,-1.620679779E0,-1.335971832E0,2.724011049E0
1.442338967E1,-2.129022675E0,-1.733096008E0,-1.354084167E0,3.061029770E0
1.443345967E1,-2.575993195E0,-1.673070831E0,-1.409319305E0,3.379510001E0
1.444352867E1,-2.879112854E0,-1.463506622E0,-1.421144714E0,3.528568372E0
1.445359767E1,-2.764900360E0,-1.097817078E0,-1.539847870E0,3.349777276E0
1.446366667E1,-2.650388489E0,-7.325765991E-1,-1.963167572E0,3.378646849E0
1.447373567E1,-2.480192413E0,-4.076023865E-1,-2.337688751E0,3.432533002E0
1.448380467E1,-2.299967194E0,-1.763333130E-1,-2.727328491E0,3.572011090E0
1.449387467E1,-2.048939209E0,1.002914429E-2,-2.592608643E0,3.304522967E0
1.450394367E1,-1.417552185E0,2.194436646E-1,-1.959575043E0,2.428485962E0
1.451401267E1,-7.828720093E-1,4.596940613E-1,-9.613009644E-1,1.322235515E0
1.452408167E1,-1.073268127E-1,6.765930176E-1,1.649569702E-1,7.046332083E-1
1.453415067E1,-5.774990845E-1,9.888436890E-1,2.551893311E0,2.797047819E0
1.454422067E1,-9.654922485E-1,1.282982025E0,1.675166473E0,2.320431182E0
1.455428967E1,-9.377998352E-1,1.188079376E0,6.562353516E-1,1.649741183E0
1.456435867E1,-1.726210327E0,9.708810425E-1,1.208886108E0,2.320305522E0
1.457442767E1,-1.309925995E0,5.065466309E-1,1.084195404E0,1.774253442E0
1.458449667E1,-2.359094238E-1,-2.309696960E-1,8.153544617E-1,8.796608181E-1
1.459456567E1,5.110372925E-1,-5.207670593E-1,-2.275268555E-2,7.299829649E-1
1.460463567E1,1.384620667E0,-5.960604858E-1,-4.896318054E-1,1.584992681E0
1.461470467E1,2.282303925E0,-6.385720825E-1,-8.524772644E-1,2.518611323E0
1.462477367E1,2.852917328E0,-7.222480774E-1,-1.151255951E0,3.160090162E0
1.463484267E1,3.569477234E0,-6.313870239E-1,-1.362017670E0,3.872326101E0
1.464491167E1,6.122867432E0,-4.194277954E-1,-1.235830078E0,6.260407434E0
1.465498067E1,1.027508286E1,-2.484832764E-1,-6.195616150E-1,1.029674357E1
1.466505067E1,2.083382584E1,1.378633118E-1,-1.661544800E-2,2.083428860E1
1.467511967E1,3.131982010E1,9.819580078E-2,-3.018772430E0,3.146511974E1
1.468518867E1,2.695579514E1,3.938310242E-1,-1.038989410E1,2.889151941E1
1.469525767E1,2.203986786E1,9.145980835E-1,-1.717348755E1,2.795569601E1
1.470532667E1,1.997625916E1,2.269730072E0,-2.135788605E1,2.933192631E1
1.471539667E1,2.464714600E1,3.365451508E0,-2.875819702E1,3.802422866E1
1.472546567E1,6.623201981E1,1.472428070E1,-3.991629364E1,7.871972680E1
1.473553467E1,7.990892853E1,1.126482468E1,-2.955139755E1,8.593961968E1
1.474560367E1,7.352979401E1,2.380948792E0,-6.958729248E0,7.389670789E1
1.475567267E1,4.252596680E1,-6.216572571E-1,2.598446503E0,4.260981382E1
1.476574167E1,2.269909698E1,-1.144070892E0,4.094285889E0,2.309374545E1
1.477581167E1,1.779499512E1,-8.357121277E-1,1.725761261E0,1.789800318E1
1.478588067E1,1.628912659E1,7.125183105E-2,2.216889954E-1,1.629079089E1
1.479594967E1,1.798225571E1,1.189576263E0,-3.613485718E-1,1.802518196E1
1.480601867E1,1.863355133E1,1.852697296E0,-5.749543762E-1,1.873425459E1
1.481608767E1,1.546973053E1,1.513951721E0,-6.433621216E-1,1.555694466E1
1.482615667E1,9.769883423E0,2.694396973E-1,-1.573228455E-1,9.774864210E0
1.483622667E1,4.094435577E0,-1.094374237E0,4.375401306E-1,4.260692319E0
1.484629567E1,-4.400848389E-1,-2.415077820E0,-7.484436035E-4,2.454847470E0
1.485636467E1,-3.090623016E0,-2.826871490E0,-1.534010010E0,4.460531332E0
1.486643367E1,-4.699926453E0,-2.802472229E0,-3.023263092E0,6.251662097E0
1.487650267E1,-5.422922974E0,-2.573747864E0,-4.118086395E0,7.279485367E0
1.488657267E1,-5.313949585E0,-1.891466675E0,-3.464844818E0,6.619732320E0
1.489664167E1,-4.409829712E0,-1.127605133E0,-1.041683807E0,4.669389315E0
1.490671067E1,-3.697760468E0,-7.472460938E-1,6.848258972E-1,3.834161670E0
1.491677967E1,-3.365750885E0,-5.613327026E-1,1.181792450E0,3.611094961E0
1.492684867E1,-2.936144257E0,-3.107537842E-1,1.859283600E0,3.489189951E0
1.493691767E1,-2.634970551E0,-3.435356140E-1,2.270179138E0,3.494967788E0
1.494698767E1,-2.274220734E0,-3.638932800E-1,2.526595917E0,3.418798794E0
1.495705667E1,-1.988464966E0,-3.864962769E-1,2.931054840E0,3.562927836E0
1.496712517E1,-1.756896515E0,-2.459385681E-1,3.327131195E0,3.770540165E0
1.497719417E1,-1.476230164E0,1.664538574E-1,3.721261597E0,4.006837937E0
1.498726317E1,-1.249751129E0,6.400689697E-1,4.198169861E0,4.426759125E0
1.499733317E1,-1.081950073E0,1.116977234E0,4.404889984E0,4.671328491E0
1.500740217E1,-7.806266785E-1,1.491348724E0,4.526137848E0,4.829018829E0
1.501747117E1,9.729766846E-3,1.786983948E0,4.221820679E0,4.584449383E0
1.502754017E1,7.539820862E-1,1.898801422E0,3.790118408E0,4.305686168E0
1.503760917E1,8.767268372E-1,1.724114685E0,2.834804993E0,3.431813040E0
1.504767817E1,7.171586609E-1,1.428329773E0,1.894011383E0,2.478249706E0
1.505774817E1,5.411247253E-1,1.163979492E0,1.037941589E0,1.650753455E0
1.506781717E1,5.249583435E-1,9.464817810E-1,3.140469360E-1,1.126958075E0
1.507788617E1,3.478765869E-1,8.286767578E-1,-4.957690430E-1,1.026406466E0
1.508795517E1,1.971400452E-1,6.358776855E-1,-9.645941162E-1,1.172026637E0
1.509802417E1,3.667373657E-1,3.899391174E-1,-1.454824677E0,1.550181812E0
1.510809417E1,4.334985352E-1,2.815644836E-1,-2.118394775E0,2.180549464E0
1.511816317E1,7.810757446E-1,5.752537537E-1,-2.839145966E0,3.000290988E0
1.512823217E1,1.767674103E0,1.062191162E0,-3.335214386E0,3.921297846E0
1.513830117E1,2.227368164E0,8.912466431E-1,-4.067641296E0,4.722414132E0
1.514837017E1,1.959275665E0,5.427713013E-1,-4.236639862E0,4.699199840E0
1.515843917E1,1.413360901E0,4.281097412E-2,-4.207600250E0,4.438842381E0
1.516850917E1,7.927514648E-1,-5.676196289E-1,-4.122127991E0,4.235868990E0
1.517857817E1,4.902305603E-1,-1.076261902E0,-3.935765533E0,4.109612636E0
1.518864717E1,3.697311401E-1,-1.376836853E0,-4.143533478E0,4.381923153E0
1.519871617E1,4.992118835E-1,-1.984573059E0,-4.178860016E0,4.653022003E0
1.520878517E1,1.603465576E0,-3.024161224E0,-3.873345337E0,5.169086676E0
1.521885517E1,3.378773804E0,-3.947590942E0,-2.572400665E0,5.798002401E0
1.522892417E1,5.765560455E0,-4.881049805E0,-9.138496399E-1,7.609300607E0
1.523899317E1,8.467142487E0,-5.316194916E0,6.063890076E-1,1.001609394E1
1.524906217E1,1.272518784E1,-6.009104004E0,1.774260406E0,1.418406628E1
1.525913117E1,1.851140533E1,-3.673061829E0,-7.940986633E-1,1.888899424E1
1.526920017E1,2.131582352E1,-1.345701599E0,-3.713777161E0,2.167873119E1
1.527927017E1,2.646810928E1,-1.734742584E0,-9.646689606E0,2.822461269E1
1.528933917E1,3.568130035E1,-4.409829712E0,-1.782328629E1,4.012818619E1
1.529940817E1,4.209980301E1,-6.311026154E0,-3.019191559E1,5.218979049E1
1.530947717E1,4.460229904E1,-9.871671753E0,-2.622696075E1,5.267512177E1
1.531954617E1,3.993081345E1,-1.160012741E1,-1.499267258E1,4.420195753E1
1.532961517E1,3.604175079E1,-9.831106110E0,-1.146690445E1,3.907874544E1
1.533968517E1,3.589041550E1,-9.130113831E0,-1.348321152E1,3.941164670E1
1.534975417E1,3.476086441E1,-7.410639496E0,-1.410846130E1,3.823982156E1
1.535982317E1,3.331636826E1,-6.644981689E0,-1.390817780E1,3.670931197E1
1.536989217E1,3.148821991E1,-5.924529877E0,-1.332049988E1,3.469933377E1
1.537996117E1,2.868739426E1,-4.960833893E0,-1.241518250E1,3.164985337E1
1.539003117E1,2.553255478E1,-3.822600861E0,-1.181313446E1,2.839143844E1
1.540010017E1,2.228640518E1,-3.051554260E0,-1.070768326E1,2.491285452E1
1.541016917E1,1.981549347E1,-1.387015686E0,-8.217012634E0,2.149643902E1
1.542023817E1,1.640528503E1,-8.771759033E-2,-5.062622223E0,1.716890256E1
1.543030717E1,1.252385651E1,-1.481918335E-2,-2.540367279E0,1.277891495E1
1.544037617E1,1.009291168E1,-1.328936462E0,-1.161883850E0,1.024611694E1
1.545044617E1,7.438182220E0,-5.830375671E-1,-1.357676697E-1,7.462232937E0
1.546051517E1,5.153632965E0,-1.020877075E-1,3.980223083E-1,5.169988046E0
1.547058417E1,3.006048889E0,-3.902384949E-1,9.157955933E-1,3.166590844E0
1.548065317E1,1.357377319E0,-3.722758484E-1,1.480271759E0,2.042612781E0
1.549072217E1,4.131408691E-2,-1.920506287E-1,1.900298309E0,1.910425074E0
1.550079217E1,-1.082099762E0,-5.104385376E-2,2.542762299E0,2.763907646E0
1.551086117E1,-2.235750732E0,1.212478638E-1,3.355572052E0,4.033998783E0
1.552093017E1,-3.444936218E0,3.082090759E-1,4.066443787E0,5.338402706E0
1.553099917E1,-4.678371277E0,2.945874023E-1,4.581971741E0,6.555028953E0
1.554106817E1,-5.768853607E0,6.319857788E-1,5.314997406E0,7.869452039E0
1.555113817E1,-6.332281952E0,7.640112305E-1,6.374793549E0,9.017732568E0
1.556120717E1,-6.460265808E0,4.810995483E-1,7.711214447E0,1.007121241E1
1.557127617E1,-6.254294128E0,-4.490661621E-1,8.127798157E0,1.026542539E1
1.558134517E1,-4.665647736E0,-1.303788757E0,7.443720703E0,8.881278727E0
1.559141417E1,-3.358715515E0,-1.802252197E0,6.722071381E0,7.727569252E0
1.560148317E1,-2.678230591E0,-2.192341003E0,6.015839996E0,6.940432914E0
1.561155317E1,-2.070644073E0,-1.805245972E0,5.502407684E0,6.150038229E0
1.562162217E1,-1.685345306E0,-8.309220886E-1,4.660408630E0,5.024960589E0
1.563169117E1,-3.141966248E-1,1.694476318E-1,3.463048553E0,3.481398757E0
1.564176017E1,1.626667328E0,8.807684326E-1,2.324815521E0,2.970953860E0
1.565182917E1,2.693049774E0,8.105644226E-1,1.314865723E0,3.104577852E0
1.566189817E1,3.214265900E0,6.101312256E-1,2.984793091E-1,3.285248131E0
1.567196817E1,3.622017975E0,5.469625854E-1,-8.199948120E-1,3.753741303E0
1.568203717E1,3.661835175E0,6.303392029E-1,-1.753453674E0,4.108645050E0
1.569210617E1,2.766546936E0,9.442364502E-1,-2.385738831E0,3.773210064E0
1.570217517E1,1.791624298E0,1.222058716E0,-2.681374054E0,3.448639144E0
1.571224417E1,1.610500946E0,1.142424316E0,-3.137774963E0,3.707354628E0
1.572231417E1,2.048190765E0,6.245013428E-1,-3.954776001E0,4.497259227E0
1.573238317E1,2.052531738E0,-6.301895142E-2,-3.951333160E0,4.453076652E0
1.574245217E1,1.746567993E0,-1.502874756E-1,-4.085753632E0,4.445949709E0
1.575252117E1,1.642534332E0,-7.300318909E-1,-3.929777985E0,4.321344768E0
1.576259017E1,2.091899872E0,-1.339564362E0,-3.151696014E0,4.012937268E0
1.577265917E1,2.341880035E0,-1.377884674E0,-1.742077332E0,3.227661956E0
1.578272917E1,2.212548981E0,-1.445094910E0,-9.346563721E-1,2.803079525E0
1.579279817E1,2.683769073E0,-1.666933594E0,-2.682421875E-1,3.170684140E0
1.580286717E1,3.097059631E0,-1.834135895E0,7.464976501E-1,3.676015721E0
1.581293617E1,2.957250366E0,-1.678309937E0,8.860075378E-1,3.513838831E0
1.582300517E1,3.085533600E0,-1.560504913E0,-4.837939453E-1,3.491382214E0
1.583307517E1,3.786076813E0,-2.101030884E0,-2.455643463E0,4.977840217E0
1.584314417E1,5.430407410E0,-3.692820740E0,-3.746109924E0,7.560396102E0
1.585321317E1,9.789642334E0,-4.596940613E0,-1.685494995E0,1.094576874E1
1.586328217E1,1.434257446E1,-3.212619324E0,9.506730652E-1,1.472868441E1
1.587335117E1,1.911135773E1,-3.048111420E0,-2.024839325E0,1.945854444E1
1.588342017E1,2.691537918E1,-1.919308777E0,-1.087548431E1,2.909291222E1
1.589349017E1,2.984104523E1,1.168919220E0,-2.063249451E1,3.629812918E1
1.590355917E1,3.225268021E1,9.684860229E-1,-2.349708755E1,3.991599265E1
1.591362817E1,3.339570328E1,-1.824705505E0,-1.802596481E1,3.799391997E1
1.592369717E1,3.158297287E1,-3.768413544E0,-1.294238617E1,3.433934297E1
1.593376617E1,2.727418304E1,-4.034260712E0,-1.148756149E1,2.986838444E1
1.594383617E1,2.447021393E1,-3.708987122E0,-9.154812469E0,2.638860638E1
1.595390517E1,2.697465591E1,-4.120631104E0,-8.410859528E0,2.855440807E1
1.596397429E1,2.874158157E1,-3.895199890E0,-8.945547638E0,3.035249440E1
1.597404329E1,3.003504181E1,-3.334316254E0,-1.061951660E1,3.203116505E1
1.598411229E1,3.111684219E1,-2.727777557E0,-1.145118713E1,3.326902952E1
1.599418129E1,3.055281509E1,-2.095193024E0,-1.193872330E1,3.286940002E1
1.600425129E1,2.923061462E1,-2.328108673E0,-1.141795624E1,3.146773977E1
1.601432029E1,2.676524139E1,-2.339335327E0,-1.035726196E1,2.879450489E1
1.602438929E1,2.471435623E1,-1.160386963E0,-9.050778809E0,2.634506593E1
1.603445829E1,2.174812454E1,-1.339714050E0,-7.470065918E0,2.303427098E1
1.604452729E1,1.970921448E1,-1.000519409E0,-6.069129181E0,2.064675528E1
1.605459729E1,1.801189407E1,-3.228785706E-1,-3.600612488E0,1.837109112E1
1.606466629E1,1.546119827E1,3.752696228E-1,-1.617985382E0,1.555015614E1
1.607473529E1,1.307216629E1,-4.986131287E-1,-1.081201630E0,1.312627683E1
1.608480429E1,1.049243088E1,-7.192543030E-1,-1.682501221E-1,1.051840010E1
1.609487329E1,8.289761353E0,-1.040037231E0,9.054670715E-1,8.403671301E0
1.610494329E1,5.951922913E0,3.107537842E-1,2.653082886E0,6.523864121E0
1.611501229E1,3.669469299E0,1.237626343E0,3.898942108E0,5.495313773E0
1.612508129E1,2.332599335E0,7.496411133E-1,3.204835510E0,4.034098673E0
1.613515029E1,1.309776306E-1,1.184037781E-1,1.820214844E0,1.828758232E0
1.614521929E1,-1.692680054E0,-7.770341492E-1,2.874023438E-2,1.862732894E0
1.615528829E1,-4.922513580E0,-6.680607605E-1,-2.200424194E-2,4.967688528E0
1.616535829E1,-9.949958954E0,-2.067051544E0,4.514013062E0,1.111983360E1
1.617542729E1,-1.387809036E1,-4.296515350E0,7.766748962E0,1.647373138E1
1.618549629E1,-8.222850494E0,-5.177433472E0,9.411828003E0,1.352788209E1
1.619556529E1,-2.318229218E0,-2.533481598E0,1.057805283E1,1.112150697E1
1.620563429E1,1.172062683E0,4.824467468E-1,8.122109985E0,8.220410964E0
1.621570429E1,9.831555176E-1,1.549278259E0,4.411176910E0,4.777587219E0
1.622577329E1,4.558021545E-1,1.480720825E0,1.492246857E0,2.151067281E0
1.623584229E1,6.345304871E-1,1.113384705E0,9.505233765E-1,1.595540388E0
1.624591129E1,1.124611359E0,1.144819336E0,2.676434326E-1,1.626958828E0
1.625598029E1,8.315208435E-1,1.106199646E0,-4.819976807E-2,1.384712168E0
1.626604929E1,5.650749207E-1,6.960525513E-1,-1.516346741E-1,9.092809766E-1
1.627611929E1,6.264472961E-1,1.363664246E-1,-6.126759338E-1,8.867941229E-1
1.628618829E1,1.145717468E0,-3.888912964E-1,-9.720785522E-1,1.552044352E0
1.629625729E1,7.920030212E-1,-6.463558960E-1,-6.828799438E-1,1.229377789E0
1.630632629E1,-4.246669006E-1,-1.128952332E0,-3.026705933E-1,1.243577433E0
1.631639529E1,-2.189945984E-1,-1.066831512E0,-2.183958435E-1,1.110758684E0
1.632646529E1,5.519023132E-1,-3.466790771E-1,-4.602928162E-1,7.979047703E-1
1.633653429E1,5.460644531E-1,-1.444496155E-1,-9.891430664E-1,1.139059298E0
1.634660329E1,-2.769241333E-2,-3.869453430E-1,-1.785337372E0,1.826998385E0
1.635667229E1,2.884501648E-1,-4.986131287E-1,-2.136956177E0,2.213232986E0
1.636674129E1,1.144519958E0,-3.065625000E-1,-2.095642090E0,2.407409868E0
1.637681129E1,5.010081482E-1,-2.248324585E-1,-1.800156555E0,1.882052715E0
1.638688029E1,8.893006897E-1,-3.189866638E-1,-8.484356689E-1,1.269823331E0
1.639694929E1,1.551523590E0,-2.713856506E-1,1.797761536E-1,1.585305992E0
1.640701829E1,1.828896790E0,-4.549040222E-1,8.987310791E-1,2.087946045E0
1.641708729E1,1.756148071E0,-4.703219604E-1,4.921765137E-1,1.883479895E0
1.642715629E1,3.144211578E0,-2.546205139E-1,-1.317111053E0,3.418432328E0
1.643722629E1,3.858376465E0,3.278182983E-2,-3.447929993E0,5.174588373E0
1.644729529E1,4.281696167E0,5.644761658E-1,-5.950725403E0,7.352733385E0
1.645736429E1,5.340444489E0,1.398541718E0,-8.626411285E0,1.024164235E1
1.646743329E1,8.233478394E0,1.859882355E0,-9.301806793E0,1.256076982E1
1.647750229E1,1.341645035E1,2.544708252E0,-7.321574707E0,1.549458409E1
1.648757229E1,1.782044220E1,4.290527802E0,-6.426286469E0,1.942354105E1
1.649764129E1,2.072575058E1,6.990163879E0,-9.558223572E0,2.387003909E1
1.650771029E1,2.712629059E1,1.062745010E1,-1.384216507E1,3.225498211E1
1.651777929E1,3.167458237E1,1.312021637E1,-1.916060532E1,3.927528538E1
1.652784829E1,3.263528458E1,1.324191330E1,-2.544633408E1,4.345027025E1
1.653791729E1,3.248350021E1,1.164548309E1,-2.457754074E1,4.236567681E1
1.654798729E1,3.212349884E1,9.242380371E0,-1.940938797E1,3.865313848E1
1.655805629E1,3.116309601E1,7.743846588E0,-1.701272186E1,3.633921323E1
1.656812529E1,2.917732544E1,7.132068787E0,-1.613539627E1,3.409594899E1
1.657819429E1,2.747207153E1,6.702611847E0,-1.732452347E1,3.316291352E1
1.658826329E1,2.621303970E1,6.331234131E0,-1.756133102E1,3.218086890E1
1.659833329E1,2.420212143E1,5.934409332E0,-1.588107513E1,2.954942374E1
1.660840229E1,2.185081100E1,5.457052002E0,-1.339414673E1,2.620382653E1
1.661847129E1,1.917422699E1,4.543352051E0,-1.028526169E1,2.222790221E1
1.662854029E1,1.807655960E1,4.265230408E0,-8.616831207E0,2.047447136E1
1.663860929E1,1.804228088E1,4.863985291E0,-5.265151062E0,1.941401731E1
