"Time (s)","Acceleration x (m/s^2)","Acceleration y (m/s^2)","Acceleration z (m/s^2)","Absolute acceleration (m/s^2)"
3.013458336E-3,6.158193970E-1,6.497987366E-1,-1.007764343E1,1.011733014E1
1.308245829E-2,1.094224548E-1,6.592291260E-1,-9.906549225E0,9.929062084E0
2.315145836E-2,2.017803955E-1,7.755372620E-1,-9.601184235E0,9.634568599E0
3.322045831E-2,-8.936416626E-2,1.331331482E0,-9.608818359E0,9.701021582E0
4.328945838E-2,4.565505981E-2,8.527766418E-1,-9.866432648E0,9.903322956E0
5.335845833E-2,1.384171600E0,-4.969665527E-2,-9.613009644E0,9.712278578E0
6.342745828E-2,2.033072205E0,-6.728507996E-1,-9.302255859E0,9.545578812E0
7.349645835E-2,1.911375275E0,-7.945477295E-1,-9.336684265E0,9.563385102E0
8.356545831E-2,2.504142609E0,6.661148071E-2,-9.579778748E0,9.901885080E0
9.363445838E-2,1.836530914E0,3.330574036E-1,-1.008872040E1,1.025992458E1
1.037034583E-1,1.396296387E0,2.685415649E-1,-9.189540253E0,9.298892850E0
1.137724584E-1,1.658700714E0,-3.194357300E-1,-8.656798096E0,8.820061253E0
1.238414583E-1,2.575843506E0,-1.143921204E0,-8.618777161E0,9.067901920E0
1.339104583E-1,3.277434540E0,-1.878593445E0,-8.862470398E0,9.634006023E0
1.439794584E-1,1.906136169E0,-1.346300354E0,-9.286987610E0,9.575699379E0
1.540484583E-1,7.167095947E-1,8.083190918E-2,-9.451046448E0,9.478527597E0
1.641174584E-1,9.377998352E-1,1.209634552E0,-1.035501663E1,1.046752376E1
1.741864583E-1,1.306183777E0,1.692829742E0,-1.031609756E1,1.053535275E1
1.842554583E-1,9.470805359E-1,1.309776306E0,-9.528734894E0,9.664846827E0
1.943244584E-1,1.283580780E0,9.557624817E-1,-9.420210571E0,9.555178112E0
2.043934583E-1,1.113235016E0,1.040935364E0,-9.780960388E0,9.898991097E0
2.144624584E-1,7.596702576E-1,1.287173309E0,-9.968370667E0,1.007979800E1
2.245314583E-1,7.544311523E-1,1.430724792E0,-1.022957748E1,1.035665947E1
2.346004583E-1,7.542814636E-1,1.479373627E0,-1.054048096E1,1.067048385E1
2.446694584E-1,5.602848816E-1,1.385967865E0,-1.070738388E1,1.081123932E1
2.547384583E-1,4.764591980E-1,1.266665955E0,-1.069226532E1,1.077756901E1
2.648074584E-1,7.271878052E-1,1.208437042E0,-1.080408279E1,1.089574813E1
2.748764583E-1,9.376501465E-1,1.290167084E0,-1.101274887E1,1.112763931E1
2.849454583E-1,9.526190186E-1,1.224603424E0,-1.101409607E1,1.112283457E1
2.950144584E-1,1.077908478E0,1.139879608E0,-1.076755875E1,1.088124688E1
3.050834583E-1,9.678872681E-1,8.415499878E-1,-1.041638901E1,1.049505465E1
3.151524584E-1,1.010548553E0,7.231462097E-1,-1.022837997E1,1.030358703E1
3.252214583E-1,7.071295166E-1,1.053509216E0,-1.044363235E1,1.052042635E1
3.352904583E-1,4.490661621E-2,2.205513611E0,-1.078252762E1,1.100587156E1
3.453594584E-1,3.848497009E-1,2.638563080E0,-1.138008499E1,1.168830436E1
3.554284583E-1,4.233197021E-1,2.861748962E0,-1.125629242E1,1.162208784E1
3.654974584E-1,5.713618469E-1,2.586172028E0,-1.096380066E1,1.127916952E1
3.755654583E-1,6.855743408E-1,2.178270264E0,-1.073043594E1,1.097073968E1
3.856344584E-1,2.745291138E-1,1.300645294E0,-1.076336746E1,1.084514285E1
3.957034583E-1,-2.032772827E-1,1.403930511E0,-1.043165726E1,1.052766905E1
4.057724583E-1,-3.409909058E-1,7.538323975E-1,-9.892478485E0,9.927017108E0
4.158414584E-1,-3.737727356E-1,3.092568970E-1,-9.160800018E0,9.173636294E0
4.259104583E-1,-1.347198486E-1,-1.434017944E-1,-8.634644165E0,8.636885629E0
4.359794584E-1,6.506968689E-1,-1.638043671E0,-8.211025085E0,8.398066827E0
4.460484583E-1,9.053173828E-1,-1.493144989E0,-7.520211639E0,7.720276201E0
4.561174583E-1,9.800120544E-1,-1.854792938E0,-7.799381104E0,8.076572668E0
4.661864584E-1,6.283932495E-1,-1.904040527E0,-8.390202484E0,8.626456174E0
4.762554583E-1,3.341052246E-1,-1.230890350E0,-8.922645264E0,9.013340993E0
4.863244584E-1,-1.155596924E-1,-7.412585449E-1,-9.562115479E0,9.591499919E0
4.963934583E-1,-1.392105103E-1,-2.887495422E-1,-9.588909760E0,9.594266321E0
5.064624583E-1,9.265731812E-2,2.004331970E-1,-9.663005676E0,9.665528312E0
5.165314584E-1,3.141966248E-1,5.932164001E-1,-1.016865417E1,1.019078765E1
5.266004583E-1,4.156855774E-1,4.827461243E-1,-1.029783554E1,1.031752175E1
5.366700001E-1,4.303550720E-1,1.675016785E-1,-9.709409180E0,9.720385225E0
5.467390000E-1,-1.124162292E-1,-2.595602417E-1,-9.020391998E0,9.024825801E0
5.568080000E-1,-7.020401001E-1,-7.382647705E-1,-8.302035828E0,8.364310734E0
5.668770000E-1,-1.312321014E0,-9.485774231E-1,-7.854616241E0,8.019786897E0
5.769460000E-1,-1.556613007E0,-6.706054688E-1,-7.762857056E0,7.945735046E0
5.870150001E-1,-1.484163666E0,1.556762695E-1,-8.099806366E0,8.236130163E0
5.970840000E-1,-5.321434021E-1,3.218307495E-1,-8.917256470E0,8.938915738E0
6.071530000E-1,3.611988831E-1,3.254232788E-1,-9.326804810E0,9.339467485E0
6.172220000E-1,9.855505371E-1,1.303788757E-1,-9.688303070E0,9.739174754E0
6.272910000E-1,1.587897949E0,1.589694214E-1,-1.013287857E1,1.025777360E1
6.373600001E-1,1.606758728E0,5.513035583E-1,-1.088072342E1,1.101252702E1
6.474290000E-1,9.666897583E-1,8.867559814E-1,-1.122515717E1,1.130154762E1
6.574980000E-1,4.073030090E-1,1.030756531E0,-1.084300186E1,1.089949743E1
6.675670000E-1,2.477348328E-1,1.095122681E0,-1.042327469E1,1.048357389E1
6.776360000E-1,3.821553040E-1,8.924441528E-1,-1.020712418E1,1.025318893E1
6.877050000E-1,7.994874573E-1,1.348994751E0,-1.004875351E1,1.017036942E1
6.977740000E-1,1.120270386E0,1.546583862E0,-9.323212280E0,9.516785939E0
7.078430000E-1,9.755213928E-1,1.015488281E0,-9.148824921E0,9.256557452E0
7.179120000E-1,1.092128906E0,8.812174988E-1,-8.995992737E0,9.104788583E0
7.279810000E-1,7.358697510E-1,8.936416626E-1,-8.866961060E0,8.942208796E0
7.380500000E-1,4.465214539E-1,6.990463257E-1,-8.872948608E0,8.911636448E0
7.481180000E-1,2.335144043E-1,6.536906433E-1,-8.698261871E0,8.725915426E0
7.581870001E-1,1.423539734E-1,6.292913818E-1,-8.697064362E0,8.720963296E0
7.682560000E-1,3.237767029E-1,8.750802612E-1,-9.105115814E0,9.152799070E0
7.783250000E-1,4.113446045E-1,1.297352142E0,-9.393266602E0,9.491353139E0
7.883940000E-1,3.041674805E-1,1.877845001E0,-9.709109802E0,9.893716837E0
7.984630000E-1,3.990701294E-1,2.293530579E0,-1.034259247E1,1.060135644E1
8.085320001E-1,1.547182617E0,9.358538818E-1,-1.010788055E1,1.026834192E1
8.186010000E-1,1.816023560E0,3.210823059E-1,-9.121132507E0,9.305702211E0
8.286700000E-1,2.061962128E0,1.184037781E-1,-8.826395416E0,9.064820093E0
8.387390000E-1,2.616858215E0,-4.028123474E-1,-9.029672699E0,9.409845576E0
8.488080000E-1,2.655028839E0,-4.478686523E-1,-9.570797424E0,9.942330099E0
8.588770000E-1,2.318977661E0,1.422042847E-2,-1.051907547E1,1.077166693E1
8.689460000E-1,1.823957062E0,1.190025330E-1,-1.156480087E1,1.170835600E1
8.790150000E-1,1.562151489E0,2.094145203E-1,-1.219978043E1,1.230117125E1
8.890840000E-1,1.274898834E0,4.569996643E-1,-1.236862930E1,1.244255627E1
8.991530000E-1,1.185684357E0,2.573149109E-1,-1.221235428E1,1.227247552E1
9.092220000E-1,1.214125214E0,1.204994202E-1,-1.169742508E1,1.176088320E1
9.192910000E-1,1.178050232E0,1.311273193E-1,-1.082309326E1,1.088780715E1
9.293600000E-1,1.297501831E0,-2.028282166E-1,-1.016700760E1,1.025147276E1
9.394290000E-1,1.065783691E0,-4.367916870E-1,-9.681118011E0,9.749396279E0
9.494980000E-1,5.792953491E-1,-7.634124756E-1,-9.052874451E0,9.103456351E0
9.595670000E-1,6.894662476E-1,-8.280780029E-1,-8.611592102E0,8.678743885E0
9.696360000E-1,8.921447754E-1,-8.858578491E-1,-8.575217743E0,8.666892509E0
9.797050001E-1,1.331331482E0,-9.515711975E-1,-8.721912689E0,8.874102333E0
9.897740000E-1,1.990261230E0,-8.978329468E-1,-8.912765808E0,9.176308523E0
9.998430000E-1,2.446512451E0,-8.168513489E-1,-9.350755005E0,9.699963323E0
1.009912000E0,2.478246460E0,-7.653584290E-1,-9.705666962E0,1.004626549E1
1.019981000E0,1.964664459E0,-4.421804810E-1,-9.772278442E0,9.977617750E0
1.030050000E0,1.301094360E0,-2.918930054E-1,-9.842183075E0,9.932100268E0
1.040119000E0,9.840536499E-1,-2.525248718E-1,-9.674531708E0,9.727728109E0
1.050188000E0,8.322692871E-1,-2.097138977E-1,-9.588161316E0,9.626499338E0
1.060257000E0,9.788145447E-1,-1.694476318E-1,-9.636211395E0,9.687278280E0
1.070326000E0,1.401685181E0,-1.592687988E-1,-9.665550385E0,9.767955371E0
1.080395000E0,1.622326355E0,-1.538800049E-1,-9.864636383E0,9.998333503E0
1.090464000E0,1.426234131E0,-2.522254944E-1,-1.010294083E1,1.020623216E1
1.100533000E0,1.397044830E0,-3.367996216E-1,-1.000953506E1,1.011216893E1
1.110602000E0,1.567091217E0,-8.891510010E-2,-9.823322296E0,9.947931529E0
1.120670000E0,1.513053589E0,6.780899048E-2,-1.006970993E1,1.018297537E1
1.130739000E0,1.439855804E0,2.568658447E-1,-1.033989807E1,1.044282801E1
1.140808000E0,1.246308289E0,4.444258118E-1,-1.042072998E1,1.050439965E1
1.150877000E0,1.031954041E0,1.561253357E-1,-1.004471191E1,1.009878912E1
1.160946000E0,8.970845032E-1,5.089416504E-3,-9.234895935E0,9.278366744E0
1.171015000E0,9.336085510E-1,-1.154100037E-1,-8.734785919E0,8.785296207E0
1.181084000E0,1.150058441E0,-7.080276489E-2,-8.997489624E0,9.070968360E0
1.191153000E0,1.173709259E0,-4.535568237E-2,-9.332792358E0,9.406416096E0
1.201222000E0,9.451345825E-1,-1.336720276E-1,-9.403894501E0,9.452215580E0
1.211291000E0,7.375163269E-1,-1.643582153E-1,-9.206754456E0,9.237709216E0
1.221360000E0,6.819818115E-1,-2.324665833E-1,-1.009994705E1,1.012561457E1
1.231429000E0,6.795867920E-1,-7.005432129E-2,-1.109163483E1,1.111265535E1
1.241498000E0,7.276368713E-1,-5.403762817E-2,-9.944420471E0,9.971152089E0
1.251567000E0,8.541238403E-1,7.050338745E-2,-9.250014496E0,9.289632201E0
1.261636000E0,1.024319916E0,3.086581421E-1,-9.126371613E0,9.188860645E0
1.271705000E0,2.042203217E0,4.480183411E-1,-8.529412994E0,8.781924643E0
1.281774000E0,2.493963776E0,5.096900940E-1,-8.942703552E0,9.297934509E0
1.291843000E0,1.730700989E0,2.905458069E-1,-9.885293427E0,1.003985901E1
1.301912000E0,9.886940002E-1,2.409988403E-2,-1.028960266E1,1.033702179E1
1.311981000E0,6.174659729E-1,5.059478760E-2,-1.026505371E1,1.028373238E1
1.322050000E0,4.546046448E-1,-3.727249146E-2,-1.018032990E1,1.019054323E1
1.332119000E0,6.487509155E-1,-3.682342529E-2,-1.009201355E1,1.011291111E1
1.342188000E0,6.605763245E-1,5.942642212E-2,-1.035860916E1,1.037982063E1
1.352257000E0,5.522016907E-1,1.306782532E-1,-1.052626053E1,1.054154468E1
1.362326000E0,5.373825073E-1,1.682501221E-1,-1.008333160E1,1.009904274E1
1.372395000E0,5.611830139E-1,1.437011719E-1,-9.717941437E0,9.735191943E0
1.382464000E0,5.295986938E-1,1.465452576E-1,-9.655970306E0,9.671593087E0
1.392533000E0,5.002597046E-1,1.091230774E-1,-9.518256683E0,9.532018564E0
1.402602000E0,4.421804810E-1,4.326004028E-2,-9.350006561E0,9.360556485E0
1.412671000E0,3.372486877E-1,-9.430389404E-3,-9.163494415E0,9.169703131E0
1.422740000E0,3.676354980E-1,-3.532653809E-2,-8.993148651E0,9.000729220E0
1.432809000E0,4.629872131E-1,-4.730163574E-2,-8.919801178E0,8.931934150E0
1.442878000E0,6.110293579E-1,-7.394622803E-2,-8.950637054E0,8.971773994E0
1.452947000E0,7.262896729E-1,-6.586303711E-2,-8.947044525E0,8.976716569E0
1.463016000E0,8.032296753E-1,2.874023438E-2,-9.001980286E0,9.037790271E0
1.473084000E0,9.178912354E-1,1.116677856E-1,-9.132658539E0,9.179348888E0
1.483153000E0,1.036893768E0,1.257385254E-1,-9.368867340E0,9.426910104E0
1.493222000E0,1.091380463E0,8.337661743E-2,-9.589807892E0,9.652071196E0
1.503291000E0,1.032552795E0,3.457809448E-2,-9.670789490E0,9.725817718E0
1.513360000E0,9.349557495E-1,7.289840698E-2,-9.676327972E0,9.721665467E0
1.523429000E0,8.973838806E-1,1.830693054E-1,-9.751022644E0,9.793939698E0
1.533498000E0,7.746391296E-1,2.128573608E-1,-9.829758911E0,9.862531840E0
1.543566708E0,7.885601807E-1,1.689985657E-1,-9.770482178E0,9.803708975E0
1.553635708E0,8.415499878E-1,1.206491089E-1,-9.625284119E0,9.662756178E0
1.563704708E0,8.722361755E-1,9.430389404E-3,-9.468859406E0,9.508952798E0
1.573773708E0,8.306227112E-1,-3.996688843E-2,-9.332942047E0,9.369916686E0
1.583842708E0,7.685018921E-1,-3.996688843E-2,-9.178163910E0,9.210368357E0
1.593911708E0,7.292834473E-1,-5.418731689E-2,-8.854686584E0,8.884833432E0
1.603980708E0,5.917195129E-1,-2.380050659E-2,-8.401878204E0,8.422722589E0
1.614049708E0,4.629872131E-1,-5.897735596E-2,-7.995922394E0,8.009532472E0
1.624118708E0,4.745132446E-1,-7.364685059E-2,-7.617808685E0,7.632928392E0
1.634187708E0,5.716612244E-1,-7.185058594E-2,-7.252867584E0,7.275716271E0
1.644256708E0,6.688092041E-1,-1.131646729E-1,-6.835535431E0,6.869108867E0
1.654325708E0,6.798861694E-1,-1.848655701E-1,-6.483766937E0,6.521936383E0
1.664394708E0,6.750961304E-1,-2.321672058E-1,-6.247258759E0,6.287916856E0
1.674463708E0,8.035290527E-1,-2.448907471E-1,-5.893694000E0,5.953256200E0
1.684532708E0,9.086105347E-1,-1.965412903E-1,-5.620811462E0,5.697167988E0
1.694601708E0,8.041278076E-1,-2.106120300E-1,-5.610632629E0,5.671876009E0
1.704670708E0,6.765930176E-1,-2.875520325E-1,-5.580545197E0,5.628760874E0
1.714739708E0,6.623725891E-1,-3.324586487E-1,-5.465733948E0,5.515751425E0
1.724808708E0,8.102650452E-1,-2.776725769E-1,-5.585335236E0,5.650628390E0
1.734877708E0,9.858499146E-1,-2.583627319E-1,-5.901777191E0,5.989125593E0
1.744946708E0,1.241967316E0,-1.704954529E-1,-6.264323273E0,6.388528593E0
1.755015708E0,1.631756744E0,-1.190025330E-1,-6.685397644E0,6.882683585E0
1.765084708E0,1.967508545E0,-1.640588379E-1,-7.334298248E0,7.595389126E0
1.775153708E0,1.934876404E0,-1.752854919E-1,-8.244705048E0,8.470515511E0
1.785222708E0,1.702409821E0,-1.730401611E-1,-9.239236908E0,9.396363165E0
1.795290708E0,1.577868805E0,-2.164498901E-1,-1.055889267E1,1.067833016E1
1.805359708E0,2.037562866E0,-3.438349915E-1,-1.224363922E1,1.241678647E1
1.815429708E0,2.928510132E0,-4.318519592E-1,-1.441861633E1,1.471934661E1
1.825497708E0,3.946393433E0,-7.243437195E-1,-1.679073349E1,1.726347086E1
1.835566708E0,4.886288910E0,-1.139879608E0,-1.901555695E1,1.966638123E1
1.845635708E0,5.566923523E0,-1.250499573E0,-2.107452530E1,2.183323163E1
1.855704708E0,5.896837463E0,-1.067430267E0,-2.282288956E1,2.359653337E1
1.865773708E0,5.736221466E0,-8.449928284E-1,-2.384511383E1,2.453992060E1
1.875842708E0,5.098547516E0,-4.406835938E-1,-2.394780029E1,2.448849786E1
1.885911708E0,4.234843597E0,-3.266207886E-1,-2.344125366E1,2.382295017E1
1.895980708E0,3.420536957E0,-4.188290405E-1,-2.252949966E1,2.279153014E1
1.906049708E0,2.650388489E0,-6.041436768E-1,-2.151925049E1,2.169026718E1
1.916118708E0,2.158960419E0,-9.297166443E-1,-2.056229050E1,2.069621399E1
1.926187708E0,1.589095459E0,-1.113684082E0,-1.970936417E1,1.980465987E1
1.936256708E0,7.812254333E-1,-1.194515991E0,-1.877500717E1,1.882918150E1
1.946325708E0,-1.672023010E-1,-1.043480072E0,-1.801743256E1,1.804839836E1
1.956394708E0,-1.211730194E0,-8.237370300E-1,-1.788076675E1,1.794069822E1
1.966463708E0,-2.007026367E0,-3.709286499E-1,-1.808928314E1,1.820406294E1
1.976532708E0,-2.094893646E0,1.556762695E-1,-1.809167816E1,1.821322687E1
1.986601708E0,-1.644480286E0,5.478607178E-2,-1.770877441E1,1.778505013E1
1.996670708E0,-6.077362061E-2,7.424560547E-2,-1.699565735E1,1.699592818E1
2.006739708E0,1.684746552E0,3.884422302E-1,-1.651785095E1,1.660809015E1
2.016808708E0,2.569107513E0,6.538403320E-1,-1.616219055E1,1.637816302E1
2.026877708E0,2.815495148E0,8.674461365E-1,-1.525148438E1,1.553342368E1
2.036946708E0,2.877166901E0,8.698411560E-1,-1.370714584E1,1.403283864E1
2.047015708E0,2.806513824E0,7.351213074E-1,-1.198647400E1,1.233257808E1
2.057084708E0,2.597248993E0,9.467811584E-1,-1.019589752E1,1.056401549E1
2.067153708E0,2.517913971E0,1.059047699E0,-8.567284241E0,8.992209520E0
2.077222708E0,2.396067352E0,9.818083191E-1,-7.060517578E0,7.520371986E0
2.087291708E0,1.942360840E0,8.707392883E-1,-5.558540955E0,5.952170200E0
2.097360708E0,9.987231445E-1,6.081852722E-1,-4.210144958E0,4.369514597E0
2.107429708E0,-8.232879639E-3,3.668870544E-1,-2.606529694E0,2.632236869E0
2.117498708E0,-6.562353516E-1,1.064286804E-1,-9.234297180E-1,1.137846363E0
2.127567708E0,-8.749305725E-1,-1.938468933E-1,6.423143005E-1,1.102564187E0
2.137635708E0,-1.230291595E0,-1.905537415E-1,1.562001801E0,1.997442806E0
2.147704708E0,-1.934427338E0,6.735992432E-3,1.960323486E0,2.754073831E0
2.157773708E0,-2.939886475E0,-4.984634399E-2,2.173929291E0,3.656690540E0
2.167842708E0,-3.776347046E0,2.799179077E-1,2.427501984E0,4.497990321E0
2.177911708E0,-4.490212555E0,5.219645691E-1,2.468666382E0,5.150608654E0
2.187980708E0,-5.011877747E0,5.174739075E-1,2.245031433E0,5.516055106E0
2.198049708E0,-5.240901489E0,3.501219177E-1,2.002535706E0,5.621368430E0
2.208118708E0,-4.766388245E0,3.849993896E-1,1.574276276E0,5.034384493E0
2.218187708E0,-3.860472107E0,3.376977539E-1,7.556286621E-1,3.948196973E0
2.228256708E0,-2.730322266E0,2.197430420E-1,-1.666035461E-1,2.744212714E0
2.238325708E0,-1.508113861E0,2.029779053E-1,-1.050814819E0,1.849275326E0
2.248394708E0,-2.139051819E-1,2.670446777E-1,-1.940115509E0,1.970054942E0
2.258463708E0,8.601113892E-1,1.815724182E-1,-2.669249268E0,2.810276107E0
2.268532708E0,1.504072266E0,6.346801758E-2,-2.965632935E0,3.325844295E0
2.278601708E0,1.894460449E0,1.028361511E-1,-2.833757172E0,3.410239783E0
2.288670708E0,2.099533997E0,5.882766724E-2,-2.508932648E0,3.272040148E0
2.298739708E0,2.255359955E0,-1.675016785E-1,-2.154918823E0,3.123840661E0
2.308808708E0,2.446811829E0,-3.314108276E-1,-1.696721649E0,2.995928173E0
2.318877708E0,2.557581482E0,-3.838018799E-1,-1.179846497E0,2.842633405E0
2.328946708E0,2.568059692E0,-5.384303284E-1,-8.226892090E-1,2.749846421E0
2.339015708E0,2.534978485E0,-7.466473389E-1,-7.322772217E-1,2.742230497E0
2.349084708E0,2.300266571E0,-8.975335693E-1,-6.839277649E-1,2.562137778E0
2.359153708E0,1.988464966E0,-9.592053223E-1,-6.149212646E-1,2.291766989E0
2.369222708E0,1.843416595E0,-1.053808594E0,-8.039781189E-1,2.270479710E0
2.379291708E0,1.746418304E0,-1.191222839E0,-1.323697357E0,2.494226020E0
2.389360708E0,1.432221680E0,-1.092577972E0,-1.914069672E0,2.628430763E0
2.399429708E0,1.140178986E0,-8.786727905E-1,-2.490970001E0,2.876978543E0
2.409498708E0,9.419911194E-1,-6.664141846E-1,-3.241658936E0,3.440902177E0
2.419567708E0,6.399192810E-1,-6.491999817E-1,-4.296964417E0,4.392591547E0
2.429636708E0,3.706292725E-1,-6.637197876E-1,-5.856571198E0,5.905702008E0
2.439705708E0,-4.153862000E-1,-3.366499329E-1,-7.793842621E0,7.812161140E0
2.449774708E0,-1.927092590E0,1.190025330E-1,-1.003198837E1,1.021609701E1
2.459842708E0,-3.480412445E0,3.706292725E-1,-1.264315842E1,1.311869245E1
2.469911708E0,-3.358865204E0,1.423539734E-1,-1.579216003E1,1.614603848E1
2.479980708E0,-5.751040649E-1,-3.092568970E-1,-1.913905014E1,1.915018602E1
2.490049708E0,3.067421265E0,-9.752220154E-1,-2.213312393E1,2.236594076E1
2.500118708E0,5.788013763E0,-1.448088684E0,-2.419239166E1,2.491726065E1
2.510187708E0,7.113657074E0,-1.450932770E0,-2.511686920E1,2.614510358E1
2.520256708E0,6.749314728E0,-1.072968750E0,-2.535771835E1,2.626249020E1
2.530325708E0,4.474944305E0,-5.077441406E-1,-2.457305008E1,2.498234819E1
2.540394625E0,2.209704895E0,-4.596940613E-1,-2.310400497E1,2.321398631E1
2.550463625E0,1.070723419E0,-8.866062927E-1,-2.201861206E1,2.206245219E1
2.560532625E0,2.339634705E-1,-1.020877075E0,-2.086406296E1,2.089033394E1
2.570601625E0,-7.541317749E-1,-8.158035278E-1,-1.974738510E1,1.977861139E1
2.580670625E0,-2.052382050E0,-3.375480652E-1,-1.894280823E1,1.905665748E1
2.590739625E0,-3.436703339E0,-8.352630615E-2,-1.849583771E1,1.881260001E1
2.600808625E0,-4.240531769E0,1.197509766E-3,-1.863340164E1,1.910983432E1
2.610877625E0,-4.308490448E0,1.800755310E-1,-1.924622726E1,1.972340693E1
2.620946625E0,-3.547622681E0,5.766009521E-1,-2.008687912E1,2.040590131E1
2.631015625E0,-2.854563904E0,5.438191223E-1,-2.065869003E1,2.086206481E1
2.641084625E0,-1.608255615E0,3.526666260E-1,-2.069955505E1,2.076493292E1
2.651153625E0,-3.784130859E-1,8.412506104E-2,-2.056393707E1,2.056759056E1
2.661222625E0,3.379971313E-1,-1.612147522E-1,-2.049253555E1,2.049595681E1
2.671291625E0,7.997868347E-1,-2.758763123E-1,-2.031290909E1,2.033051997E1
2.681360625E0,5.084925842E-1,-2.401007080E-1,-2.014974838E1,2.015759343E1
2.691429625E0,-2.884501648E-1,-3.523672485E-1,-1.970412506E1,1.970938636E1
2.701498625E0,-8.357121277E-1,-3.426374817E-1,-1.894325729E1,1.896477820E1
2.711567625E0,-1.170865173E0,-5.906716919E-1,-1.820274719E1,1.824992668E1
2.721636625E0,-9.830058289E-1,-5.683680725E-1,-1.755249939E1,1.758918922E1
2.731705625E0,-6.520440674E-1,-6.855743408E-1,-1.665870804E1,1.668555445E1
2.741774625E0,1.758842468E-1,-3.143463135E-1,-1.516316803E1,1.516744585E1
2.751843625E0,1.199755096E0,3.189866638E-1,-1.318009186E1,1.323842839E1
2.761911625E0,2.046095123E0,8.530760193E-1,-1.104163879E1,1.126197279E1
2.771980625E0,2.561623077E0,1.301842804E0,-8.627159729E0,9.093106865E0
2.782049625E0,2.594255219E0,1.711690521E0,-5.983058167E0,6.742182851E0
2.792118625E0,2.178270264E0,2.001936951E0,-3.378175049E0,4.490509944E0
2.802187625E0,1.360969849E0,1.702709198E0,-1.006806335E0,2.401065709E0
2.812256625E0,5.682183838E-1,1.437311096E0,9.060658264E-1,1.791560940E0
2.822325625E0,1.989363098E-1,1.036444702E0,2.196083221E0,2.436508730E0
2.832394625E0,5.927673340E-2,1.502874756E-1,2.918031921E0,2.922500702E0
2.842463625E0,-5.164260864E-2,-1.157393188E0,2.766696625E0,2.999472648E0
2.852532625E0,8.222401428E-1,-2.055076447E0,2.379152527E0,3.249582250E0
2.862601625E0,2.145937500E0,-2.096091156E0,1.224004669E0,3.239881683E0
2.872670625E0,3.439547424E0,-1.571282501E0,-6.625222778E-1,3.839055997E0
2.882739625E0,3.582500153E0,-6.520440674E-1,-2.383343811E0,4.351987653E0
2.892808625E0,2.568957825E0,3.764671326E-1,-3.413651276E0,4.288856122E0
2.902877625E0,1.583407288E0,1.179696808E0,-4.050127716E0,4.505818207E0
2.912946625E0,-5.059478760E-2,1.227746887E0,-4.110302582E0,4.290047735E0
2.923015625E0,-7.640112305E-1,9.675878906E-1,-3.535946960E0,3.744710989E0
2.933084625E0,-1.103056183E0,1.634600830E-1,-2.437531128E0,2.680486922E0
2.943153625E0,-1.924248505E0,-1.177451477E0,-1.575174408E0,2.751417581E0
2.953222625E0,-2.310146027E0,-1.872156830E0,-1.347198486E0,3.264458549E0
2.963291625E0,-2.088457031E0,-2.106569366E0,-2.012265472E0,3.584480381E0
2.973360625E0,-1.367107086E0,-2.196681976E0,-3.389701080E0,4.264324906E0
2.983429625E0,-2.354603577E-1,-2.079924774E0,-4.871170349E0,5.301870351E0
2.993498625E0,7.225474548E-1,-1.467997284E0,-6.059698792E0,6.276706166E0
3.003567625E0,1.121916962E0,-5.897735596E-1,-6.839726715E0,6.956176540E0
3.013636625E0,8.669970703E-1,-3.126997375E-1,-7.526648254E0,7.582868784E0
3.023705625E0,5.405259705E-1,-2.924917603E-1,-7.407795410E0,7.433246437E0
3.033774625E0,3.739224243E-1,-4.114942932E-1,-6.545139313E0,6.568713280E0
3.043843625E0,3.564088440E-1,-7.943980408E-1,-5.638175354E0,5.705008049E0
3.053912625E0,7.753875732E-1,-1.054407349E0,-4.714296570E0,4.892605941E0
3.063981625E0,1.361418915E0,-1.275647278E0,-4.134851532E0,4.536268801E0
3.074049625E0,2.209555206E0,-1.251697083E0,-3.984414368E0,4.724874353E0
3.084118625E0,2.744692383E0,-8.271798706E-1,-4.254752197E0,5.130348826E0
3.094187625E0,2.099384308E0,-6.026467896E-1,-4.527185669E0,5.026530384E0
3.104256625E0,1.228345642E0,-2.963836670E-1,-4.741090851E0,4.906589320E0
3.114325625E0,3.399430847E-1,-2.552192688E-1,-4.689298553E0,4.708526213E0
3.124394625E0,-4.577481079E-1,-3.192860413E-1,-4.316124573E0,4.352057931E0
3.134463625E0,-7.469467163E-1,-5.107379150E-1,-3.873794403E0,3.978073113E0
3.144532625E0,-3.912863159E-1,-7.604187012E-1,-4.061204681E0,4.150268069E0
3.154601625E0,7.490423584E-1,-1.059496765E0,-5.306764526E0,5.463089564E0
3.164670625E0,1.781295776E0,-1.050365753E0,-6.755152588E0,7.064585575E0
3.174739625E0,1.981728973E0,-9.324110413E-1,-8.411458282E0,8.691908335E0
3.184808625E0,1.892364807E0,-9.843530273E-1,-1.017853363E1,1.039964145E1
3.194877625E0,1.813628540E0,-8.577163696E-1,-1.169547913E1,1.186630346E1
3.204946625E0,1.117426300E0,-6.444099426E-1,-1.289523422E1,1.295958994E1
3.215015625E0,-1.898052979E-1,-1.561253357E-1,-1.365490448E1,1.365711600E1
3.225084625E0,-1.547931061E0,3.835025024E-1,-1.505419464E1,1.513842598E1
3.235153625E0,-2.800975342E0,2.240840149E-1,-1.708517120E1,1.731469756E1
3.245222625E0,-3.241209869E0,-5.972579956E-2,-1.944381638E1,1.971220444E1
3.255291625E0,-2.023941193E0,-7.482939148E-1,-2.207070374E1,2.217593843E1
3.265360625E0,-7.738906860E-2,-1.586700439E0,-2.392564636E1,2.397832691E1
3.275429625E0,2.203417969E0,-2.335293732E0,-2.484967484E1,2.505623649E1
3.285498625E0,4.204606476E0,-3.035687256E0,-2.541055847E1,2.593435163E1
3.295567625E0,5.890550537E0,-3.636837158E0,-2.542447952E1,2.635012958E1
3.305636625E0,7.345524902E0,-3.776796112E0,-2.486224869E1,2.619832695E1
3.315705625E0,7.002887421E0,-2.846630402E0,-2.420706116E1,2.535992009E1
3.325774625E0,4.763095093E0,-1.539099426E0,-2.315609665E1,2.369094160E1
3.335843625E0,2.097438354E0,-4.474195862E-1,-2.169169189E1,2.179745236E1
3.345912625E0,-3.529660034E-1,8.015830994E-1,-2.044523392E1,2.046398569E1
3.355980625E0,-2.260000305E0,1.840722198E0,-1.981190094E1,2.002516613E1
3.366049625E0,-3.247796173E0,2.705923004E0,-1.980830841E1,2.025436450E1
3.376118625E0,-2.845432892E0,3.372486877E0,-2.032817734E1,2.080156124E1
3.386187625E0,-1.636846161E0,3.241060181E0,-2.084595062E1,2.115980609E1
3.396256625E0,-6.107299805E-2,2.730921021E0,-2.128274231E1,2.145732462E1
3.406325625E0,8.843609619E-1,1.996548157E0,-2.100013000E1,2.111335499E1
3.416394625E0,1.071172485E0,1.361568604E0,-2.013462982E1,2.020902268E1
3.426463625E0,6.053411865E-1,1.163979492E0,-1.896032181E1,1.900565940E1
3.436532625E0,2.354603577E-1,7.628137207E-1,-1.766611313E1,1.768414203E1
3.446601625E0,-8.741821289E-2,3.956272888E-1,-1.580697922E1,1.581217110E1
3.456670625E0,-1.160087585E-1,8.854087830E-1,-1.357571915E1,1.360505631E1
3.466739625E0,-7.529342651E-2,1.586850128E0,-1.115046249E1,1.126306247E1
3.476808625E0,-5.406756592E-1,1.487456818E0,-8.869206390E0,9.009310737E0
3.486877625E0,-2.209405518E-1,6.346801758E-2,-7.265591125E0,7.269226735E0
3.496946625E0,9.738748169E-1,-1.300196228E0,-5.455405426E0,5.692134112E0
3.507015625E0,2.000739441E0,-2.112706604E0,-3.613485718E0,4.639371352E0
3.517084625E0,1.627116394E0,-2.723436584E0,-2.330952759E0,3.936744258E0
3.527153625E0,6.274951172E-1,-3.025508423E0,-1.973346405E0,3.666271590E0
3.537222500E0,9.714797974E-2,-3.058439941E0,-2.006726990E0,3.659295809E0
3.547291500E0,-3.935316467E-1,-3.371289368E0,-1.607357483E0,3.755536877E0
3.557360500E0,-2.409988403E-1,-3.557502136E0,-9.343569946E-1,3.686044612E0
3.567429500E0,5.869294739E-1,-3.614832916E0,-8.825646973E-1,3.767017874E0
3.577498500E0,1.675016785E0,-2.910547485E0,-7.417076111E-1,3.439054823E0
3.587567500E0,2.241738281E0,-2.046394501E0,-9.988728333E-1,3.195444869E0
3.597636500E0,1.985022125E0,-1.173110504E0,-1.592687988E0,2.802348323E0
3.607705500E0,7.502398682E-1,-1.992356873E-1,-2.025438080E0,2.169090624E0
3.617774500E0,-8.875044250E-1,8.848100281E-1,-2.409539337E0,2.715958893E0
3.627843500E0,-2.368524628E0,1.912722473E0,-3.053051147E0,4.311558591E0
3.637911500E0,-3.736529846E0,2.519859924E0,-3.353626099E0,5.617664759E0
3.647980500E0,-4.412374420E0,2.861150208E0,-3.332969055E0,6.226067078E0
3.658049500E0,-4.581073608E0,3.139720917E0,-2.840343475E0,6.237919036E0
3.668118500E0,-4.301604767E0,2.962190094E0,-2.387535095E0,5.742708207E0
3.678187500E0,-3.490591278E0,2.364932098E0,-2.302960968E0,4.804244011E0
3.688256500E0,-2.416425018E0,1.814077606E0,-2.571053467E0,3.967405117E0
3.698325500E0,-1.143771515E0,1.300944672E0,-2.895279236E0,3.373916444E0
3.708394500E0,2.739303589E-1,8.620573425E-1,-3.415297852E0,3.533049691E0
3.718463500E0,1.175804901E0,3.891906738E-3,-3.946393433E0,4.117833585E0
3.728532500E0,1.377435608E0,-3.996688843E-2,-3.742068329E0,3.987731383E0
3.738601500E0,8.749305725E-1,-5.029541016E-1,-3.739373932E0,3.873161982E0
3.748670500E0,9.404942322E-1,-6.249504089E-1,-3.774999847E0,3.940268552E0
3.758739500E0,1.127006378E0,-6.415658569E-1,-3.732488251E0,3.951356560E0
3.768808500E0,1.347946930E0,-6.661148071E-1,-3.801943817E0,4.088452843E0
3.778877500E0,1.678160248E0,-7.123686218E-1,-3.672463074E0,4.100082426E0
3.788946500E0,1.865271149E0,-8.852590942E-1,-3.417842560E0,3.993064974E0
3.799015500E0,1.712738342E0,-9.380992126E-1,-3.261268158E0,3.801233058E0
3.809084500E0,1.541644135E0,-9.136999512E-1,-3.208278351E0,3.674855673E0
3.819153500E0,1.287023621E0,-9.355545044E-1,-3.179987183E0,3.555841745E0
3.829222500E0,1.100661163E0,-8.123606873E-1,-3.270698547E0,3.545257941E0
3.839291500E0,9.499246216E-1,-6.619235229E-1,-3.478466492E0,3.666091743E0
3.849360500E0,7.885601807E-1,-4.631369019E-1,-3.773802338E0,3.883028075E0
3.859429500E0,6.255491638E-1,8.681945801E-3,-4.107458496E0,4.154828809E0
3.869498500E0,3.577560425E-1,5.266049194E-1,-4.499792633E0,4.544605139E0
3.879567500E0,7.107220459E-1,5.761518860E-1,-4.832850037E0,4.918690506E0
3.889636500E0,1.446891174E0,3.269201660E-1,-4.973108368E0,5.189622116E0
3.899705500E0,1.702110443E0,2.314187622E-1,-5.390440521E0,5.657524513E0
3.909774500E0,1.612297211E0,-1.188528442E-1,-6.051765289E0,6.263983669E0
3.919842500E0,1.464704132E0,-2.926414490E-1,-6.851252747E0,7.012179505E0
3.929911500E0,5.733078003E-1,7.185058594E-2,-7.767048340E0,7.788509758E0
3.939980500E0,-4.688250732E-1,6.562353516E-1,-8.796008606E0,8.832904912E0
3.950049500E0,-1.056353302E0,1.241069183E0,-1.038330780E1,1.051043367E1
3.960118500E0,-1.460213470E0,1.852846985E0,-1.210353058E1,1.233129019E1
3.970187500E0,-1.882036285E0,2.054477692E0,-1.366358643E1,1.394476723E1
3.980256500E0,-2.108665009E0,1.462608490E0,-1.494806534E1,1.516675143E1
3.990325500E0,-1.845661926E0,1.376387787E0,-1.620634872E1,1.636907604E1
4.000394500E0,-1.877545624E0,1.866618347E0,-1.775383072E1,1.795015172E1
4.010463500E0,-2.151625671E0,2.102228394E0,-1.963362167E1,1.986272784E1
4.020532500E0,-2.003733215E0,2.331850891E0,-2.157568314E1,2.179363618E1
4.030601500E0,-1.073567505E0,2.166145477E0,-2.323124039E1,2.335669633E1
4.040670500E0,3.794609070E-1,1.879042511E0,-2.491149628E1,2.498514435E1
4.050739500E0,1.368304596E0,1.712139587E0,-2.623848679E1,2.632986647E1
4.060808500E0,1.609004059E0,1.298699341E0,-2.647005524E1,2.655069374E1
4.070877500E0,1.291813660E0,6.975494385E-1,-2.595916763E1,2.600064888E1
4.080946500E0,4.799020386E-1,2.537223816E-1,-2.484219040E1,2.484812075E1
4.091015500E0,-9.789642334E-2,1.657054138E-1,-2.352927063E1,2.353005776E1
4.101084500E0,-3.203338623E-1,1.532812500E-1,-2.253039780E1,2.253319626E1
4.111153500E0,-5.423222351E-1,4.279600525E-1,-2.178045731E1,2.179141078E1
4.121222500E0,-9.454339600E-1,8.274792480E-1,-2.096180969E1,2.099942935E1
4.131291500E0,-1.636846161E0,9.611512756E-1,-2.002026764E1,2.011005205E1
4.141360500E0,-2.484084320E0,9.490264893E-1,-1.898262543E1,1.916797836E1
4.151429500E0,-3.259172516E0,5.897735596E-1,-1.808404404E1,1.838484939E1
4.161498500E0,-3.498375092E0,5.478607178E-2,-1.739038651E1,1.773886052E1
4.171567500E0,-3.351380768E0,-3.543132019E-1,-1.683264633E1,1.716669081E1
4.181635500E0,-2.977907410E0,-9.198371887E-1,-1.665511551E1,1.694422927E1
4.191704500E0,-2.596500549E0,-1.059496765E0,-1.662862061E1,1.686343298E1
4.201773500E0,-2.209555206E0,-7.497908020E-1,-1.673100769E1,1.689292570E1
4.211842500E0,-1.932182007E0,-6.750961304E-2,-1.719519241E1,1.730354088E1
4.221911500E0,-1.805545349E0,4.975653076E-1,-1.728096405E1,1.738215417E1
4.231980500E0,-1.617835693E0,8.708889771E-1,-1.678833847E1,1.688858042E1
4.242049500E0,-1.387764130E0,1.214274902E0,-1.583961136E1,1.594658712E1
4.252118500E0,-1.417402496E0,1.421593781E0,-1.441966415E1,1.455873185E1
4.262187500E0,-1.687740326E0,1.541195068E0,-1.257400223E1,1.278003449E1
4.272256500E0,-1.706451416E0,1.447190552E0,-1.044842239E1,1.068531083E1
4.282325500E0,-1.325493622E0,1.242865448E0,-8.178842010E0,8.378251876E0
4.292394500E0,-9.060658264E-1,1.076860657E0,-6.369853821E0,6.523467012E0
4.302463500E0,-6.581813049E-1,6.801855469E-1,-4.892725525E0,4.983434365E0
4.312532500E0,-2.457888794E-1,-3.397933960E-2,-3.713028717E0,3.721310122E0
4.322601500E0,9.397457886E-1,-5.318440247E-1,-3.226390686E0,3.402289975E0
4.332670500E0,2.770738220E0,-3.644920349E-1,-3.328628082E0,4.346217854E0
4.342739500E0,4.144281921E0,-8.726852417E-2,-3.705544281E0,5.560013207E0
4.352808500E0,4.855303345E0,3.215313721E-1,-3.851640472E0,6.205842998E0
4.362877500E0,4.945415955E0,6.304888916E-1,-3.715573425E0,6.217727968E0
4.372946500E0,4.215234375E0,8.289761353E-1,-3.335064697E0,5.438571394E0
4.383015500E0,2.704875183E0,9.211843872E-1,-2.703078918E0,3.933391167E0
4.393084500E0,1.408570862E0,8.178991699E-1,-1.458417206E0,2.186323780E0
4.403153500E0,7.783813477E-2,4.132905579E-1,-3.023712158E-1,5.179731775E-1
4.413222500E0,-8.526269531E-1,1.050814819E-1,7.418572998E-1,1.135062594E0
4.423291500E0,-1.713187408E0,-3.107537842E-1,1.414109344E0,2.243052440E0
4.433360500E0,-2.213147736E0,-5.173242188E-1,1.290915527E0,2.613830550E0
4.443429500E0,-2.639311523E0,-6.228547668E-1,9.419911194E-1,2.870759594E0
4.453497500E0,-2.669099579E0,-6.188131714E-1,5.674699402E-1,2.798042965E0
4.463566500E0,-2.305655365E0,-7.517367554E-1,-1.661544800E-2,2.425166156E0
4.473635500E0,-1.817370758E0,-7.999365234E-1,-5.854325867E-1,2.070136765E0
4.483704500E0,-1.138831787E0,-5.852828979E-1,-1.309776306E0,1.831668060E0
4.493773500E0,-5.294490051E-1,-3.948788452E-1,-2.197879486E0,2.294977078E0
4.503842500E0,-1.222956848E-1,-1.615141296E-1,-2.912343750E0,2.919381641E0
4.513911500E0,9.819580078E-2,1.347198486E-3,-3.102747803E0,3.104301557E0
4.523980500E0,1.773811340E-1,1.990859985E-2,-2.984194336E0,2.989527764E0
4.534049500E0,1.839674377E-1,-5.987548828E-3,-2.822680206E0,2.828675205E0
4.544118583E0,1.718426514E-1,-5.822891235E-2,-2.613115997E0,2.619407513E0
4.554187583E0,2.532733154E-1,-1.348695374E-1,-2.496209106E0,2.512647422E0
4.564256583E0,3.736230469E-1,-2.700384521E-1,-2.475701752E0,2.518256165E0
4.574325583E0,5.146298218E-1,-3.882925415E-1,-2.471211090E0,2.553918402E0
4.584394583E0,6.674620056E-1,-4.285588074E-1,-2.378404083E0,2.507184509E0
4.594463583E0,8.632548523E-1,-4.511618042E-1,-2.324366455E0,2.520205414E0
4.604532583E0,9.868977356E-1,-4.254153442E-1,-2.433938599E0,2.660639483E0
4.614601583E0,1.020577698E0,-3.604504395E-1,-2.728226624E0,2.935084984E0
4.624670583E0,8.400531006E-1,-1.396595764E-1,-2.965483246E0,3.085333838E0
4.634739583E0,5.776487732E-1,1.246907043E-1,-3.305875397E0,3.358279026E0
4.644808583E0,3.206332397E-1,3.525169373E-1,-3.918850708E0,3.947716395E0
4.654877583E0,1.082249451E-1,6.066883850E-1,-4.931045837E0,4.969406050E0
4.664946583E0,-2.522254944E-1,8.666976929E-1,-6.291117554E0,6.355544246E0
4.675015583E0,-5.649252319E-1,9.521699524E-1,-8.112529907E0,8.187729211E0
4.685084583E0,-1.106948090E0,1.060095520E0,-1.045066772E1,1.056246148E1
4.695153583E0,-1.426383820E0,1.277593231E0,-1.269225632E1,1.283589442E1
4.705222583E0,-6.176156616E-1,1.557810516E0,-1.470976089E1,1.480490757E1
4.715290583E0,9.580078125E-3,1.634301453E0,-1.699146606E1,1.706988436E1
4.725359583E0,-1.385219421E0,1.296304321E0,-1.962000000E1,1.971151029E1
4.735428583E0,-3.733835449E0,8.907975769E-1,-2.242337036E1,2.274956232E1
4.745497583E0,-4.641098785E0,2.727328491E-1,-2.455104584E1,2.498735746E1
4.755566583E0,-4.078418884E0,-1.085243225E-1,-2.587070160E1,2.619042725E1
4.765635583E0,-3.198847961E0,-5.777984619E-2,-2.690265564E1,2.709222854E1
4.775704583E0,-2.544708252E0,2.484832764E-2,-2.780093765E1,2.791716841E1
4.785773583E0,-2.159259796E0,2.606080627E-1,-2.853336456E1,2.861613553E1
4.795842583E0,-1.650617523E0,5.885760498E-1,-2.898497543E1,2.903790214E1
4.805911583E0,-1.096918945E0,7.029382324E-1,-2.893348251E1,2.896279965E1
4.815980583E0,-1.396595764E0,9.589059448E-1,-2.823488525E1,2.828566290E1
4.826049583E0,-2.648741913E0,7.553292847E-1,-2.666704559E1,2.680891040E1
4.836118583E0,-4.862937469E0,5.075944519E-1,-2.449536163E1,2.497856190E1
4.846187583E0,-7.389832764E0,6.840774536E-2,-2.245899628E1,2.364362116E1
4.856256583E0,-9.381740570E0,-5.162763977E-1,-2.062501007E1,2.266439141E1
4.866325583E0,-1.051683014E1,-9.641450500E-1,-1.896975220E1,2.171139770E1
4.876394583E0,-1.058823166E1,-1.117725677E0,-1.762300278E1,2.058956501E1
4.886463583E0,-1.013931519E1,-9.789642334E-1,-1.682186874E1,1.966568970E1
4.896532583E0,-9.517807617E0,-6.173162842E-1,-1.656679916E1,1.911618622E1
4.906601583E0,-8.555159454E0,-7.334747314E-3,-1.633732635E1,1.844177431E1
4.916670583E0,-7.539671173E0,5.108876038E-1,-1.543230835E1,1.718324150E1
4.926739583E0,-6.433920593E0,8.114625549E-1,-1.382899246E1,1.527399222E1
4.936808583E0,-5.104385376E0,8.589138794E-1,-1.164069305E1,1.273963178E1
4.946877583E0,-3.706292725E0,5.748046875E-1,-8.932824097E0,9.688258488E0
4.956946583E0,-2.213447113E0,-1.197509766E-3,-6.208190002E0,6.590976609E0
4.967014583E0,-8.649014282E-1,-4.366419983E-1,-3.969744873E0,4.086267866E0
4.977083583E0,-5.284011841E-2,-7.535330200E-1,-2.637066193E0,2.743122709E0
4.987152583E0,3.531156921E-1,-1.116827545E0,-2.275418243E0,2.559203517E0
4.997221583E0,7.517367554E-1,-1.203946381E0,-2.545905762E0,2.914829529E0
5.007290583E0,1.348545685E0,-6.744973755E-1,-2.988984375E0,3.347767878E0
5.017359583E0,1.958826599E0,1.919009399E-1,-3.215014343E0,3.769634577E0
5.027428583E0,2.233655090E0,9.307644653E-1,-3.406017151E0,4.178096503E0
5.037497583E0,1.946552124E0,1.242117004E0,-3.165317688E0,3.918055116E0
5.047566583E0,1.419647827E0,1.409468994E0,-2.054028625E0,2.867234973E0
5.057635583E0,6.944059753E-1,1.260379028E0,-8.563691711E-1,1.674551615E0
5.067704583E0,-4.954696655E-2,8.729846191E-1,1.904040527E-1,8.948802995E-1
5.077773583E0,-8.288264465E-1,4.930746460E-1,1.256187744E0,1.583693005E0
5.087842583E0,-1.607806549E0,-7.379653931E-2,2.008223877E0,2.573606607E0
5.097911583E0,-2.138003998E0,-5.921685791E-1,2.483485565E0,3.330078869E0
5.107980583E0,-2.458188171E0,-1.039887543E0,2.865042114E0,3.915676379E0
5.118049583E0,-2.581381989E0,-1.367256775E0,2.906805267E0,4.120975724E0
5.128118583E0,-2.886148224E0,-1.532962189E0,2.435435486E0,4.075680391E0
5.138187583E0,-3.032543793E0,-1.510658569E0,1.449136505E0,3.684889113E0
5.148256583E0,-2.554887085E0,-1.192869415E0,2.600093079E-1,2.831605604E0
5.158325583E0,-1.572180634E0,-5.748046875E-1,-8.750802612E-1,1.888893284E0
5.168394583E0,-2.924917603E-1,7.484436035E-3,-2.133663025E0,2.153630737E0
5.178463583E0,8.737330627E-1,5.501060486E-1,-3.499871979E0,3.648990271E0
5.188532583E0,1.844165039E0,8.993298340E-1,-4.759951630E0,5.183326958E0
5.198601583E0,2.502795410E0,8.819659424E-1,-5.440586243E0,6.053249330E0
5.208670583E0,2.821782074E0,6.985972595E-1,-5.310506744E0,6.054087387E0
5.218738583E0,2.874472504E0,3.366499329E-1,-4.672234039E0,5.495970912E0
5.228807583E0,2.637215881E0,6.271957397E-2,-4.035907288E0,4.821554623E0
5.238876583E0,2.173330536E0,-1.335223389E-1,-3.484154663E0,4.108591918E0
5.248945583E0,1.617386627E0,-2.516267395E-1,-2.861599274E0,3.296665879E0
5.259014583E0,1.147214355E0,-2.168989563E-1,-2.346670074E0,2.621069700E0
5.269083583E0,5.766009521E-1,-1.297801208E-1,-1.840722198E0,1.933279532E0
5.279152583E0,1.263372803E-1,4.640350342E-2,-1.405128021E0,1.411559120E0
5.289221583E0,-1.079255676E-1,1.627116394E-1,-1.130449219E0,1.147187187E0
5.299290583E0,-3.667373657E-1,3.007246399E-1,-9.488768005E-1,1.060801012E0
5.309359583E0,-5.287005615E-1,4.065545654E-1,-8.909472656E-1,1.112923146E0
5.319428583E0,-4.875361633E-1,4.351451111E-1,-1.080902252E0,1.263088460E0
5.329497583E0,-3.457809448E-1,4.478686523E-1,-1.402433624E0,1.512273408E0
5.339566583E0,-2.540217590E-1,5.026547241E-1,-1.802252197E0,1.888200680E0
5.349635583E0,-2.276765442E-1,4.971162415E-1,-2.377955017E0,2.440006399E0
5.359704583E0,-2.182461548E-1,5.795947266E-1,-3.208428040E0,3.267655416E0
5.369773583E0,-2.719844055E-1,7.429051208E-1,-4.220174103E0,4.293687575E0
5.379842583E0,-4.878355408E-1,6.340814209E-1,-5.733676758E0,5.789222048E0
5.389911583E0,-7.345225525E-1,3.534150696E-1,-7.505542145E0,7.549674727E0
5.399980583E0,-9.737251282E-1,2.101629639E-1,-9.453291779E0,9.505631728E0
5.410049583E0,-9.812095642E-1,6.276448059E-1,-1.167886368E1,1.173680395E1
5.420118583E0,-7.355703735E-1,1.255888367E0,-1.437625443E1,1.444974085E1
5.430187583E0,-1.983674927E0,1.608405304E0,-1.684432205E1,1.703681658E1
5.440256583E0,-3.827690277E0,1.384021912E0,-1.930011520E1,1.972463375E1
5.450325583E0,-3.799249420E0,1.456920319E0,-2.209300735E1,2.246459185E1
5.460394583E0,-1.459614716E0,1.753603363E0,-2.541040878E1,2.551263362E1
5.470462583E0,1.785187683E0,2.054477692E0,-2.886881699E1,2.899683376E1
5.480531583E0,4.764591980E0,1.964215393E0,-3.060296082E1,3.103386359E1
5.490600583E0,6.156397705E0,1.996099091E0,-3.027693878E1,3.096092160E1
5.500669583E0,5.875132599E0,1.857936401E0,-2.944197510E1,3.007987713E1
5.510738583E0,4.213288422E0,2.121987305E0,-2.849249954E1,2.888039403E1
5.520807583E0,2.111209717E0,2.412682800E0,-2.636108185E1,2.655531738E1
5.530876583E0,5.014572144E-1,1.887724457E0,-2.390528870E1,2.398494925E1
5.540945583E0,-1.525328064E0,2.093845825E0,-2.205977646E1,2.221136091E1
5.551014583E0,-3.069666595E0,2.251168671E0,-2.114936966E1,2.148921707E1
5.561083583E0,-4.247417450E0,2.188598785E0,-2.031335815E1,2.086775118E1
5.571152583E0,-4.943320312E0,2.112257538E0,-1.977507751E1,2.049272403E1
5.581221583E0,-4.918621674E0,1.765728149E0,-1.958332626E1,2.026862853E1
5.591290583E0,-4.578977966E0,1.415007477E0,-1.975262421E1,2.032573365E1
5.601359583E0,-3.705095215E0,8.045768738E-1,-2.039942917E1,2.074877791E1
5.611428583E0,-2.444267120E0,8.173004150E-2,-2.110057114E1,2.124182722E1
5.621497583E0,-1.180594940E0,-5.135820007E-1,-2.152344177E1,2.156191357E1
5.631566583E0,-2.499801636E-2,-8.225395203E-1,-2.159379547E1,2.160947012E1
5.641635583E0,7.313790894E-1,-8.798703003E-1,-2.117287079E1,2.120376251E1
5.651704583E0,8.535250854E-1,-8.306227112E-1,-2.048624863E1,2.052083872E1
5.661773583E0,6.670129395E-1,-6.379733276E-1,-1.960652802E1,1.962824131E1
5.671842583E0,2.233355713E-1,-3.035687256E-1,-1.832998260E1,1.833385652E1
5.681911583E0,-1.977388000E-1,1.829196167E-1,-1.677546524E1,1.677762779E1
5.691980583E0,-5.963598633E-1,5.098397827E-1,-1.510179565E1,1.512216300E1
5.702048583E0,-7.039860535E-1,6.897656250E-1,-1.346435074E1,1.350037458E1
5.712117583E0,-2.899470520E-1,6.628216553E-1,-1.185504730E1,1.187710185E1
5.722186583E0,7.729925537E-1,5.891748047E-1,-9.936337280E0,9.983758961E0
5.732255583E0,1.850751343E0,6.264472961E-1,-7.888445892E0,8.126825662E0
5.742324583E0,2.591261444E0,7.923023987E-1,-6.179000702E0,6.747031098E0
5.752393583E0,3.173700256E0,7.912545776E-1,-4.733456726E0,5.753613621E0
5.762462583E0,3.531156921E0,5.328918457E-1,-3.221301270E0,4.809347647E0
5.772531583E0,3.301085358E0,2.089654541E-1,-1.929337921E0,3.829252657E0
5.782600583E0,2.368075562E0,-1.453477478E-1,-1.005309448E0,2.576733382E0
5.792669583E0,1.181493073E0,-2.442919922E-1,-2.216889954E-1,1.226682709E0
5.802738583E0,3.083587646E-2,-3.899391174E-1,4.953199768E-1,6.311459784E-1
5.812807583E0,-7.595205688E-1,-4.011657715E-1,1.488804016E0,1.718820197E0
5.822876583E0,-1.520238647E0,-3.665876770E-1,2.051932983E0,2.579911052E0
5.832945583E0,-2.068249054E0,-3.106040955E-1,2.244732056E0,3.068053301E0
5.843014583E0,-2.415826263E0,-2.499801636E-1,2.288141785E0,3.336809770E0
5.853083583E0,-2.489772491E0,-6.750961304E-2,2.308050385E0,3.395676837E0
5.863152583E0,-2.461780701E0,1.088237000E-1,2.354304199E0,3.408072047E0
5.873221583E0,-2.538720703E0,2.471360779E-1,2.457439728E0,3.541918839E0
5.883290583E0,-2.537523193E0,2.619552612E-1,2.526745605E0,3.590555371E0
5.893359583E0,-2.445614319E0,9.340576172E-2,2.369722137E0,3.406660688E0
5.903428583E0,-2.366129608E0,3.158432007E-2,2.156715088E0,3.201716237E0
5.913497583E0,-2.304308167E0,8.846603394E-2,1.862427063E0,2.964168843E0
5.923566583E0,-2.231260071E0,1.203497314E-1,1.318458252E0,2.594482169E0
5.933635583E0,-2.017205200E0,2.151026917E-1,5.171745300E-1,2.093527044E0
5.943703583E0,-1.665287018E0,3.445834351E-1,-4.806504822E-1,1.767185186E0
5.953772583E0,-1.103654938E0,3.960763550E-1,-1.585353241E0,1.971871091E0
5.963841583E0,-5.430706787E-1,3.676354980E-1,-2.674937439E0,2.754155392E0
5.973910583E0,5.164260864E-2,2.874023438E-1,-3.532055054E0,3.544104960E0
5.983979583E0,8.578660583E-1,1.808239746E-1,-4.142335968E0,4.234097159E0
5.994048583E0,1.606010284E0,9.684860229E-2,-4.793781281E0,5.056578651E0
6.004117583E0,2.019600220E0,1.209484863E-1,-5.470823364E0,5.832951386E0
6.014186583E0,2.125879211E0,3.963757324E-1,-5.952821045E0,6.333447287E0
6.024255583E0,2.073787537E0,5.158273315E-1,-6.208639069E0,6.566115417E0
6.034324583E0,1.864373016E0,5.028044128E-1,-6.175408173E0,6.470267778E0
6.044393583E0,1.666634216E0,4.593946838E-1,-5.962850189E0,6.208405227E0
6.054462583E0,1.679357758E0,2.929408264E-1,-5.559289398E0,5.814787650E0
6.064531583E0,1.700164490E0,1.398092651E-1,-5.027595062E0,5.309125920E0
6.074600583E0,1.657952271E0,-2.395019531E-3,-4.612508240E0,4.901432824E0
6.084669583E0,1.545236664E0,-1.035845947E-1,-4.212090912E0,4.487782968E0
6.094738583E0,1.465751953E0,-2.240840149E-1,-3.913461914E0,4.184952400E0
6.104807583E0,1.402134247E0,-4.055067444E-1,-3.854185181E0,4.121305567E0
6.114876583E0,1.349593506E0,-5.565426636E-1,-3.939208374E0,4.201012376E0
6.124945583E0,1.404978333E0,-5.670208740E-1,-4.220323792E0,4.484039439E0
6.135014583E0,1.276994476E0,-3.926335144E-1,-5.017266541E0,5.192093943E0
6.145083583E0,1.200802917E0,-9.086105347E-2,-6.257437592E0,6.372260870E0
6.155152583E0,8.458909607E-1,3.234773254E-1,-7.477400665E0,7.532044198E0
6.165221583E0,7.782316589E-1,6.950047302E-1,-8.732839966E0,8.794951390E0
6.175289583E0,8.617579651E-1,1.408570862E0,-1.045725403E1,1.058682485E1
6.185358583E0,7.229965210E-1,1.727707214E0,-1.253852600E1,1.267763111E1
6.195427583E0,1.880090332E-1,1.571282501E0,-1.450319046E1,1.458927036E1
6.205496583E0,-9.960287476E-1,1.301992493E0,-1.596789459E1,1.605181969E1
6.215565583E0,-2.604583740E0,1.190324707E0,-1.729308884E1,1.752859523E1
6.225634583E0,-3.584745483E0,1.741179199E0,-1.922826462E1,1.963691079E1
6.235703583E0,-3.602558441E0,2.548749847E0,-2.224808487E1,2.268153067E1
6.245772583E0,-2.643951874E0,2.926115112E0,-2.562655930E1,2.592823119E1
6.255841583E0,-7.000941467E-1,3.017574921E0,-2.778551971E1,2.795766435E1
6.265910583E0,1.856589203E0,3.035387878E0,-2.941982117E1,2.963420963E1
6.275979583E0,3.249143372E0,3.009042664E0,-3.112208130E1,3.143557244E1
6.286048583E0,2.780917053E0,3.018922119E0,-3.171005859E1,3.197460252E1
6.296117583E0,1.447938995E0,2.749033356E0,-3.070774292E1,3.086452959E1
6.306186583E0,3.764671326E-1,2.178719330E0,-2.899545364E1,2.907962994E1
6.316255583E0,-2.703378296E-1,1.931134186E0,-2.796484680E1,2.803274903E1
6.326324583E0,-7.667056274E-1,1.756896515E0,-2.743839157E1,2.750526958E1
6.336393583E0,-9.672885132E-1,1.553020477E0,-2.637979294E1,2.644316538E1
6.346462583E0,-1.187031555E0,1.290167084E0,-2.484189102E1,2.490367693E1
6.356531583E0,-1.435514832E0,1.029858398E0,-2.341595627E1,2.348251092E1
6.366600583E0,-1.933379517E0,8.454418945E-1,-2.214899094E1,2.224928151E1
6.376669583E0,-2.518512726E0,6.243516541E-1,-2.098306549E1,2.114288908E1
6.386738583E0,-2.961441650E0,3.552113342E-1,-1.986608826E1,2.008874746E1
6.396807583E0,-3.241808624E0,9.804611206E-2,-1.901420975E1,1.928883378E1
6.406875583E0,-3.117417297E0,-9.774673462E-2,-1.836186630E1,1.862487528E1
6.416944583E0,-2.918031921E0,5.418731689E-2,-1.787657547E1,1.811324921E1
6.427013583E0,-2.621797943E0,3.344046021E-1,-1.747795441E1,1.767666657E1
6.437082583E0,-2.106868744E0,7.542814636E-1,-1.685884186E1,1.700671589E1
6.447151583E0,-1.524130554E0,1.107846222E0,-1.592194016E1,1.603304324E1
6.457220583E0,-9.238787842E-1,1.553469543E0,-1.452579346E1,1.463781046E1
6.467289583E0,-3.884422302E-1,1.804796906E0,-1.279958313E1,1.293203416E1
6.477358583E0,1.457968140E-1,1.825903015E0,-1.057356216E1,1.073104820E1
6.487427583E0,8.479866028E-1,1.648671570E0,-8.017776947E0,8.229334505E0
6.497496583E0,1.493144989E0,1.281634827E0,-5.572462006E0,5.909687182E0
6.507565583E0,1.835483093E0,8.511300659E-1,-3.406316528E0,3.961869870E0
6.517634583E0,2.140249329E0,3.308120728E-1,-1.649569702E0,2.722348989E0
6.527703583E0,2.411335602E0,-2.429447937E-1,-3.067121887E-1,2.442874111E0
6.537772583E0,2.519560547E0,-7.015910339E-1,5.671705627E-1,2.676209591E0
6.547841750E0,2.429747314E0,-9.620494080E-1,1.028810577E0,2.808498225E0
6.557910750E0,2.141147461E0,-9.404942322E-1,1.199306030E0,2.628188883E0
6.567979750E0,1.428479462E0,-6.758445740E-1,1.173260193E0,1.968212118E0
6.578048750E0,9.794132996E-1,-3.870950317E-1,1.709744568E0,2.008063610E0
6.588117750E0,4.396357727E-1,-1.763333130E-1,2.114353180E0,2.166763120E0
6.598186750E0,-1.709445190E-1,-1.227447510E-2,2.302362213E0,2.308732217E0
6.608255750E0,-7.445516968E-1,2.071691895E-1,2.518812103E0,2.634708848E0
6.618324750E0,-1.367256775E0,3.803590393E-1,3.281027069E0,3.574801074E0
6.628392750E0,-1.966760101E0,3.691323853E-1,3.733236694E0,4.235736091E0
6.638461750E0,-2.417921906E0,1.414558411E-1,3.669918365E0,4.397119160E0
6.648530750E0,-2.952909393E0,4.460723877E-2,3.522175598E0,4.596453484E0
6.658599750E0,-3.379222870E0,-9.879455566E-3,3.158731384E0,4.625670629E0
6.668668750E0,-3.394341431E0,-1.666035461E-1,2.578986969E0,4.266202559E0
6.678737750E0,-3.141966248E0,-2.163002014E-1,1.784738617E0,3.619948841E0
6.688806750E0,-2.730471954E0,-1.103205872E-1,9.855505371E-1,2.904988397E0
6.698875750E0,-2.110910339E0,-1.157093811E-1,2.585124207E-1,2.129826235E0
6.708944750E0,-1.192120972E0,-1.660047913E-1,-2.956352234E-1,1.239399123E0
6.719013750E0,-4.041595459E-3,-8.771759033E-2,-8.105644226E-1,8.153069320E-1
6.729082750E0,1.067280579E0,8.412506104E-2,-1.513802032E0,1.854120129E0
6.739151750E0,1.877845001E0,2.287243652E-1,-2.228715363E0,2.923318123E0
6.749220750E0,2.521656189E0,3.492237854E-1,-2.871179352E0,3.837235731E0
6.759289750E0,2.810555420E0,4.002676392E-1,-3.321443024E0,4.369372920E0
6.769358750E0,2.881807251E0,3.261717224E-1,-3.423081665E0,4.486500764E0
6.779427750E0,2.714754639E0,2.275268555E-1,-3.227438507E0,4.223508084E0
6.789496750E0,2.310146027E0,1.029858398E-1,-2.796933746E0,3.629079653E0
6.799565750E0,1.777403870E0,1.028361511E-1,-2.296075287E0,2.905460637E0
6.809634750E0,1.187630310E0,1.049317932E-1,-1.953288116E0,2.288407940E0
6.819703750E0,5.918692017E-1,7.708969116E-2,-1.707798615E0,1.809095929E0
6.829772750E0,6.721023560E-2,1.196012878E-1,-1.584155731E0,1.590085238E0
6.839841750E0,-2.689906311E-1,1.574725342E-1,-1.678759003E0,1.707449955E0
6.849910750E0,-4.525090027E-1,1.642085266E-1,-2.049837341E0,2.105602518E0
6.859978750E0,-5.445675659E-1,2.335144043E-2,-2.706222382E0,2.760568547E0
6.870047750E0,-6.207591248E-1,-1.314266968E-1,-3.517984314E0,3.574748733E0
6.880116750E0,-6.450086975E-1,-1.856140137E-1,-4.392615509E0,4.443597618E0
6.890185750E0,-6.857240295E-1,-1.056802368E-1,-5.419031067E0,5.463266739E0
6.900254750E0,-6.459068298E-1,2.707868958E-1,-6.415508881E0,6.453624979E0
6.910323750E0,-4.620890808E-1,5.459147644E-1,-7.794141998E0,7.826889468E0
6.920392750E0,-2.110610962E-1,7.081773376E-1,-9.402098236E0,9.431092894E0
6.930461750E0,-2.377056885E-1,1.043929138E0,-1.122994720E1,1.128086904E1
6.940530750E0,-8.722361755E-1,1.861528931E0,-1.307575882E1,1.323637241E1
6.950599750E0,-2.155966644E0,2.723885651E0,-1.461051727E1,1.501782142E1
6.960668750E0,-4.061653748E0,2.921025696E0,-1.569695801E1,1.647494804E1
6.970737750E0,-6.677314453E0,2.657274170E0,-1.625888947E1,1.777636411E1
6.980806750E0,-8.339308319E0,2.268682251E0,-1.725716354E1,1.930027658E1
6.990875750E0,-6.981032867E0,1.588197327E0,-1.936103851E1,2.064235943E1
7.000944750E0,-3.610342255E0,1.265618134E0,-2.213536926E1,2.246354676E1
7.011013750E0,9.575587463E-1,8.162525940E-1,-2.560799789E1,2.563889122E1
7.021082750E0,5.790708160E0,1.776805115E0,-2.938180023E1,2.999965870E1
7.031151750E0,8.567882996E0,2.948568420E0,-3.284020844E1,3.406731520E1
7.041220750E0,8.122858429E0,2.985691223E0,-3.452615250E1,3.559424655E1
7.051289750E0,5.433101807E0,3.917503510E0,-3.448244339E1,3.512697441E1
7.061358750E0,4.395309906E0,4.054917755E0,-3.351156235E1,3.404094473E1
7.071427750E0,2.331701202E0,2.916684723E0,-2.965558090E1,2.988975341E1
7.081495750E0,8.912466431E-1,2.012115784E0,-2.703527985E1,2.712469883E1
7.091564750E0,8.472381592E-2,1.058898010E0,-2.491972916E1,2.494236044E1
7.101633750E0,-1.035845947E-1,4.093986511E-1,-2.313319427E1,2.313704852E1
7.111702750E0,-2.796185303E-1,-2.185455322E-2,-2.172746750E1,2.172927767E1
7.121771750E0,-6.532415771E-1,-2.095642090E-1,-2.049223618E1,2.050371638E1
7.131840750E0,-1.240919495E0,-2.769241333E-1,-1.953333023E1,1.957466623E1
7.141909750E0,-2.217488708E0,-2.935395813E-1,-1.887574768E1,1.900782134E1
7.151978750E0,-3.254532166E0,-2.140548706E-1,-1.858580063E1,1.886981145E1
7.162047750E0,-3.971840515E0,-2.371069336E-1,-1.870585098E1,1.912434568E1
7.172116750E0,-4.048181763E0,-3.297642517E-1,-1.910881302E1,1.953569182E1
7.182185750E0,-3.254382477E0,-4.481680298E-1,-1.948318451E1,1.975819674E1
7.192254750E0,-1.792223053E0,-8.638536072E-1,-1.867681137E1,1.878248092E1
7.202323750E0,4.849914551E-2,-1.544787598E0,-1.747226624E1,1.754049054E1
7.212392750E0,2.075434113E0,-1.309925995E0,-1.612461868E1,1.631032374E1
7.222461750E0,3.861968994E0,1.646575928E-3,-1.454345673E1,1.504748952E1
7.232530750E0,4.922663269E0,9.237290955E-1,-1.313623306E1,1.405868088E1
7.242599750E0,5.430557098E0,1.183139648E0,-1.165326691E1,1.291082489E1
7.252668750E0,6.020330658E0,7.438032532E-1,-9.378597107E0,1.116940948E1
7.262737750E0,6.403084717E0,-3.412902832E-2,-6.913223877E0,9.423020909E0
7.272806750E0,5.330864410E0,-5.641767883E-1,-4.947960663E0,7.295116554E0
7.282875750E0,3.407214661E0,-1.001866608E0,-3.704795837E0,5.132091254E0
7.292944750E0,1.636546783E0,-9.544152832E-1,-2.769840088E0,3.355772343E0
7.303012750E0,-8.816665649E-2,-6.599775696E-1,-1.920057220E0,2.032231158E0
7.313081750E0,-1.676513672E0,-1.176553345E-1,-1.244811401E0,2.091434028E0
7.323150750E0,-2.593207397E0,2.942880249E-1,-8.056246948E-1,2.731366178E0
7.333219750E0,-2.847378845E0,5.153782654E-1,-4.819976807E-1,2.933513731E0
7.343288750E0,-2.722688141E0,7.006929016E-1,5.239105225E-2,2.811893682E0
7.353357750E0,-2.523003387E0,7.966433716E-1,6.945556641E-1,2.735433115E0
7.363426750E0,-2.494861908E0,1.060843964E0,1.301842804E0,3.007410937E0
7.373495750E0,-2.498005371E0,1.124761047E0,2.001787262E0,3.392973694E0
7.383564750E0,-2.224075012E0,6.885681152E-1,2.715203705E0,3.576725719E0
7.393633750E0,-2.175126801E0,2.053729248E-1,3.416944427E0,4.055719894E0
7.403702750E0,-2.249372406E0,-6.855743408E-2,3.820654907E0,4.434160604E0
7.413771750E0,-2.275118866E0,-3.426374817E-1,3.747457123E0,4.397385722E0
7.423840750E0,-2.426454163E0,-7.357200623E-1,3.566932526E0,4.376296546E0
7.433909750E0,-2.462978210E0,-1.074016571E0,3.269201660E0,4.231719834E0
7.443978750E0,-2.441423035E0,-1.140328674E0,2.736758881E0,3.840669875E0
7.454047750E0,-2.450104980E0,-9.948312378E-1,1.850302277E0,3.227432745E0
7.464116750E0,-2.268532562E0,-7.030879211E-1,8.048762512E-1,2.507667919E0
7.474185750E0,-1.749112701E0,-3.489244080E-1,-2.245330811E-1,1.797653634E0
7.484254750E0,-1.037492523E0,1.924996948E-1,-1.046473846E0,1.486120580E0
7.494323750E0,-3.189866638E-1,7.408094788E-1,-1.812580719E0,1.983935492E0
7.504392750E0,3.944297791E-1,1.192270660E0,-2.552042999E0,2.844293875E0
7.514460750E0,9.883946228E-1,1.370250549E0,-3.055146790E0,3.491193550E0
7.524529750E0,1.134490814E0,1.352736969E0,-3.221001892E0,3.673121275E0
7.534598750E0,1.159339142E0,1.233435059E0,-3.217409363E0,3.635540166E0
7.544668208E0,8.857081604E-1,1.032253418E0,-2.991978149E0,3.286633431E0
7.554737208E0,5.153782654E-1,8.566685486E-1,-2.461930389E0,2.657178391E0
7.564806208E0,3.004252625E-1,6.156697083E-1,-1.880689087E0,2.001573374E0
7.574875208E0,1.480421448E-1,4.215234375E-1,-1.537303162E0,1.600905836E0
7.584944208E0,5.104385376E-2,2.627037048E-1,-1.440454559E0,1.465103426E0
7.595013208E0,9.145980835E-2,1.663041687E-1,-1.390458527E0,1.403352018E0
7.605082208E0,1.333726501E-1,1.927990723E-1,-1.408870239E0,1.428241960E0
7.615151208E0,2.345622253E-1,2.499801636E-1,-1.515298920E0,1.553589500E0
7.625220208E0,5.007087708E-1,2.227368164E-1,-1.851200409E0,1.930612316E0
7.635289208E0,6.182144165E-1,2.074685669E-1,-2.313888245E0,2.404019775E0
7.645358208E0,6.680607605E-1,1.239422607E-1,-2.860401764E0,2.939994067E0
7.655427208E0,8.201445007E-1,1.441502380E-1,-3.538791046E0,3.635444727E0
7.665496208E0,1.006057892E0,2.393522644E-1,-4.616250458E0,4.730667001E0
7.675565208E0,1.413061523E0,4.948709106E-1,-6.191873932E0,6.370317329E0
7.685634208E0,2.096839600E0,7.035369873E-1,-8.322543182E0,8.611412522E0
7.695703208E0,2.792293396E0,9.533674622E-1,-1.075917618E1,1.115641896E1
7.705772208E0,2.570903778E0,1.275647278E0,-1.332843338E1,1.363392675E1
7.715841208E0,1.545536041E0,1.173858948E0,-1.519370453E1,1.531715652E1
7.725909208E0,-2.718347168E-1,9.925859070E-1,-1.583332443E1,1.586673512E1
7.735978208E0,-2.395468597E0,9.482780457E-1,-1.569426361E1,1.590432052E1
7.746047208E0,-2.640209656E0,7.167095947E-1,-1.668684952E1,1.690962231E1
7.756116208E0,-7.831713867E-1,5.236111450E-1,-1.938019867E1,1.940308291E1
7.766185208E0,1.112636261E0,1.026116180E0,-2.223102036E1,2.228248505E1
7.776254208E0,2.687511292E0,1.724563751E0,-2.566098770E1,2.585890808E1
7.786323208E0,4.063300323E0,2.582429810E0,-2.892659683E1,2.932451803E1
7.796392208E0,4.708458710E0,2.805615692E0,-3.056793365E1,3.105542836E1
7.806461208E0,4.049678650E0,2.354902954E0,-3.102104141E1,3.137276646E1
7.816530208E0,3.219055939E0,1.837878113E0,-3.058125595E1,3.080508615E1
7.826599208E0,2.674937439E0,1.168619843E0,-2.924723007E1,2.939254037E1
7.836668208E0,2.399809570E0,6.120771790E-1,-2.747147278E1,2.758288493E1
7.846737208E0,2.209106140E0,2.725831604E-1,-2.632246216E1,2.641640524E1
7.856806208E0,1.964065704E0,2.436932373E-1,-2.542447952E1,2.550139407E1
7.866875208E0,1.676513672E0,3.935316467E-1,-2.394555496E1,2.400739819E1
7.876944208E0,1.247805176E0,6.789880371E-1,-2.247186951E1,2.251672626E1
7.887013208E0,4.772076416E-1,8.439450073E-1,-2.159304703E1,2.161480165E1
7.897082208E0,-4.390370178E-1,9.113049316E-1,-2.105012604E1,2.107441663E1
7.907151208E0,-1.241817627E0,1.029559021E0,-2.071632019E1,2.077902849E1
7.917220208E0,-1.789828033E0,7.952961731E-1,-2.041439804E1,2.050813565E1
7.927289208E0,-1.763333130E0,3.484753418E-1,-2.014540741E1,2.022543494E1
7.937357208E0,-1.704505463E0,8.831634521E-3,-2.016995636E1,2.024185161E1
7.947426208E0,-1.478475494E0,-4.502636719E-1,-2.026905029E1,2.032788791E1
7.957495208E0,-1.289119263E0,-5.355862427E-1,-2.030213150E1,2.035006694E1
7.967564208E0,-1.305585022E0,-4.349954224E-1,-2.049627777E1,2.054242380E1
7.977633208E0,-1.272653503E0,-3.785627747E-1,-2.025767395E1,2.030114062E1
7.987702208E0,-1.522633667E0,-5.023553467E-1,-1.971190887E1,1.977701003E1
7.997771208E0,-1.673070831E0,-3.950285339E-1,-1.892514496E1,1.900306094E1
8.007840208E0,-1.564097443E0,5.912704468E-2,-1.729653168E1,1.736720775E1
8.017909208E0,-1.624721375E0,5.252577209E-1,-1.529684006E1,1.539184625E1
8.027978208E0,-1.569486237E0,8.301736450E-1,-1.311752197E1,1.323713934E1
8.038047208E0,-1.176852722E0,8.836125183E-1,-1.093640762E1,1.103497916E1
8.048116208E0,-5.656736755E-1,6.828799438E-1,-8.751401367E0,8.796211549E0
8.058185208E0,3.189866638E-1,3.909869385E-1,-6.883435822E0,6.901906402E0
8.068254208E0,1.163530426E0,8.711883545E-2,-5.253774719E0,5.381778660E0
8.078323208E0,1.720671844E0,-2.380050659E-1,-3.771407318E0,4.152212804E0
8.088392208E0,2.194137268E0,-6.505471802E-1,-2.440375214E0,3.345576358E0
8.098461208E0,2.424657898E0,-9.828561401E-1,-1.351838837E0,2.944900738E0
8.108530208E0,2.328857117E0,-1.067280579E0,-6.957531738E-1,2.654568851E0
8.118599208E0,1.825154572E0,-9.428892517E-1,-4.685256958E-1,2.107070402E0
8.128668208E0,8.681945801E-1,-5.412744141E-1,-5.234614563E-1,1.149239625E0
8.138736208E0,-6.990463257E-2,-5.777984619E-2,-5.298980713E-1,5.376031382E-1
8.148805208E0,-8.551716614E-1,2.149530029E-1,-4.906796265E-1,1.009103493E0
8.158874208E0,-1.337768097E0,5.237608337E-1,-2.724334717E-1,1.462247889E0
8.168943208E0,-1.488804016E0,6.466552734E-1,8.337661743E-2,1.625316000E0
8.179012208E0,-1.407672729E0,8.033793640E-1,2.561174011E-1,1.640901289E0
8.189081208E0,-1.415306854E0,8.707392883E-1,3.001258850E-1,1.688595851E0
8.199150208E0,-1.512754211E0,7.773335266E-1,5.792953491E-1,1.796734765E0
8.209219208E0,-1.661694489E0,5.484594727E-1,9.726773071E-1,2.002033344E0
8.219288208E0,-1.773811340E0,2.866539001E-1,1.417103119E0,2.288396465E0
8.229357208E0,-2.081421661E0,1.038839722E-1,1.865420837E0,2.796945282E0
8.239426208E0,-2.453996887E0,1.212478638E-2,2.297123108E0,3.361401836E0
8.249495208E0,-2.709665222E0,-2.424957275E-2,2.567311249E0,3.732822083E0
8.259564208E0,-2.920576630E0,-2.046244812E-1,2.630629578E0,3.935968877E0
8.269633208E0,-2.932551727E0,-1.643582153E-1,2.522853699E0,3.871907029E0
8.279702208E0,-2.705324249E0,-5.358856201E-2,2.222428436E0,3.501548112E0
8.289771208E0,-2.214494934E0,-5.089416504E-2,1.775308228E0,2.838714028E0
8.299840208E0,-1.615440674E0,-1.347198486E-1,1.019829254E0,1.915163104E0
8.309909208E0,-1.008003845E0,-5.403762817E-2,3.736230469E-1,1.076376327E0
8.319978208E0,-3.582051086E-1,6.271957397E-2,-7.888595581E-2,3.721124008E-1
8.330047208E0,1.981878662E-1,5.373825073E-2,-4.403842163E-1,4.859058426E-1
8.340116208E0,6.581813049E-1,1.496887207E-2,-7.822732544E-1,1.022437354E0
8.350184208E0,9.851014709E-1,-2.903961182E-2,-1.079854431E0,1.461969151E0
8.360253208E0,1.179547119E0,-1.107696533E-1,-1.278042297E0,1.742697173E0
8.370322208E0,1.325343933E0,-1.431024170E-1,-1.490899658E0,1.999949158E0
8.380391208E0,1.412313080E0,-1.648072815E-1,-1.695075073E0,2.212480323E0
8.390460208E0,1.465302887E0,-1.604663086E-1,-1.892215118E0,2.398612107E0
8.400529208E0,1.698817291E0,-2.082170105E-1,-2.230511627E0,2.811497222E0
8.410598208E0,1.966011658E0,-1.779798889E-1,-2.688259735E0,3.335209001E0
8.420667208E0,2.109413452E0,8.232879639E-3,-3.080893250E0,3.733844682E0
8.430736208E0,2.211052094E0,2.897973633E-1,-3.341501312E0,4.017258380E0
8.440805208E0,2.244133301E0,3.869453430E-1,-3.666625214E0,4.316248536E0
8.450874208E0,2.340383148E0,3.890409851E-1,-4.112098846E0,4.747431210E0
8.460943208E0,2.648442535E0,4.908293152E-1,-4.862488403E0,5.558682825E0
8.471012208E0,2.789299622E0,5.863307190E-1,-5.634732513E0,6.314601063E0
8.481081208E0,2.648442535E0,7.676037598E-1,-6.768923950E0,7.309021469E0
8.491150208E0,2.149380341E0,1.093176727E0,-8.629554749E0,8.960138747E0
8.501219208E0,1.401385803E0,1.430874481E0,-1.047536636E1,1.066511061E1
8.511288208E0,9.789642334E-1,1.739382935E0,-1.185774170E1,1.202455247E1
8.521357208E0,4.972659302E-1,1.684147797E0,-1.252864655E1,1.265111108E1
8.531426208E0,-6.191125488E-1,1.362017670E0,-1.263492554E1,1.272319676E1
8.541494833E0,-2.751578064E0,1.188678131E0,-1.239467514E1,1.275194532E1
8.551563833E0,-4.414919128E0,9.575587463E-1,-1.211161377E1,1.292670174E1
8.561631833E0,-4.697681122E0,1.062340851E0,-1.289164169E1,1.376194759E1
8.571700833E0,-3.909120941E0,1.490300903E0,-1.520358398E1,1.576867747E1
8.581769833E0,-2.008672943E0,2.028431854E0,-1.896107025E1,1.917476174E1
8.591838833E0,7.078779602E-1,2.938090210E0,-2.340667557E1,2.360097300E1
8.601907833E0,4.764142914E0,3.802093506E0,-2.679068848E1,2.747533370E1
8.611976833E0,8.812923431E0,3.877237244E0,-2.851210876E1,3.009386872E1
8.622045833E0,9.779164124E0,3.336411896E0,-2.955079880E1,3.130516579E1
8.632114833E0,7.849377136E0,3.220103760E0,-2.981140686E1,3.099518944E1
8.642183833E0,4.541855164E0,3.745361481E0,-2.842933090E1,2.903244799E1
8.652252833E0,3.926933899E0,3.853586426E0,-2.659938629E1,2.716244262E1
8.662321833E0,3.539689178E0,3.715872803E0,-2.442964828E1,2.496286894E1
8.672390833E0,2.841241608E0,3.325484619E0,-2.303020844E1,2.344188564E1
8.682459833E0,2.721041565E0,3.019969940E0,-2.190380081E1,2.227780904E1
8.692528833E0,3.091221771E0,2.281256104E0,-2.071901459E1,2.107219369E1
8.702597833E0,3.473377075E0,1.878743134E0,-1.969394623E1,2.008595385E1
8.712666833E0,3.169508972E0,1.781744843E0,-1.946806595E1,1.980469625E1
8.722735833E0,2.748584290E0,2.073637848E0,-1.962149689E1,1.992129086E1
8.732804833E0,2.549947357E0,2.387385406E0,-1.952479797E1,1.983480720E1
8.742873833E0,2.829865265E0,2.239942017E0,-1.960173798E1,1.993122197E1
8.752942833E0,3.724105682E0,1.893412628E0,-1.991578491E1,2.034926198E1
8.763011833E0,4.935386810E0,1.418300629E0,-2.036515045E1,2.100259442E1
8.773079833E0,5.940696259E0,1.011147308E0,-2.067455704E1,2.153489261E1
8.783148833E0,5.925128632E0,5.131329346E-1,-2.061707657E1,2.145773289E1
8.793217833E0,4.920417938E0,-2.240840149E-1,-1.970397537E1,2.031027749E1
8.803286833E0,3.653452606E0,-1.278341675E0,-1.896361496E1,1.935460063E1
8.813355833E0,2.308798828E0,-1.833537140E0,-1.815828964E1,1.839608364E1
8.823424833E0,8.533753967E-1,-2.464325409E0,-1.682291656E1,1.702385594E1
8.833493833E0,-6.429130554E-1,-2.682721252E0,-1.510957947E1,1.535935292E1
8.843562833E0,-1.463057556E0,-2.984344025E0,-1.352063370E1,1.392315992E1
8.853631833E0,-1.972597961E0,-3.041076050E0,-1.267893402E1,1.318691223E1
8.863700833E0,-2.007924500E0,-2.854114838E0,-1.215202972E1,1.264316253E1
8.873769833E0,-1.672472076E0,-2.668800201E0,-1.217433334E1,1.257513617E1
8.883838833E0,-8.815168762E-1,-2.191891937E0,-1.147019760E1,1.171097328E1
8.893907833E0,-1.332229614E-1,-2.118544464E0,-9.631421356E0,9.862568446E0
8.903976833E0,-1.167572021E-2,-2.052082672E0,-7.620353394E0,7.891829031E0
8.914045833E0,-7.484436035E-4,-1.834734650E0,-5.856271820E0,6.136951314E0
8.924114833E0,5.972579956E-2,-1.578467560E0,-4.627926178E0,4.890074408E0
8.934183833E0,-8.771759033E-2,-1.393152924E0,-3.670666809E0,3.927131812E0
8.944252833E0,-4.730163574E-1,-1.139131165E0,-2.704725494E0,2.972693103E0
8.954321833E0,-8.158035278E-1,-9.577084351E-1,-1.807640991E0,2.202341208E0
8.964390833E0,-9.955796814E-1,-6.979985046E-1,-9.469308472E-1,1.541122592E0
8.974458833E0,-1.174158325E0,-4.626878357E-1,-7.619155884E-2,1.264331032E0
8.984527833E0,-1.287023621E0,-2.646496582E-1,6.379733276E-1,1.460643423E0
8.994596833E0,-1.361568604E0,-7.394622803E-2,1.386117554E0,1.944391673E0
9.004665833E0,-1.393452301E0,1.200503540E-1,2.102677460E0,2.525346294E0
9.014734833E0,-1.680555267E0,2.577639771E-1,2.628384247E0,3.130353338E0
9.024803833E0,-2.111209717E0,3.408412170E-1,3.054398346E0,3.728636273E0
9.034872833E0,-2.507585449E0,3.055146790E-1,3.296594696E0,4.153174761E0
9.044941833E0,-2.859952698E0,3.210823059E-1,3.450474701E0,4.493127969E0
9.055010833E0,-3.026406555E0,3.279679871E-1,3.311413879E0,4.498017510E0
9.065079833E0,-3.141517181E0,3.646417236E-1,3.007845154E0,4.364541930E0
9.075148833E0,-3.180436249E0,4.611909485E-1,2.702779541E0,4.199153375E0
9.085217833E0,-3.146606598E0,4.950205994E-1,2.381996613E0,3.977447214E0
9.095286833E0,-3.037932587E0,4.339476013E-1,1.928290100E0,3.624313401E0
9.105355833E0,-2.787503357E0,3.990701294E-1,1.322799225E0,3.111146046E0
9.115424833E0,-2.411784668E0,4.388873291E-1,6.318360901E-1,2.531510264E0
9.125493833E0,-1.925146637E0,5.989045715E-1,-1.240919495E-1,2.019969077E0
9.135562833E0,-1.297352142E0,7.767347717E-1,-8.723858643E-1,1.745708046E0
9.145631833E0,-7.408094788E-1,7.779322815E-1,-1.545386353E0,1.882072341E0
9.155700833E0,-2.212399292E-1,6.032455444E-1,-2.087708588E0,2.184348745E0
9.165769833E0,3.200344849E-1,3.968247986E-1,-2.636018372E0,2.684862165E0
9.175837833E0,7.934999084E-1,2.472857666E-1,-3.163222046E0,3.270591088E0
9.185906833E0,1.231040039E0,1.079255676E-1,-3.726800079E0,3.926340069E0
9.195975833E0,1.651665344E0,1.212478638E-1,-4.292174377E0,4.600593477E0
9.206044833E0,2.032024384E0,1.868115234E-1,-4.928650818E0,5.334380988E0
9.216113833E0,2.330354004E0,3.444337463E-1,-5.551804962E0,6.030897340E0
9.226182833E0,2.554438019E0,5.539979553E-1,-5.895340576E0,6.448806699E0
9.236251833E0,2.702330475E0,6.830296326E-1,-5.995182953E0,6.611455068E0
9.246320833E0,2.699935455E0,7.226971436E-1,-6.050268402E0,6.664659808E0
9.256389833E0,2.831661530E0,6.222560120E-1,-5.892795868E0,6.567385530E0
9.266458833E0,2.732717285E0,5.701643372E-1,-5.590724030E0,6.248922012E0
9.276527833E0,2.330653381E0,6.465055847E-1,-5.400619354E0,5.917482916E0
9.286596833E0,1.903441772E0,6.450086975E-1,-5.754034424E0,6.094919110E0
9.296665833E0,1.370250549E0,5.525010681E-1,-6.556216278E0,6.720626153E0
9.306734833E0,7.695497131E-1,8.505313110E-1,-7.627837830E0,7.713593211E0
9.316803833E0,-6.212081909E-2,1.375040588E0,-8.861572266E0,8.967834668E0
9.326872833E0,-1.460512848E0,1.784139862E0,-9.983938293E0,1.024672029E1
9.336941833E0,-3.125500488E0,2.423310699E0,-1.120914047E1,1.188637952E1
9.347010833E0,-4.940775604E0,3.508703613E0,-1.215577194E1,1.358252760E1
9.357079833E0,-7.070546722E0,3.712579651E0,-1.318158875E1,1.541201351E1
9.367148833E0,-5.757177887E0,3.035537567E0,-1.630484390E1,1.755584006E1
9.377216833E0,3.442840576E-1,2.785557404E0,-2.064102676E1,2.083098287E1
9.387285833E0,6.945257263E0,2.990032196E0,-2.508094391E1,2.619600424E1
9.397354833E0,1.161285095E1,4.038152618E0,-2.981470001E1,3.225029179E1
9.407423833E0,1.164338745E1,5.060376892E0,-3.249637344E1,3.488825264E1
9.417492833E0,8.756490784E0,5.508395233E0,-3.209894989E1,3.372478514E1
9.427561833E0,7.227270813E0,5.817502441E0,-3.038890594E1,3.177361142E1
9.437630833E0,7.021748199E0,5.931714935E0,-2.907478867E1,3.049317179E1
9.447699833E0,7.656278687E0,5.828130341E0,-2.800601120E1,2.961287507E1
9.457768833E0,8.642278290E0,5.143753510E0,-2.658741119E1,2.842600233E1
9.467837833E0,8.097561035E0,4.685706024E0,-2.392639481E1,2.569043994E1
9.477906833E0,6.174659729E0,4.065246277E0,-2.091780121E1,2.218573996E1
9.487975833E0,4.408632202E0,3.225642242E0,-1.762405060E1,1.845123208E1
9.498044833E0,2.501897278E0,2.394720154E0,-1.438583450E1,1.479683780E1
9.508113833E0,7.232958984E-1,1.675615540E0,-1.153606064E1,1.167953507E1
9.518182833E0,-9.322613525E-1,1.080453186E0,-9.032367096E0,9.144405157E0
9.528251833E0,-2.264191589E0,6.014492798E-1,-6.751859436E0,7.146741260E0
9.538320833E0,-3.013683014E0,3.390449524E-1,-5.041516113E0,5.883376710E0
9.548389750E0,-3.834875336E0,2.136058044E-1,-4.064198456E0,5.591923226E0
9.558458750E0,-4.269870758E0,1.454974365E-1,-3.310815125E0,5.405040479E0
9.568527750E0,-4.531077576E0,2.453398132E-1,-2.918331299E0,5.395137921E0
9.578595750E0,-4.484225006E0,-1.505868530E-1,-2.416275330E0,5.096011850E0
9.588664750E0,-3.628454590E0,-5.069956970E-1,-1.886227570E0,4.120750149E0
9.598733750E0,-3.613934784E0,-1.347198486E-1,-2.209255829E0,4.237863303E0
9.608802750E0,-3.350632324E0,-3.665876770E-1,-2.379601593E0,4.125969854E0
9.618871750E0,-2.816243591E0,-5.445675659E-1,-2.605930939E0,3.875391317E0
9.628940750E0,-2.232607269E0,-5.156776428E-1,-3.139271851E0,3.886577724E0
9.639009750E0,-1.945953369E0,-3.781137085E-1,-3.528013458E0,4.046799161E0
9.649078750E0,-1.755549316E0,-1.878593445E-1,-4.073030090E0,4.439236269E0
9.659147750E0,-1.544637909E0,-1.880090332E-1,-4.670737152E0,4.923112756E0
9.669216750E0,-1.508263550E0,-3.993695068E-1,-4.893024902E0,5.135761641E0
9.679285750E0,-1.603914642E0,-6.918612671E-1,-5.053042145E0,5.346442659E0
9.689354750E0,-1.773511963E0,-1.111588440E0,-5.206473083E0,5.611446829E0
9.699423750E0,-1.667981415E0,-1.555265808E0,-5.266348572E0,5.738940757E0
9.709492750E0,-1.559606781E0,-1.784439240E0,-5.223687286E0,5.736157736E0
9.719561750E0,-1.559307404E0,-1.822160797E0,-5.389093323E0,5.898646997E0
9.729630750E0,-1.488354950E0,-1.551224213E0,-6.025569763E0,6.397576728E0
9.739699750E0,-1.083147583E0,-1.222058716E0,-6.947053528E0,7.136398875E0
9.749768750E0,-2.466870117E-1,-8.652008057E-1,-7.955955505E0,8.006663158E0
9.759837750E0,5.554948425E-1,-6.439608765E-1,-9.002878418E0,9.042957477E0
9.769906750E0,1.020428009E0,-4.647834778E-1,-1.003588028E1,1.009832610E1
9.779974750E0,1.302142181E0,-1.050814819E-1,-1.084375031E1,1.092215808E1
9.790043750E0,1.276695099E0,2.538720703E-1,-1.134520752E1,1.141963813E1
9.800112750E0,1.328936462E0,4.212240601E-1,-1.161030624E1,1.169370399E1
9.810181750E0,1.525477753E0,5.298980713E-1,-1.184801193E1,1.195756083E1
9.820250750E0,1.664239197E0,5.031037903E-1,-1.197330139E1,1.209887399E1
9.830319750E0,1.701212311E0,3.730242920E-1,-1.194036987E1,1.206671882E1
9.840388750E0,1.989363098E0,3.870950317E-1,-1.178514267E1,1.195813513E1
9.850457750E0,2.395169220E0,4.574487305E-1,-1.176478500E1,1.201483504E1
9.860526750E0,2.701881409E0,4.860392761E-1,-1.168679718E1,1.200490007E1
9.870595750E0,3.016826477E0,5.507048035E-1,-1.125734024E1,1.166757160E1
9.880664750E0,3.088677063E0,6.396199036E-1,-1.052072205E1,1.098337981E1
9.890733750E0,2.678829346E0,6.336323547E-1,-9.815388794E0,1.019409014E1
9.900802750E0,2.235301666E0,5.457650757E-1,-9.153016205E0,9.437803701E0
9.910871750E0,1.883533173E0,3.936813354E-1,-8.457712097E0,8.673844368E0
9.920940750E0,1.627116394E0,3.338058472E-1,-7.945626984E0,8.117383955E0
9.931009750E0,1.340911560E0,2.948867798E-1,-7.598947906E0,7.721982343E0
9.941078750E0,1.186732178E0,2.489323425E-1,-7.288194122E0,7.388374255E0
9.951147750E0,1.072669373E0,2.665956116E-1,-7.001689911E0,7.088395757E0
9.961216750E0,9.833052063E-1,4.278103638E-1,-7.039411469E0,7.120619682E0
9.971284750E0,1.129102020E0,5.855822754E-1,-7.516918488E0,7.623768197E0
9.981353750E0,1.533261566E0,8.201445007E-1,-8.135881348E0,8.319620985E0
9.991422750E0,2.016007690E0,1.099014587E0,-9.023385773E0,9.310940386E0
1.000149175E1,2.387984161E0,1.353635101E0,-9.804162140E0,1.018117830E1
1.001156075E1,2.566862183E0,1.568139038E0,-1.024170227E1,1.067428250E1
1.002162975E1,2.623893585E0,1.669178925E0,-1.040875488E1,1.086338594E1
1.003169875E1,2.294728088E0,1.600920868E0,-1.011955627E1,1.049924492E1
1.004176775E1,1.949994965E0,1.569186859E0,-9.513316956E0,9.837074121E0
1.005183675E1,1.701511688E0,1.510957947E0,-8.919950867E0,9.205631940E0
1.006190575E1,1.384920044E0,1.539698181E0,-8.521778870E0,8.769799834E0
1.007197475E1,1.218017120E0,1.685195618E0,-8.453071747E0,8.705048646E0
1.008204375E1,1.018182678E0,1.802701263E0,-8.370293884E0,8.622542985E0
1.009211275E1,8.289761353E-1,1.875000916E0,-8.183632050E0,8.436507772E0
1.010218175E1,8.345146179E-1,1.853894806E0,-8.074359283E0,8.326380873E0
1.011225075E1,9.475296021E-1,1.777852936E0,-8.068521423E0,8.316225789E0
1.012231975E1,9.756710815E-1,1.755399628E0,-8.186176758E0,8.428929459E0
1.013238875E1,1.081051941E0,1.775757294E0,-8.646469574E0,8.892886110E0
1.014245775E1,1.116378479E0,1.789229279E0,-9.283395081E0,9.519929965E0
1.015252675E1,1.019529877E0,1.888472900E0,-9.896220703E0,1.012625080E1
1.016259575E1,8.806187439E-1,1.986968079E0,-1.054751633E1,1.076910545E1
1.017266375E1,7.604187012E-1,2.080523529E0,-1.124686203E1,1.146292808E1
1.018273275E1,6.942562866E-1,2.174078979E0,-1.202150116E1,1.223622088E1
1.019280175E1,7.720944214E-1,2.267185364E0,-1.284553757E1,1.306690838E1
1.020287075E1,1.200952606E0,2.242786102E0,-1.385159546E1,1.408329058E1
1.021293975E1,1.854194183E0,2.005529480E0,-1.520552994E1,1.544889398E1
1.022300875E1,2.930007019E0,1.600621490E0,-1.684147797E1,1.716922568E1
1.023307775E1,3.745511169E0,1.518292694E0,-1.871573044E1,1.914713118E1
1.024314675E1,4.292324066E0,1.659449158E0,-2.049014053E1,2.100056372E1
1.025321575E1,4.454886017E0,1.673968964E0,-2.156879745E1,2.208758034E1
1.026328475E1,4.624333649E0,1.638941803E0,-2.231873795E1,2.285162260E1
1.027335375E1,4.674928436E0,1.602567444E0,-2.286465271E1,2.339263820E1
1.028342275E1,4.470303955E0,1.451082458E0,-2.281525543E1,2.329431558E1
1.029349175E1,4.167333984E0,1.201401672E0,-2.232203110E1,2.273946153E1
1.030356075E1,4.339476013E0,9.147477722E-1,-2.187221649E1,2.231729531E1
1.031362975E1,4.744982758E0,6.854246521E-1,-2.181892731E1,2.233943279E1
1.032369875E1,5.179529114E0,5.087919617E-1,-2.189466980E1,2.250473187E1
1.033376775E1,5.767656097E0,2.746788025E-1,-2.174992081E1,2.250334109E1
1.034383675E1,6.518644409E0,3.074606323E-1,-2.137824371E1,2.235210418E1
1.035390575E1,6.549031219E0,4.855902100E-1,-2.092618378E1,2.193241380E1
1.036397475E1,5.934708710E0,6.857240295E-1,-2.021770706E1,2.108190370E1
1.037404275E1,4.787194977E0,8.599617004E-1,-1.935535034E1,1.995711294E1
1.038411175E1,3.339106293E0,9.069639587E-1,-1.845003296E1,1.877167895E1
1.039418075E1,2.025737457E0,8.834628296E-1,-1.763437912E1,1.777232246E1
1.040424975E1,1.195713501E0,7.821235657E-1,-1.688758209E1,1.694791660E1
1.041431875E1,1.138831787E0,8.396040344E-1,-1.618075195E1,1.624249385E1
1.042438775E1,1.729802856E0,9.545649719E-1,-1.517589157E1,1.530395691E1
1.043445675E1,2.097138977E0,9.836045837E-1,-1.385084702E1,1.404319881E1
1.044452575E1,1.899849243E0,1.033001862E0,-1.251562363E1,1.270107691E1
1.045459475E1,1.463955688E0,1.207089844E0,-1.118369339E1,1.134351048E1
1.046466375E1,1.532064056E0,1.558259583E0,-9.733658752E0,9.975946367E0
1.047473275E1,1.779948578E0,1.818418579E0,-8.475824432E0,8.849545914E0
1.048480175E1,1.383572845E0,1.883682861E0,-7.025340729E0,7.403914323E0
1.049487075E1,2.986289978E-1,1.798509979E0,-5.374872894E0,5.675656443E0
1.050493975E1,-8.897497559E-1,1.360520782E0,-3.649261322E0,3.994969289E0
1.051500875E1,-1.203796692E0,6.318360901E-1,-1.818717957E0,2.270699964E0
1.052507775E1,-1.222956848E0,-1.730401611E-1,-1.462458801E-1,1.243766138E0
1.053514675E1,-8.596623230E-1,-3.372486877E-1,6.623725891E-1,1.136438927E0
1.054521646E1,-4.622387695E-1,-1.959425354E-1,7.188052368E-1,8.767776946E-1
1.055528546E1,-7.899073792E-1,9.684860229E-2,8.175997925E-1,1.140965705E0
1.056535346E1,-1.320703583E0,2.652484131E-1,1.282682648E0,1.860077807E0
1.057542246E1,-1.754800873E0,1.661544800E-1,1.968107300E0,2.642040832E0
1.058549146E1,-2.210603027E0,1.502874756E-1,2.696193237E0,3.489815187E0
1.059556046E1,-2.534379730E0,4.959187317E-1,3.098257141E0,4.033387326E0
1.060562946E1,-2.873724060E0,8.720864868E-1,3.053500214E0,4.282836486E0
1.061569846E1,-2.851270752E0,1.045126648E0,2.942131805E0,4.228259000E0
1.062576746E1,-2.569706268E0,1.326541443E0,2.523452454E0,3.838087387E0
1.063583646E1,-2.386786652E0,1.231638794E0,1.632954254E0,3.143282398E0
1.064590546E1,-2.346969452E0,9.722282410E-1,1.109043732E0,2.771907531E0
1.065597446E1,-2.244432678E0,8.144563293E-1,8.427474976E-1,2.532003259E0
1.066604346E1,-2.028581543E0,5.650749207E-1,1.541793823E-1,2.111450692E0
1.067611246E1,-1.814077606E0,4.529580688E-1,-8.961863708E-1,2.073450888E0
1.068618146E1,-1.602717133E0,6.116281128E-1,-1.977238312E0,2.617682658E0
1.069625046E1,-1.344953156E0,8.057743835E-1,-3.089575195E0,3.464627864E0
1.070631946E1,-7.797285461E-1,9.286688232E-1,-4.068838806E0,4.245686237E0
1.071638846E1,-1.384620667E-1,8.214916992E-1,-4.703069916E0,4.776283805E0
1.072645746E1,2.906954956E-1,5.539979553E-1,-5.144801331E0,5.182701838E0
1.073652646E1,4.204756165E-1,4.357438660E-1,-5.429209900E0,5.462874024E0
1.074659546E1,6.782395935E-1,2.321672058E-1,-5.182073822E0,5.231424247E0
1.075666446E1,1.109193420E0,-4.939727783E-2,-4.565356293E0,4.698428271E0
1.076673246E1,1.077309723E0,-1.962419128E-1,-3.820654907E0,3.974482488E0
1.077680146E1,9.163943481E-1,-2.787203979E-1,-3.217409363E0,3.356960928E0
1.078687046E1,8.741821289E-1,-3.291654968E-1,-2.930755463E0,3.076015588E0
1.079693946E1,9.199868774E-1,-3.339555359E-1,-2.860102386E0,3.022927028E0
1.080700846E1,1.028511200E0,-3.890409851E-1,-2.819387054E0,3.026240496E0
1.081707746E1,1.243015137E0,-4.071533203E-1,-2.807262268E0,3.097027914E0
1.082714646E1,1.453028412E0,-2.959346008E-1,-3.059936829E0,3.400306199E0
1.083721546E1,1.694027252E0,-9.864486694E-2,-3.288062439E0,3.700109964E0
1.084728446E1,1.796114960E0,-4.685256958E-2,-3.390449524E0,3.837104649E0
1.085735346E1,1.828597412E0,-2.799179077E-2,-3.675905914E0,4.105707774E0
1.086742246E1,1.638492737E0,1.785786438E-1,-4.148922272E0,4.464314594E0
1.087749146E1,1.169817352E0,3.700305176E-1,-4.643493805E0,4.802856435E0
1.088756046E1,9.940827942E-1,4.297563171E-1,-5.059927826E0,5.174529998E0
1.089762946E1,1.080004120E0,6.011499023E-1,-5.689967651E0,5.822673096E0
1.090769846E1,9.993218994E-1,1.085692291E0,-6.467151489E0,6.633356646E0
1.091776746E1,8.975335693E-1,1.448537750E0,-6.764882355E0,6.976206806E0
1.092783646E1,-1.481918335E-2,1.922751617E0,-6.512956238E0,6.790860943E0
1.093790546E1,-2.211800537E0,3.006497955E0,-6.360872498E0,7.375079017E0
1.094797346E1,-5.240153046E0,4.076921997E0,-6.463708649E0,9.266068552E0
1.095804246E1,-7.318580933E0,3.769910431E0,-7.138804779E0,1.089662265E1
1.096811146E1,-7.123985596E0,3.322041779E0,-8.801247711E0,1.180038532E1
1.097818046E1,-4.517904968E0,3.994593201E0,-1.243509109E1,1.382026522E1
1.098824946E1,5.204676819E-1,4.050576782E0,-1.850407059E1,1.894937168E1
1.099831846E1,6.907386017E0,4.167633362E0,-2.474384491E1,2.602573746E1
1.100838746E1,1.204335571E1,4.490212555E0,-2.884591461E1,3.157991791E1
1.101845646E1,1.333636688E1,4.255051575E0,-3.123165344E1,3.422543385E1
1.102852546E1,1.093012070E1,3.387156372E0,-3.082509888E1,3.288049707E1
1.103859446E1,7.775730286E0,2.528541870E0,-2.758239212E1,2.876880012E1
1.104866346E1,5.954317932E0,2.144290924E0,-2.393477737E1,2.475733131E1
1.105873246E1,4.572990417E0,2.168241119E0,-2.171204956E1,2.229409355E1
1.106880146E1,3.384012909E0,2.087409210E0,-2.031754944E1,2.070293785E1
1.107887046E1,2.484533386E0,1.875150604E0,-1.959964233E1,1.984527842E1
1.108893946E1,2.353256378E0,1.501677246E0,-1.979393829E1,1.998981849E1
1.109900846E1,2.902763672E0,1.073567505E0,-2.031739975E1,2.055177162E1
1.110907746E1,3.257226562E0,7.770341492E-1,-2.143527512E1,2.169526046E1
1.111914646E1,3.548969879E0,8.226892090E-1,-2.274026138E1,2.303022997E1
1.112921546E1,3.698059845E0,1.182091827E0,-2.408027481E1,2.439124070E1
1.113928446E1,3.852688293E0,1.659000092E0,-2.585663086E1,2.619467213E1
1.114935246E1,3.720962219E0,2.159708862E0,-2.747057465E1,2.780543784E1
1.115942146E1,3.060984650E0,2.331551514E0,-2.776531174E1,2.803066705E1
1.116949046E1,2.323168945E0,2.297572174E0,-2.676673828E1,2.696542657E1
1.117955946E1,1.398841095E0,2.209106140E0,-2.526551010E1,2.540045092E1
1.118962846E1,4.415817261E-2,1.822160797E0,-2.333826782E1,2.340933499E1
1.119969746E1,-1.200802917E0,1.501228180E0,-2.089459946E1,2.098284776E1
1.120976646E1,-1.997895355E0,1.101858673E0,-1.837339233E1,1.851451388E1
1.121983546E1,-2.540966034E0,5.803431702E-1,-1.612416962E1,1.633346725E1
1.122990446E1,-2.992726593E0,2.384541321E-1,-1.461366074E1,1.491885897E1
1.123997346E1,-3.009192352E0,4.245172119E-1,-1.383767441E1,1.416745166E1
1.125004246E1,-2.293829956E0,8.274792480E-1,-1.329445404E1,1.351624526E1
1.126011146E1,-1.127305756E0,1.359173584E0,-1.201775894E1,1.214679798E1
1.127018046E1,-3.103047180E-1,1.686842194E0,-9.995314636E0,1.014140228E1
1.128024946E1,-3.480262756E-1,1.927841034E0,-7.833360443E0,8.074603964E0
1.129031846E1,-9.889933777E-1,1.932930450E0,-5.771098938E0,6.166028785E0
1.130038746E1,-1.481768646E0,1.828148346E0,-3.778742065E0,4.451590311E0
1.131045646E1,-1.350192261E0,1.888023834E0,-1.830543365E0,2.956102527E0
1.132052546E1,-1.109343109E0,1.932780762E0,-4.170327759E-1,2.267200905E0
1.133059446E1,-1.101559296E0,1.751208344E0,3.999682617E-1,2.107163533E0
1.134066246E1,-9.545649719E-1,1.442849579E0,1.202898560E0,2.107124614E0
1.135073146E1,-7.096742249E-1,9.848020935E-1,2.395618286E0,2.685602287E0
1.136080046E1,-1.066981201E0,5.242098999E-1,3.159779205E0,3.376010890E0
1.137086946E1,-1.352437592E0,4.712200928E-1,3.480711823E0,3.763839875E0
1.138093846E1,-1.755549316E0,6.283932495E-1,3.250939636E0,3.747724643E0
1.139100746E1,-1.838776245E0,8.840615845E-1,3.077749786E0,3.692588078E0
1.140107646E1,-1.866169281E0,1.087937622E0,3.072660370E0,3.755986928E0
1.141114546E1,-2.001487885E0,1.140927429E0,3.069217529E0,3.837677083E0
1.142121446E1,-2.236199799E0,1.112037506E0,2.837349701E0,3.779916703E0
1.143128346E1,-2.457140350E0,1.069376221E0,2.461631012E0,3.638781588E0
1.144135246E1,-2.460134125E0,7.833210754E-1,2.114203491E0,3.337020860E0
1.145142146E1,-2.382745056E0,5.261558533E-1,1.689087524E0,2.967714718E0
1.146149046E1,-2.361040192E0,3.679348755E-1,9.098080444E-1,2.556880431E0
1.147155946E1,-2.241438904E0,1.393601990E-1,-9.819580078E-2,2.247912819E0
1.148162846E1,-1.899250488E0,7.858657837E-2,-1.119072876E0,2.205822379E0
1.149169746E1,-1.406924286E0,-5.149291992E-2,-2.022444305E0,2.464217611E0
1.150176646E1,-1.085093536E0,-2.767744446E-1,-2.652783508E0,2.879460439E0
1.151183546E1,-8.283773804E-1,-4.945715332E-1,-3.010539551E0,3.161353899E0
1.152190446E1,-4.797523499E-1,-5.833369446E-1,-3.492237854E0,3.572977685E0
1.153197246E1,-1.675016785E-1,-5.697152710E-1,-3.930825806E0,3.975427501E0
1.154204146E1,9.909393311E-2,-5.020559692E-1,-4.184697876E0,4.215871928E0
1.155210975E1,4.641847229E-1,-4.031117249E-1,-4.431085510E0,4.473531638E0
1.156217875E1,9.973759460E-1,-2.655477905E-1,-4.752616882E0,4.863398157E0
1.157224775E1,1.467248840E0,-1.242416382E-1,-5.061724091E0,5.271556308E0
1.158231675E1,1.848655701E0,-1.314266968E-1,-5.179379425E0,5.500979195E0
1.159238575E1,2.044897614E0,-1.245410156E-1,-5.106031952E0,5.501697830E0
1.160245475E1,2.086960144E0,-1.522334290E-1,-4.835993500E0,5.269289401E0
1.161252375E1,1.934726715E0,-1.360670471E-1,-4.434079285E0,4.839704620E0
1.162259275E1,1.630409546E0,-7.110214233E-2,-4.048032074E0,4.364613897E0
1.163266175E1,1.435365143E0,2.061213684E-1,-3.599714355E0,3.880812100E0
1.164273075E1,1.161883850E0,7.816744995E-1,-3.336561584E0,3.618512445E0
1.165279975E1,1.193318481E0,1.065783691E0,-3.423231354E0,3.778679237E0
1.166286875E1,1.572030945E0,9.966275024E-1,-3.424578552E0,3.897728304E0
1.167293775E1,1.954485626E0,9.045689392E-1,-3.376678162E0,4.005023650E0
1.168300675E1,1.912123718E0,5.905220032E-1,-3.148702240E0,3.730852335E0
1.169307575E1,1.594933319E0,2.616558838E-1,-2.779270477E0,3.215061505E0
1.170314475E1,1.377285919E0,1.535806274E-1,-2.723735962E0,3.056017196E0
1.171321375E1,1.222956848E0,2.330653381E-1,-3.129542084E0,3.368082030E0
1.172328275E1,1.315165100E0,6.273454285E-1,-4.002975769E0,4.259933865E0
1.173335075E1,1.347946930E0,1.094374237E0,-5.510939941E0,5.777981908E0
1.174341975E1,6.336323547E-1,1.398392029E0,-6.911726990E0,7.080180803E0
1.175348875E1,-4.918771362E-1,1.349593506E0,-7.523055725E0,7.658962932E0
1.176355775E1,-2.044448547E0,1.229992218E0,-7.688012695E0,8.049732289E0
1.177362675E1,-3.919000397E0,1.358724518E0,-7.123386841E0,8.243017440E0
1.178369575E1,-5.293142853E0,1.431622925E0,-6.570736084E0,8.558123518E0
1.179376475E1,-4.936584320E0,9.265731812E-1,-8.523575134E0,9.893418806E0
1.180383375E1,-7.318281555E-1,7.768844604E-2,-1.393976212E1,1.395917533E1
1.181390275E1,7.026388550E0,5.819897461E-1,-2.195349747E1,2.305785981E1
1.182397175E1,1.332528992E1,1.977537689E0,-3.011991531E1,3.299520124E1
1.183404075E1,1.386596558E1,3.411405945E0,-3.416181015E1,3.702609843E1
1.184410975E1,1.149579437E1,3.804488525E0,-3.247421951E1,3.465836629E1
1.185417875E1,7.681725769E0,3.185525665E0,-2.796619400E1,2.917643726E1
1.186424775E1,4.304299164E0,2.246977386E0,-2.369437729E1,2.418676113E1
1.187431675E1,2.194586334E0,1.376986542E0,-1.978630417E1,1.995520318E1
1.188438575E1,7.601193237E-1,7.502398682E-1,-1.678145279E1,1.681540362E1
1.189445475E1,1.152603149E-2,2.743794250E-1,-1.568677917E1,1.568918283E1
1.190452375E1,1.598675537E-1,5.014572144E-2,-1.671094940E1,1.671178932E1
1.191459275E1,1.365759888E0,7.409591675E-2,-1.902678360E1,1.907588227E1
1.192466075E1,2.618953857E0,3.592529297E-1,-2.174453201E1,2.190462632E1
1.193472975E1,2.692301331E0,4.779560852E-1,-2.380784134E1,2.396435348E1
1.194479875E1,2.312840424E0,6.520440674E-1,-2.475342499E1,2.486978972E1
1.195486775E1,1.596579895E0,1.002016296E0,-2.473067230E1,2.480240425E1
1.196493675E1,9.361532593E-1,8.916957092E-1,-2.460523315E1,2.463917618E1
1.197500575E1,7.542814636E-1,6.104306030E-1,-2.445883759E1,2.447807799E1
1.198507475E1,1.417851562E0,4.634362793E-1,-2.441258377E1,2.445811364E1
1.199514375E1,2.340233459E0,2.630030823E-1,-2.469804016E1,2.481005947E1
1.200521275E1,3.491489410E0,2.938389587E-1,-2.562311646E1,2.586157258E1
1.201528175E1,4.752018127E0,5.120851135E-1,-2.657079575E1,2.699724234E1
1.202535075E1,5.650150452E0,6.384223938E-1,-2.682242249E1,2.741849980E1
1.203541975E1,5.405858459E0,5.908213806E-1,-2.601739655E1,2.657964068E1
1.204548875E1,4.438270569E0,5.791456604E-1,-2.412637894E1,2.453804833E1
1.205555775E1,3.166365509E0,4.432283020E-1,-2.186622894E1,2.209873956E1
1.206562675E1,1.878743134E0,1.372645569E-1,-1.983854553E1,1.992777976E1
1.207569575E1,9.509724426E-1,-7.319778442E-2,-1.825528793E1,1.828018720E1
1.208576475E1,7.732919312E-1,-7.050338745E-2,-1.710837296E1,1.712598541E1
1.209583375E1,1.033899994E0,2.674937439E-1,-1.617446503E1,1.620968294E1
1.210590275E1,1.454375610E0,1.012793884E0,-1.500285141E1,1.510716751E1
1.211597075E1,1.436263275E0,1.753753052E0,-1.311707291E1,1.331150268E1
1.212603975E1,8.885522461E-1,1.986519012E0,-1.041698776E1,1.064187093E1
1.213610875E1,3.248245239E-1,1.723815308E0,-7.055877228E0,7.270657029E0
1.214617775E1,-1.999841309E-1,1.283880157E0,-3.904630280E0,4.115152431E0
1.215624675E1,-8.306227112E-1,6.706054688E-1,-1.544188843E0,1.877275943E0
1.216631575E1,-1.401086426E0,-3.203338623E-2,3.782633972E-1,1.451603427E0
1.217638475E1,-1.732048187E0,-7.400610352E-1,2.045047302E0,2.780269722E0
1.218645375E1,-2.036964111E0,-1.275647278E0,3.044369202E0,3.878747556E0
1.219652275E1,-2.172582092E0,-1.405128021E0,3.559448090E0,4.400473657E0
1.220659175E1,-2.188598785E0,-1.365610199E0,3.764671326E0,4.563727210E0
1.221666075E1,-1.966311035E0,-1.178648987E0,3.795207825E0,4.433869073E0
1.222672975E1,-1.446292419E0,-6.617738342E-1,3.474873962E0,3.821577609E0
1.223679875E1,-1.335822144E0,-2.836601257E-1,2.650238800E0,2.981383834E0
1.224686775E1,-1.450034637E0,-7.020401001E-2,2.310894470E0,2.729058868E0
1.225693675E1,-1.805994415E0,2.601589966E-1,2.748284912E0,3.298843508E0
1.226700575E1,-2.290836182E0,4.213737488E-1,3.148402863E0,3.916366534E0
1.227707475E1,-2.621199188E0,4.023632813E-1,3.176394653E0,4.137881631E0
1.228714375E1,-2.855012970E0,3.234773254E-1,2.951861572E0,4.119371722E0
1.229721275E1,-3.399580536E0,1.023870850E-1,2.718047791E0,4.353781658E0
1.230728075E1,-3.851041718E0,-1.128652954E-1,2.338886261E0,4.507066654E0
1.231734975E1,-3.829037476E0,-2.559677124E-1,1.514101410E0,4.125475795E0
1.232741875E1,-3.480861511E0,-8.607101440E-2,3.285667419E-1,3.497393484E0
1.233748775E1,-2.919828186E0,2.665956116E-1,-1.186133423E0,3.162812412E0
1.234755675E1,-1.808539124E0,5.331912231E-1,-2.837050323E0,3.406458745E0
1.235762575E1,-3.141966248E-1,4.906796265E-1,-4.516707458E0,4.554133538E0
1.236769475E1,1.210083618E0,6.990463257E-2,-5.768404541E0,5.894376979E0
1.237776375E1,2.537672882E0,-5.939648438E-1,-6.333629150E0,6.848900357E0
1.238783275E1,3.329975281E0,-5.554948425E-1,-6.548881531E0,7.367846306E0
1.239790175E1,2.487227783E0,6.514453125E-1,-6.593488770E0,7.077059926E0
1.240797075E1,2.654729462E0,5.328918457E-2,-6.547085266E0,7.065037419E0
1.241803975E1,2.611768799E0,-6.700067139E-1,-5.689817963E0,6.296369883E0
1.242810875E1,2.143692169E0,-5.945635986E-1,-5.385051727E0,5.826465832E0
1.243817775E1,1.128054199E0,1.275347900E-1,-5.063520355E0,5.189220538E0
1.244824675E1,7.460485840E-1,6.956034851E-1,-4.978197784E0,5.081624335E0
1.245831575E1,1.023421783E0,6.405180359E-1,-4.622088318E0,4.777170284E0
1.246838475E1,1.436712341E0,8.875044250E-1,-3.669618988E0,4.039543288E0
1.247845375E1,1.882335663E0,1.024020538E0,-3.064577179E0,3.739443661E0
1.248852275E1,2.221829681E0,9.560618591E-1,-3.061733093E0,3.901895814E0
1.249859175E1,2.418820038E0,1.015488281E0,-3.064427490E0,4.033933895E0
1.250865975E1,2.163900146E0,1.007405090E0,-2.590063934E0,3.522181149E0
1.251872875E1,1.568737793E0,7.453001404E-1,-1.714085541E0,2.440184379E0
1.252879775E1,9.580078125E-1,2.942880249E-1,-9.292675781E-1,1.366719665E0
1.253886675E1,5.815406799E-1,-1.225950623E-1,-4.056564331E-1,7.195667123E-1
1.254893596E1,4.291575623E-1,-3.318598938E-1,-2.392025757E-1,5.928955005E-1
1.255900496E1,6.018983459E-1,-7.024891663E-1,-5.956114197E-1,1.100238888E0
1.256907396E1,1.015637970E0,-1.001567230E0,-9.836045837E-1,1.732667129E0
1.257914296E1,1.581910400E0,-1.222807159E0,-1.640139313E0,2.586069378E0
1.258921196E1,1.952988739E0,-1.317560120E0,-2.661615143E0,3.554479547E0
1.259928096E1,1.809886322E0,-1.224603424E0,-3.903582458E0,4.473622476E0
1.260934996E1,1.539099426E0,-1.302890625E0,-5.098248138E0,5.482561911E0
1.261941896E1,1.501826935E0,-1.270258484E0,-6.521039429E0,6.811240415E0
1.262948796E1,1.417103119E0,-1.405128021E0,-8.489745483E0,8.721143525E0
1.263955696E1,1.430275726E0,-1.590742035E0,-1.027119095E1,1.049159246E1
1.264962596E1,1.940714264E0,-1.675316162E0,-1.185759201E1,1.213159282E1
1.265969496E1,2.883154449E0,-1.874701538E0,-1.404963364E1,1.446441464E1
1.266976396E1,4.595892792E0,-2.102976837E0,-1.714833984E1,1.787764810E1
1.267983296E1,6.951993256E0,-2.167792053E0,-2.101599701E1,2.224188982E1
1.268990096E1,9.295370178E0,-2.266586609E0,-2.430869980E1,2.612382452E1
1.269996996E1,1.034064651E1,-2.113155670E0,-2.645284103E1,2.848064599E1
1.271003896E1,9.442214813E0,-1.493294678E0,-2.792218552E1,2.951328165E1
1.272010796E1,7.394922180E0,-6.938072205E-1,-2.810031509E1,2.906533934E1
1.273017696E1,4.929698639E0,-6.246510315E-1,-2.649625076E1,2.695817913E1
1.274024596E1,3.417842560E0,-9.761201477E-1,-2.460223938E1,2.485768776E1
1.275031496E1,3.646566925E0,-1.832489319E0,-2.320250015E1,2.355868164E1
1.276038396E1,4.328249359E0,-2.685565338E0,-2.215647537E1,2.273445413E1
1.277045296E1,5.627248077E0,-3.743565216E0,-2.220437576E1,2.321022414E1
1.278052196E1,7.492968292E0,-4.138144684E0,-2.272050247E1,2.427941613E1
1.279059096E1,9.471404114E0,-3.511847076E0,-2.366324203E1,2.572915835E1
1.280065996E1,1.011416748E1,-2.350262604E0,-2.509875687E1,2.716187980E1
1.281072896E1,9.033115540E0,-1.303190002E0,-2.538451263E1,2.697533989E1
1.282079796E1,6.663243713E0,-4.840933228E-1,-2.399899384E1,2.491154086E1
1.283086696E1,4.175117798E0,1.103205872E-1,-2.185919357E1,2.225462026E1
1.284093596E1,2.247576141E0,2.921923828E-1,-1.998389328E1,2.011201048E1
1.285100496E1,1.458566895E0,8.831634521E-2,-1.841515549E1,1.847303897E1
1.286107396E1,2.007026367E0,-8.457412720E-1,-1.703457642E1,1.717324159E1
1.287114296E1,3.582350464E0,-1.389710083E0,-1.599738327E1,1.645237978E1
1.288121196E1,4.982987823E0,-1.280437317E0,-1.631008301E1,1.710229502E1
1.289127996E1,5.576353912E0,-1.265917511E0,-1.678534470E1,1.773262718E1
1.290134896E1,4.920268250E0,-8.327183533E-1,-1.579500412E1,1.656455899E1
1.291141796E1,3.271147614E0,-3.662882996E-1,-1.486124588E1,1.522140608E1
1.292148696E1,1.821112976E0,-1.851649475E-1,-1.425560532E1,1.437264838E1
1.293155596E1,5.848338318E-1,-5.403762817E-2,-1.357961105E1,1.359230617E1
1.294162496E1,-2.386038208E-1,-1.402583313E-1,-1.311901886E1,1.312193812E1
1.295169396E1,-3.951782227E-1,-1.788780212E-1,-1.271441025E1,1.272180770E1
1.296176296E1,-3.323089600E-1,-1.956431580E-1,-1.203527252E1,1.204144884E1
1.297183196E1,1.079255676E-1,-8.681945801E-3,-1.091275681E1,1.091329393E1
1.298190096E1,7.328759766E-1,3.754193115E-1,-1.038121216E1,1.041381835E1
1.299196996E1,1.708696747E0,5.113366699E-1,-1.029978149E1,1.045306695E1
1.300203896E1,2.485581207E0,6.256988525E-1,-9.856852570E0,1.018465294E1
1.301210796E1,2.750380554E0,8.969348145E-1,-9.008267212E0,9.461393313E0
1.302217696E1,2.584824829E0,1.031205597E0,-7.916287994E0,8.391204919E0
1.303224596E1,2.375859375E0,1.189576263E0,-6.589746552E0,7.105248699E0
1.304231496E1,2.197580109E0,1.309626617E0,-5.209616547E0,5.803842242E0
1.305238396E1,1.901495819E0,1.249302063E0,-4.105961609E0,4.694183926E0
1.306245296E1,1.457818451E0,1.063987427E0,-3.269650726E0,3.734691386E0
1.307252196E1,9.095086670E-1,9.505233765E-1,-2.598745880E0,2.912761723E0
1.308258996E1,3.164419556E-1,8.797206116E-1,-2.202220459E0,2.392450379E0
1.309265896E1,-1.194515991E-1,8.675958252E-1,-2.101030884E0,2.276251738E0
1.310272796E1,-3.306623840E-1,7.364685059E-1,-1.926194458E0,2.088527846E0
1.311279696E1,-6.415658569E-1,6.789880371E-1,-1.443148956E0,1.719101630E0
1.312286596E1,-8.449928284E-1,6.462062073E-1,-8.027806091E-1,1.332686028E0
1.313293496E1,-1.129102020E0,4.842430115E-1,-1.222956848E-1,1.234633104E0
1.314300396E1,-1.566791840E0,3.930825806E-1,6.590794373E-1,1.744630703E0
1.315307296E1,-2.002236328E0,2.883004761E-1,1.338516541E0,2.425632702E0
1.316314196E1,-2.503394165E0,3.517684937E-2,1.847607880E0,3.111571088E0
1.317321096E1,-2.937940521E0,-2.089654541E-1,2.210303650E0,3.682472443E0
1.318327996E1,-3.326981506E0,-4.665797424E-1,2.336191864E0,4.091979353E0
1.319334896E1,-3.606150970E0,-6.319857788E-1,2.239043884E0,4.291508868E0
1.320341796E1,-3.670367432E0,-6.834786987E-1,1.902992706E0,4.190479860E0
1.321348696E1,-3.288661194E0,-5.360353088E-1,1.158890076E0,3.527839637E0
1.322355596E1,-2.611319733E0,-4.929249573E-1,1.618135071E-1,2.662357859E0
1.323362496E1,-1.809437256E0,-5.054988098E-1,-6.647676086E-1,1.992864321E0
1.324369396E1,-1.113983459E0,-5.400769043E-1,-1.306034088E0,1.799546401E0
1.325376296E1,-5.423222351E-1,-5.891748047E-1,-1.638941803E0,1.824108163E0
1.326383196E1,-1.796264648E-3,-6.456074524E-1,-1.718725891E0,1.835982271E0
1.327389996E1,5.002597046E-1,-6.689588928E-1,-1.804796906E0,1.988732672E0
1.328396896E1,9.364526367E-1,-5.788462830E-1,-2.243833923E0,2.499359365E0
1.329403796E1,1.147962799E0,-5.390290833E-1,-2.725382538E0,3.006007471E0
1.330410696E1,1.263672180E0,-5.447172546E-1,-2.738555145E0,3.064843968E0
1.331417596E1,1.400337982E0,-5.384303284E-1,-2.642454987E0,3.038654643E0
1.332424496E1,1.440903625E0,-5.405259705E-1,-2.624642029E0,3.042551127E0
1.333431396E1,1.581311646E0,-5.733078003E-1,-2.646197205E0,3.135536318E0
1.334438296E1,1.714235229E0,-5.995033264E-1,-2.636168060E0,3.201154277E0
1.335445196E1,1.860630798E0,-5.182223511E-1,-2.765948181E0,3.373569432E0
1.336452096E1,2.143991547E0,-4.270619202E-1,-3.172652435E0,3.852895679E0
1.337458996E1,2.264490967E0,-3.492237854E-1,-3.682641907E0,4.337248898E0
1.338465896E1,2.172881470E0,-1.398092651E-1,-4.019441528E0,4.571309518E0
1.339472796E1,2.115700378E0,3.472778320E-2,-4.665647736E0,5.123052108E0
1.340479696E1,2.042053528E0,2.306703186E-1,-5.711822205E0,6.070263940E0
1.341486596E1,1.700763245E0,4.586462402E-1,-6.744674377E0,6.970909872E0
1.342493496E1,1.403780823E0,6.837780762E-1,-7.458390198E0,7.620087755E0
1.343500396E1,8.598120117E-1,1.156495056E0,-8.325387268E0,8.449191125E0
1.344507296E1,6.478527832E-1,1.590742035E0,-9.519753571E0,9.673462746E0
1.345514196E1,8.517288208E-1,1.868863678E0,-1.076681030E1,1.096094419E1
1.346521096E1,5.251080322E-1,2.123184814E0,-1.235949829E1,1.255152780E1
1.347527896E1,4.351451111E-1,1.810934143E0,-1.458207642E1,1.470053694E1
1.348534796E1,3.028951263E0,2.513273621E-1,-1.748543884E1,1.774762752E1
1.349541696E1,5.493276672E0,6.423143005E-1,-2.202519836E1,2.270898543E1
1.350548596E1,9.200467529E0,1.211131439E0,-2.939796661E1,3.082784266E1
1.351555496E1,1.158830200E1,2.262395325E0,-3.557172821E1,3.748006168E1
1.352562396E1,1.129655869E1,2.976709900E0,-3.891502579E1,4.063068141E1
1.353569296E1,8.741072845E0,3.170107727E0,-3.922128891E1,4.030837929E1
1.354576258E1,6.402336273E0,2.117945709E0,-3.631972275E1,3.694046378E1
1.355583158E1,4.434678040E0,6.095324707E-1,-2.962279907E1,2.995910753E1
1.356590058E1,2.159858551E0,-4.632865906E-1,-2.382355865E1,2.392575120E1
1.357596958E1,1.775757294E0,-1.482966156E0,-2.070434509E1,2.083320447E1
1.358603858E1,2.772983551E0,-2.178270264E0,-2.015468811E1,2.046083459E1
1.359610758E1,4.300257568E0,-2.310146027E0,-2.226514938E1,2.279398752E1
1.360617658E1,6.430477753E0,-1.349144440E0,-2.605436966E1,2.687008398E1
1.361624558E1,8.777596893E0,-3.614982605E-1,-3.017874298E1,3.143140812E1
1.362631458E1,9.009614410E0,-2.718347168E-1,-3.273437851E1,3.395271097E1
1.363638358E1,6.947801971E0,-6.872209167E-1,-3.178011292E1,3.253797476E1
1.364645258E1,4.343667297E0,-1.194366302E0,-2.880235519E1,2.915252341E1
1.365652158E1,2.506387939E0,-1.661095734E0,-2.535262894E1,2.553031558E1
1.366658958E1,1.191971283E0,-1.792522430E0,-2.250450165E1,2.260722289E1
1.367665858E1,1.404080200E-1,-1.721719666E0,-1.966011658E1,1.973586119E1
1.368672758E1,-1.971400452E-1,-1.500779114E0,-1.689446777E1,1.696214148E1
1.369679658E1,-4.703219604E-1,-1.317859497E0,-1.411429916E1,1.418349031E1
1.370686558E1,-8.039781189E-1,-1.161135406E0,-1.134969818E1,1.143723153E1
1.371693458E1,-1.575473785E0,-1.235830078E0,-9.060209198E0,9.278835290E0
1.372700358E1,-1.884281616E0,-1.093027039E0,-7.476053467E0,7.786950671E0
1.373707258E1,-1.562450867E0,-3.921844482E-1,-6.641538849E0,6.834112937E0
1.374714158E1,-7.235952759E-1,6.153703308E-1,-6.177054749E0,6.249662082E0
1.375721058E1,3.682342529E-1,8.346643066E-1,-4.955744476E0,5.039014218E0
1.376727958E1,1.223705292E0,9.258247375E-1,-3.643872528E0,3.953784654E0
1.377734858E1,1.136287079E0,4.096980286E-1,-3.001857605E0,3.235761098E0
1.378741758E1,-2.594105530E-1,-6.680607605E-1,-2.133513336E0,2.250661718E0
1.379748658E1,-1.789678345E0,-1.515598297E0,-1.380130005E-1,2.349262515E0
1.380755558E1,-2.974464569E0,-2.014660492E0,2.016905823E0,4.119976392E0
1.381762458E1,-3.667523346E0,-1.971550140E0,3.370241547E0,5.356889539E0
1.382769358E1,-3.448828125E0,-1.709145813E0,3.471730499E0,5.183484109E0
1.383776258E1,-2.719544678E0,-1.157991943E0,2.562371521E0,3.911855878E0
1.384783158E1,-1.834435272E0,-4.619393921E-1,1.814376984E0,2.621164743E0
1.385790058E1,-1.016685791E0,-4.385879517E-2,1.523831177E0,1.832385071E0
1.386796858E1,-6.490502930E-1,2.586621094E-1,1.613494720E0,1.758276879E0
1.387803758E1,-4.176315308E-2,4.266128540E-1,2.015259247E0,2.060342816E0
1.388810658E1,4.619393921E-1,1.769320679E-1,2.737806702E0,2.782135600E0
1.389817558E1,4.519102478E-1,-1.887574768E-1,3.584745483E0,3.618045389E0
1.390824458E1,-6.137237549E-2,-5.783972168E-1,4.262236633E0,4.301740465E0
1.391831358E1,-5.894741821E-1,-8.125103760E-1,4.572691040E0,4.681576259E0
1.392838258E1,-1.150806885E0,-8.946894836E-1,4.508025513E0,4.737839147E0
1.393845158E1,-1.823807373E0,-1.034349060E0,4.399351501E0,4.873442823E0
1.394852058E1,-2.140848083E0,-1.146166534E0,4.288132782E0,4.927982447E0
1.395858958E1,-2.095941467E0,-1.188079376E0,4.149820404E0,4.798490661E0
1.396865858E1,-2.038910065E0,-1.061592407E0,4.062252502E0,4.667550544E0
1.397872758E1,-1.979034576E0,-8.379574585E-1,3.850892029E0,4.410002265E0
1.398879658E1,-1.649869080E0,-5.195695496E-1,3.002755737E0,3.465337287E0
1.399886558E1,-7.553292847E-1,-1.092727661E-1,1.739382935E0,1.899451463E0
1.400893458E1,4.547543335E-1,1.695973206E-1,3.709286499E-1,6.108623563E-1
1.401900358E1,1.889071655E0,1.675016785E-1,-8.249345398E-1,2.068130926E0
1.402907258E1,3.088377686E0,2.013313293E-1,-1.879341888E0,3.620847548E0
1.403914158E1,3.786525879E0,5.197192383E-1,-2.756068726E0,4.712090952E0
1.404921058E1,3.956721954E0,7.415579224E-1,-3.328628082E0,5.223535363E0
1.405927858E1,3.608246613E0,7.119195557E-1,-3.640579376E0,5.174948431E0
1.406934758E1,2.922073517E0,5.921685791E-1,-3.597019958E0,4.672015608E0
1.407941658E1,2.132016449E0,4.978646851E-1,-3.285368042E0,3.948038317E0
1.408948558E1,1.606908417E0,4.390370178E-1,-3.061733093E0,3.485558448E0
1.409955458E1,1.347348175E0,4.043092346E-1,-3.347189484E0,3.630769960E0
1.410962358E1,1.596729584E0,4.382885742E-1,-3.961961060E0,4.294039785E0
1.411969258E1,2.117646332E0,5.269042969E-1,-4.699776764E0,5.181694294E0
1.412976158E1,2.629581757E0,7.012916565E-1,-5.835914154E0,6.439286002E0
1.413983058E1,2.715802460E0,7.702981567E-1,-7.411088562E0,7.930521794E0
1.414989958E1,1.721420288E0,7.264393616E-1,-9.637408905E0,9.816855523E0
1.415996858E1,2.267784119E-1,6.376739502E-1,-1.212763046E1,1.214650061E1
1.417003758E1,-5.966592407E-1,5.501060486E-1,-1.472428070E1,1.474662880E1
1.418010658E1,-1.933978271E-1,7.879614258E-1,-1.875659546E1,1.877413538E1
1.419017558E1,2.409988403E0,1.119372253E0,-2.453577759E1,2.467925080E1
1.420024458E1,6.741231537E0,1.878443756E0,-2.987218048E1,3.068093741E1
1.421031358E1,8.435258789E0,1.966909790E0,-3.508718582E1,3.614046117E1
1.422038258E1,7.307204590E0,1.581311646E0,-3.930182144E1,4.000661138E1
1.423045158E1,4.547842712E0,1.530267792E0,-4.217165359E1,4.244376232E1
1.424052058E1,1.238225098E0,8.554710388E-1,-4.385699890E1,4.388281423E1
1.425058858E1,-9.138496399E-1,-3.592529297E-2,-4.444527557E1,4.445468403E1
1.426065758E1,-1.346000977E0,2.218386841E-1,-4.511079163E1,4.513141314E1
1.427072658E1,7.701484680E-1,9.836045837E-1,-4.541870132E1,4.543587830E1
1.428079558E1,3.298091583E0,1.375040588E0,-4.408901642E1,4.423357903E1
1.429086458E1,4.565955048E0,1.100960541E0,-4.102593613E1,4.129391595E1
1.430093358E1,5.275778961E0,4.825964355E-1,-3.591391663E1,3.630256396E1
1.431100258E1,4.178261261E0,-7.860154724E-1,-3.034175400E1,3.063817428E1
1.432107158E1,2.498753815E0,-2.574945374E0,-2.364033966E1,2.391108056E1
1.433114058E1,1.572030945E0,-4.062551880E0,-1.695105011E1,1.750182016E1
1.434120958E1,1.349892883E0,-4.571942596E0,-1.111588440E1,1.209494754E1
1.435127858E1,1.446591797E0,-4.006867676E0,-6.359076233E0,7.654114379E0
1.436134758E1,-2.026785278E-1,-2.451003113E0,-2.042502594E0,3.196922222E0
1.437141658E1,-2.485431519E0,1.441502380E-1,1.193318481E0,2.760825623E0
1.438148558E1,-3.629652100E0,2.015109558E0,3.404071198E0,5.368681553E0
1.439155458E1,-4.135300598E0,2.617307281E0,5.095853119E0,7.065318638E0
1.440162358E1,-4.038901062E0,2.211201782E0,5.734125824E0,7.354069219E0
1.441169258E1,-2.551144867E0,9.123527527E-1,5.658832397E0,6.274002851E0
1.442176158E1,-1.446591797E0,-5.411247253E-1,5.388045502E0,5.605040421E0
1.443183058E1,-1.603315887E0,-1.247655487E0,4.921166382E0,5.324015835E0
1.444189858E1,-2.459086304E0,-1.179996185E0,4.830754395E0,5.547583660E0
1.445196758E1,-3.619024200E0,-1.003363495E0,5.243446198E0,6.449635842E0
1.446203658E1,-4.755460968E0,-1.187779999E0,5.341941376E0,7.249935724E0
1.447210558E1,-5.532345428E0,-1.484013977E0,5.061125336E0,7.643568086E0
1.448217458E1,-5.292843475E0,-1.714534607E0,4.668192444E0,7.262633246E0
1.449224358E1,-4.281097412E0,-1.564845886E0,4.011957092E0,6.072259663E0
1.450231258E1,-3.077300720E0,-1.188678131E0,2.649340668E0,4.231044953E0
1.451238158E1,-1.822609863E0,-7.313790894E-1,6.309379578E-1,2.062742057E0
1.452245058E1,-4.581971741E-1,1.085243225E-1,-1.740580444E0,1.803147931E0
1.453251958E1,8.741821289E-1,8.725355530E-1,-3.836821289E0,4.030720815E0
1.454258858E1,1.908531189E0,1.251996460E0,-4.856949921E0,5.366558391E0
1.455265696E1,2.699636078E0,1.059197388E0,-4.912484436E0,5.704597917E0
1.456272596E1,3.391946411E0,3.430865479E-1,-4.420457611E0,5.582423696E0
1.457279496E1,3.845353546E0,-3.249742126E-1,-3.571123810E0,5.257877652E0
1.458286396E1,3.972588959E0,-6.935078430E-1,-2.714305573E0,4.861056563E0
1.459293296E1,3.740122375E0,-9.098080444E-1,-2.230062561E0,4.448532914E0
1.460300196E1,3.483106842E0,-9.584568787E-1,-2.199226685E0,4.229334566E0
1.461307096E1,3.156935120E0,-7.785310364E-1,-2.141147461E0,3.893181523E0
1.462313996E1,2.724933472E0,-5.902226257E-1,-1.918710022E0,3.384534432E0
1.463320896E1,2.536325684E0,-3.680845642E-1,-1.989961853E0,3.244746892E0
1.464327696E1,2.605631561E0,-6.930587769E-2,-2.516117706E0,3.622839694E0
1.465334596E1,2.564018097E0,1.633103943E-1,-2.832859039E0,3.824388765E0
1.466341496E1,2.270927582E0,3.013233948E-1,-2.814597015E0,3.629030756E0
1.467348396E1,1.710343323E0,3.635939026E-1,-2.685864716E0,3.204893770E0
1.468355296E1,1.206341400E0,2.984793091E-1,-2.272274780E0,2.589900027E0
1.469362196E1,8.358618164E-1,1.853146362E-1,-1.770069122E0,1.966253083E0
1.470369096E1,5.565426636E-1,2.038760376E-1,-1.559457092E0,1.668296016E0
1.471375996E1,2.502795410E-1,1.933978271E-1,-1.533111877E0,1.565399181E0
1.472382896E1,3.743714905E-1,-5.298980713E-2,-1.666634216E0,1.708985531E0
1.473389796E1,5.909710693E-1,-3.713777161E-1,-2.153421936E0,2.263712492E0
1.474396696E1,5.442681885E-1,-5.162763977E-1,-2.778971100E0,2.878445684E0
1.475403596E1,3.441343689E-1,-4.912783813E-1,-3.548520813E0,3.598858551E0
1.476410496E1,-8.158035278E-2,-4.450245667E-1,-4.657115479E0,4.679041226E0
1.477417396E1,-3.613485718E-1,-2.541714478E-1,-6.325845337E0,6.341253436E0
1.478424296E1,-6.789880371E-1,2.558180237E-1,-8.722661133E0,8.752787262E0
1.479431196E1,-7.676037598E-1,7.140151978E-1,-1.156794434E1,1.161535059E1
1.480438096E1,-6.021977234E-1,8.976832581E-1,-1.432775528E1,1.436847412E1
1.481444996E1,-6.286926270E-1,1.217867432E0,-1.662188461E1,1.667829438E1
1.482451796E1,-3.076103210E-1,1.941612396E0,-1.851380035E1,1.861787545E1
1.483458696E1,-1.924996948E-1,2.378853149E0,-1.961416214E1,1.975882980E1
1.484465596E1,-5.240602112E-1,2.792592773E0,-2.094908615E1,2.114089459E1
1.485472496E1,-6.233038330E-1,3.351081390E0,-2.322989319E1,2.347863266E1
1.486479396E1,2.483335876E-1,3.669768677E0,-2.635883652E1,2.661422804E1
1.487486296E1,1.823058929E0,4.398902435E0,-3.001483383E1,3.039019803E1
1.488493196E1,3.745810547E0,5.456902313E0,-3.337983627E1,3.402972743E1
1.489500096E1,5.729335785E0,6.454577637E0,-3.599400009E1,3.701425271E1
1.490506996E1,7.638615417E0,7.167994080E0,-3.792318832E1,3.934331960E1
1.491513896E1,8.527317352E0,7.106771393E0,-3.727608398E1,3.889380128E1
1.492520796E1,8.029752045E0,6.291865997E0,-3.371424088E1,3.522377795E1
1.493527696E1,5.836812286E0,4.746180267E0,-2.962010468E1,3.056051711E1
1.494534596E1,4.230203247E0,3.110681305E0,-2.591905106E1,2.644556986E1
1.495541496E1,3.045417023E0,1.801054688E0,-2.358241013E1,2.384635046E1
1.496548396E1,2.296823730E0,5.963598633E-1,-2.303200470E1,2.315392591E1
1.497555296E1,2.286195831E0,-3.068618774E-1,-2.345607285E1,2.356922164E1
1.498562196E1,2.591261444E0,-7.427554321E-1,-2.420002579E1,2.434969342E1
1.499569096E1,2.212848358E0,-7.752378845E-1,-2.446811829E1,2.458020553E1
1.500575996E1,9.821076965E-1,-6.971003723E-1,-2.344484619E1,2.347575978E1
1.501582896E1,-7.800279236E-1,-4.059558105E-1,-2.137240585E1,2.139048797E1
1.502589696E1,-2.436333618E0,-2.324665833E-1,-1.929831894E1,1.945288863E1
1.503596596E1,-2.861449585E0,2.969824219E-1,-1.713965790E1,1.737941211E1
1.504603496E1,-2.321971436E0,9.734257507E-1,-1.511541733E1,1.532367286E1
1.505610396E1,-1.059796143E0,1.431622925E0,-1.280317566E1,1.292648518E1
1.506617296E1,-4.790039063E-2,1.391057281E0,-9.773176575E0,9.871793918E0
1.507624196E1,2.296224976E-1,9.945318604E-1,-6.921456757E0,6.996312153E0
1.508631096E1,1.721420288E-2,8.876541138E-2,-4.671186218E0,4.672061249E0
1.509637996E1,5.792953491E-2,-7.438032532E-1,-2.896027679E0,2.990581119E0
1.510644896E1,4.001179504E-1,-1.137035522E0,-1.499581604E0,1.923977427E0
1.511651796E1,2.469863892E-1,-1.107846222E0,-7.544311523E-1,1.362898342E0
1.512658696E1,-1.077758789E-2,-8.839118958E-1,5.044509888E-2,8.854157802E-1
1.513665596E1,-2.824626160E-1,-7.530839539E-1,9.398954773E-1,1.237062682E0
1.514672496E1,-5.730084229E-1,-5.379812622E-1,1.504820709E0,1.697718427E0
1.515679396E1,-1.182840271E0,-2.538720703E-1,1.490300903E0,1.919520491E0
1.516686296E1,-1.447639618E0,1.532812500E-1,1.522334290E0,2.106337412E0
1.517693196E1,-1.708397369E0,1.445993042E-1,1.688788147E0,2.406561019E0
1.518700096E1,-1.688788147E0,5.628295898E-2,2.075733490E0,2.676535578E0
1.519706996E1,-1.659149780E0,1.567240906E-1,2.144889679E0,2.716227562E0
1.520713896E1,-1.600621490E0,3.567082214E-1,1.968556366E0,2.562117108E0
1.521720796E1,-1.570983124E0,5.824388123E-1,1.992805939E0,2.603554965E0
1.522727596E1,-1.800605621E0,6.581813049E-1,2.071093140E0,2.822199502E0
1.523734496E1,-2.237996063E0,6.855743408E-1,2.183659058E0,3.201094412E0
1.524741396E1,-2.705623627E0,5.038522339E-1,2.402653656E0,3.653356111E0
1.525748296E1,-3.015179901E0,3.207829285E-1,2.731819153E0,4.081304621E0
1.526755196E1,-3.042572937E0,2.077679443E-1,2.803220673E0,4.142277602E0
1.527762096E1,-2.753074951E0,1.234931946E-1,2.373164978E0,3.636837124E0
1.528768996E1,-2.226769409E0,4.939727783E-2,1.563348999E0,2.721213366E0
1.529775896E1,-1.359622650E0,1.134640503E-1,5.752537537E-1,1.480663609E0
1.530782796E1,-4.992118835E-1,1.959425354E-1,-4.610412598E-1,7.072234619E-1
1.531789696E1,8.966354370E-2,2.580633545E-1,-1.324894867E0,1.352768515E0
1.532796596E1,7.141648865E-1,1.890568542E-1,-2.137255554E0,2.261334845E0
1.533803496E1,1.424587555E0,1.416055298E-1,-2.780767365E0,3.127645914E0
1.534810396E1,2.019600220E0,1.748364258E-1,-3.208128662E0,3.794923232E0
1.535817296E1,2.320624237E0,2.119592285E-1,-3.322341156E0,4.058099841E0
1.536824196E1,2.392624512E0,1.905537415E-1,-3.173550568E0,3.978993087E0
1.537831096E1,2.181413727E0,2.667453003E-1,-2.942131805E0,3.672309691E0
1.538837996E1,1.866768036E0,2.757266235E-1,-2.650388489E0,3.253522278E0
1.539844896E1,1.527423706E0,1.772314453E-1,-2.233355713E0,2.711514688E0
1.540851796E1,1.035546570E0,8.292755127E-2,-1.883233795E0,2.150768050E0
1.541858696E1,6.695576477E-1,3.577560425E-2,-1.648821259E0,1.779943505E0
1.542865496E1,6.197113037E-1,5.224136353E-2,-1.586999817E0,1.704505699E0
1.543872396E1,8.463400269E-1,8.816665649E-2,-1.894161072E0,2.076514138E0
1.544879296E1,1.124311981E0,1.263372803E-1,-2.272424469E0,2.538493945E0
1.545886196E1,1.322799225E0,2.356100464E-1,-2.519710236E0,2.855564665E0
1.546893096E1,1.385818176E0,4.586462402E-1,-2.922971649E0,3.267202420E0
1.547899996E1,1.217268677E0,6.923103333E-1,-3.409310303E0,3.685706631E0
1.548906896E1,9.647438049E-1,7.315287781E-1,-3.793261871E0,3.981796151E0
1.549913796E1,5.276527405E-1,9.226812744E-1,-4.634063416E0,4.754398163E0
1.550920696E1,-3.472778320E-1,1.069525909E0,-5.950126648E0,6.055451650E0
1.551927596E1,-9.873468018E-1,1.127156067E0,-7.125931549E0,7.281774162E0
1.552934496E1,-1.431173859E0,1.412462769E0,-8.034691772E0,8.282486436E0
1.553941396E1,-1.838776245E0,1.838925934E0,-9.266480255E0,9.624468972E0
1.554948271E1,-1.292113037E0,1.445244598E0,-1.113773895E1,1.130519867E1
1.555955171E1,7.860154724E-1,4.785548401E-1,-1.342393478E1,1.345543980E1
1.556962071E1,3.920946350E0,2.174977112E-1,-1.650138519E1,1.696221798E1
1.557968971E1,7.128476257E0,6.825805664E-1,-2.056528427E1,2.177640942E1
1.558975871E1,9.449998627E0,1.425485687E0,-2.395723068E1,2.579308794E1
1.559982771E1,9.490414581E0,1.793570251E0,-2.596665207E1,2.770472672E1
1.560989571E1,7.873177643E0,1.661544800E0,-2.685221054E1,2.803192587E1
1.561996471E1,6.268364868E0,1.343156891E0,-2.645778076E1,2.722334717E1
1.563003371E1,5.117408295E0,7.204518127E-1,-2.459610214E1,2.513314861E1
1.564010271E1,4.458179169E0,2.333647156E-1,-2.268218216E1,2.311733566E1
1.565017171E1,3.926933899E0,1.595681763E-1,-2.152254364E1,2.187844045E1
1.566024071E1,3.492387543E0,4.040098572E-1,-2.070584198E1,2.100218767E1
1.567030971E1,3.141217804E0,6.920109558E-1,-1.977402969E1,2.003393069E1
1.568037871E1,2.886447601E0,8.340655518E-1,-1.872830429E1,1.896777864E1
1.569044771E1,2.619103546E0,1.013392639E0,-1.761372208E1,1.783619560E1
1.570051671E1,2.455793152E0,1.052311707E0,-1.671124878E1,1.692347824E1
1.571058571E1,2.503843231E0,1.072220306E0,-1.610246475E1,1.633120505E1
1.572065471E1,2.718496857E0,1.161883850E0,-1.598780319E1,1.625884529E1
1.573072371E1,3.149151306E0,1.075663147E0,-1.613824036E1,1.647777312E1
1.574079271E1,3.222049713E0,8.849597168E-1,-1.621533005E1,1.655601663E1
1.575086171E1,2.858904877E0,8.325686646E-1,-1.630020355E1,1.656994700E1
1.576093071E1,2.607128448E0,9.139993286E-1,-1.675795166E1,1.698415312E1
1.577099971E1,2.490970001E0,9.530680847E-1,-1.788944870E1,1.808716797E1
1.578106871E1,2.960992584E0,8.467890930E-1,-1.962029938E1,1.986053062E1
1.579113771E1,4.031416626E0,7.932005310E-1,-2.134710846E1,2.173891733E1
1.580120671E1,5.009333038E0,8.262817383E-1,-2.276421158E1,2.332349647E1
1.581127471E1,5.783074036E0,8.978329468E-1,-2.364842285E1,2.436181341E1
1.582134371E1,5.902076569E0,1.032103729E0,-2.389436142E1,2.463412782E1
1.583141271E1,5.065166931E0,1.215322723E0,-2.287902283E1,2.346449682E1
1.584148171E1,3.918701019E0,1.252894592E0,-2.089744354E1,2.129857059E1
1.585155071E1,3.003354492E0,1.113983459E0,-1.884925278E1,1.911950385E1
1.586161971E1,2.049837341E0,9.348060608E-1,-1.725297226E1,1.739944675E1
1.587168871E1,7.048841858E-1,9.755213928E-1,-1.607462265E1,1.611961529E1
1.588175771E1,-3.143463135E-1,9.339079285E-1,-1.552107376E1,1.555232228E1
1.589182671E1,-6.932084656E-1,1.126856689E0,-1.519071075E1,1.524821423E1
1.590189571E1,-8.461903381E-1,1.273851013E0,-1.485106705E1,1.492959902E1
1.591196471E1,-9.409432983E-1,1.315913544E0,-1.444091995E1,1.453124812E1
1.592203371E1,-8.015830994E-1,1.237776031E0,-1.363634308E1,1.371584768E1
1.593210271E1,-6.090834045E-1,9.485774231E-1,-1.265258881E1,1.270270779E1
1.594217171E1,-2.918930054E-1,6.984475708E-1,-1.160431870E1,1.162898288E1
1.595224071E1,2.296224976E-1,5.263055420E-1,-1.050395691E1,1.051964043E1
1.596230971E1,7.321275330E-1,2.496807861E-1,-9.430838470E0,9.462508413E0
1.597237871E1,9.514215088E-1,-8.307723999E-2,-8.123157806E0,8.179107376E0
1.598244771E1,1.104553070E0,-4.406835938E-1,-6.759643250E0,6.863455134E0
1.599251671E1,1.345551910E0,-5.367837524E-1,-5.615722046E0,5.799567297E0
1.600258571E1,1.675914917E0,-1.938468933E-1,-4.870571594E0,5.154486888E0
1.601265371E1,2.086211700E0,2.278262329E-1,-4.472399597E0,4.940297785E0
1.602272271E1,2.409090271E0,5.309458923E-1,-4.118236084E0,4.800571624E0
1.603279171E1,2.069596252E0,6.165678406E-1,-3.553161163E0,4.157924819E0
1.604286071E1,1.283281403E0,6.840774536E-1,-2.686762848E0,3.055072458E0
1.605292971E1,6.065386963E-1,8.309220886E-1,-2.153721313E0,2.386804601E0
1.606299871E1,-7.300318909E-1,-7.825726318E-1,-1.545536041E0,1.879906418E0
1.607306771E1,-4.507127380E-1,-1.229692841E0,3.737727356E-1,1.361981098E0
1.608313671E1,-5.252577209E-1,-1.451381836E0,2.136207733E0,2.635486366E0
1.609320571E1,-1.432670746E0,-2.168390808E0,2.764600983E0,3.794401502E0
1.610327471E1,-1.871707764E0,-2.168241119E0,3.371738434E0,4.424158629E0
1.611334371E1,-2.619552612E0,-1.879042511E0,3.496728516E0,4.756045307E0
1.612341271E1,-3.062182159E0,-1.463955688E0,3.377576294E0,4.788334518E0
1.613348171E1,-3.069367218E0,-1.084195404E0,3.166664886E0,4.541394202E0
1.614355071E1,-3.056643677E0,-7.476951599E-1,2.777773590E0,4.197397377E0
1.615361971E1,-3.062331848E0,-4.498146057E-1,2.538870392E0,4.003257723E0
1.616368871E1,-3.145109711E0,-1.133143616E-1,2.080074463E0,3.772434891E0
1.617375771E1,-3.003653870E0,1.541793823E-1,1.150058441E0,3.219991035E0
1.618382671E1,-2.576142883E0,3.409909058E-1,2.401007080E-1,2.609681073E0
1.619389571E1,-1.895807648E0,4.327500916E-1,-4.921765137E-1,2.005890575E0
1.620396471E1,-9.888436890E-1,5.170248413E-1,-1.399439850E0,1.789848715E0
1.621403271E1,1.663041687E-1,6.713539124E-1,-2.678679657E0,2.766531738E0
1.622410171E1,1.366208954E0,9.195378113E-1,-4.267475739E0,4.574213142E0
1.623417071E1,2.202519836E0,9.289682007E-1,-5.627248077E0,6.113918259E0
1.624423971E1,2.638563080E0,7.997868347E-1,-6.250701599E0,6.831759992E0
1.625430871E1,2.762505341E0,7.244934082E-1,-6.242618408E0,6.864882450E0
1.626437771E1,2.351609802E0,4.114942932E-1,-5.583838348E0,6.072779176E0
1.627444671E1,1.135388947E0,-6.421646118E-2,-4.308640137E0,4.456188017E0
1.628451571E1,1.689985657E-1,-6.490502930E-1,-2.491568756E0,2.580259999E0
1.629458471E1,-4.508624268E-1,-1.196911011E0,-1.014590149E0,1.632564261E0
1.630465371E1,-7.652087402E-1,-1.212778015E0,-4.125421143E-1,1.492168196E0
1.631472271E1,-6.060896301E-1,-8.351133728E-1,-7.089257812E-1,1.251932406E0
1.632479171E1,-1.847158813E-1,-4.628375244E-1,-1.121916962E0,1.227614027E0
1.633486071E1,4.616400146E-1,-4.400848389E-2,-1.387464752E0,1.462910349E0
1.634492971E1,1.027164001E0,3.888912964E-1,-1.909279633E0,2.202646372E0
1.635499871E1,1.255588989E0,7.596702576E-1,-2.397564240E0,2.811034844E0
1.636506771E1,1.035097504E0,9.060658264E-1,-2.552342377E0,2.899454040E0
1.637513671E1,5.932164001E-1,8.834628296E-1,-3.051554260E0,3.231779026E0
1.638520571E1,-6.750961304E-2,5.902226257E-1,-3.863615570E0,3.909021050E0
1.639527471E1,-6.426136780E-1,1.534309387E-1,-4.611161041E0,4.658250695E0
1.640534371E1,-1.524429932E0,9.849517822E-2,-5.472769318E0,5.681970778E0
1.641541171E1,-2.617756348E0,5.014572144E-1,-6.760541382E0,7.266982001E0
1.642548071E1,-3.478167114E0,1.247206421E0,-8.035889282E0,8.844698236E0
1.643554971E1,-4.080963593E0,2.124831390E0,-9.852810974E0,1.087414624E1
1.644561871E1,-4.123325500E0,3.500919800E0,-1.256561966E1,1.368038925E1
1.645568771E1,-2.678529968E0,5.224136353E0,-1.590053467E1,1.694972348E1
1.646575671E1,2.905458069E-1,6.058351593E0,-1.983106110E1,2.073786453E1
1.647582571E1,3.806434479E0,5.972729645E0,-2.346954483E1,2.451493376E1
1.648589471E1,6.701713715E0,5.696404266E0,-2.597503464E1,2.742379282E1
1.649596371E1,7.541018372E0,5.910309448E0,-2.775303726E1,2.936034389E1
1.650603271E1,6.094426575E0,6.739734650E0,-2.886028473E1,3.025693463E1
1.651610171E1,4.188589783E0,6.756649475E0,-2.884351959E1,2.991897757E1
1.652617071E1,2.836152191E0,6.677464142E0,-2.744961823E1,2.839214376E1
1.653623971E1,1.714235229E0,6.930587769E0,-2.646062485E1,2.740686623E1
1.654630846E1,7.729925537E-1,7.318431244E0,-2.585842712E1,2.688522283E1
1.655637746E1,1.007405090E-1,7.383994904E0,-2.503962982E1,2.610587273E1
1.656644646E1,-1.643582153E-1,7.485633545E0,-2.366428986E1,2.482056280E1
1.657651546E1,-3.191363525E-1,7.286248169E0,-2.217638397E1,2.334487666E1
1.658658446E1,-5.161267090E-1,7.026538239E0,-2.087693619E1,2.203372622E1
