"Time (s)","Acceleration x (m/s^2)","Acceleration y (m/s^2)","Acceleration z (m/s^2)","Absolute acceleration (m/s^2)"
3.474584082E-4,-5.246889038E0,-1.525477753E0,4.685256958E-1,5.484199420E0
1.041645836E-2,-5.835016022E0,-2.631078644E0,2.574645996E-1,6.405956199E0
2.048445831E-2,-7.090455322E0,-3.384012909E0,-1.011746063E0,7.921472726E0
3.055345837E-2,-8.714278564E0,-3.506907349E0,-2.008672943E0,9.605822039E0
4.062245833E-2,-1.000384689E1,-2.942880249E0,-1.979483643E0,1.061394612E1
5.069145840E-2,-1.095182556E1,-1.893262939E0,-2.328108673E0,1.135548404E1
6.075945834E-2,-1.168215683E1,-7.008425903E-1,-2.574047241E0,1.198289146E1
7.082845841E-2,-1.249586472E1,3.724255371E-1,-3.372786255E0,1.294839847E1
8.089745836E-2,-1.326436661E1,1.393751678E0,-4.547693024E0,1.409139727E1
9.096545831E-2,-1.388048538E1,1.939367065E0,-4.890180817E0,1.484395121E1
1.010344584E-1,-1.344264587E1,1.259929962E0,-4.173022156E0,1.413174673E1
1.111034583E-1,-9.063801727E0,-2.731819153E-1,-3.126697998E0,9.591838744E0
1.211714584E-1,-6.557413788E0,-9.933343506E-1,-2.443219299E0,7.067935290E0
1.312404583E-1,-6.945406952E0,-1.507215729E0,-2.452649689E0,7.518368671E0
1.413094584E-1,-7.443870392E0,-2.209405518E0,-2.792592773E0,8.251742455E0
1.513784584E-1,-7.938591614E0,-3.173550568E0,-1.967209167E0,8.772831466E0
1.614464583E-1,-8.921597443E0,-4.261039124E0,-3.239263916E-1,9.892233501E0
1.715154584E-1,-9.179810486E0,-4.240681458E0,5.794450378E-1,1.012857622E1
1.815844583E-1,-8.824748840E0,-3.033741302E0,4.408332825E-1,9.342061462E0
1.916524584E-1,-8.212671661E0,-1.115330658E0,-3.498225403E-1,8.295439356E0
2.017214583E-1,-7.445816345E0,4.468208313E-1,-1.145867157E0,7.546710637E0
2.117904584E-1,-8.978179779E0,1.416654053E0,-9.937834167E-1,9.143425306E0
2.218594584E-1,-1.227387634E1,2.288590851E0,-3.112028503E-1,1.248929685E1
2.319274583E-1,-1.465557358E1,3.437302094E0,3.122506714E-1,1.505650634E1
2.419964584E-1,-1.287667282E1,3.547622681E0,9.909393311E-2,1.335680161E1
2.520654583E-1,-1.173230255E1,2.462529144E0,-4.267625427E-1,1.199554497E1
2.621334584E-1,-1.078522202E1,1.051712952E0,-1.287173309E0,1.091255832E1
2.722024583E-1,-9.399104462E0,-8.532257080E-2,-1.921554108E0,9.593894663E0
2.822714583E-1,-8.798553314E0,-4.110452271E-1,-2.322420502E0,9.109178645E0
2.923394584E-1,-8.842262421E0,2.095642090E-3,-2.181114349E0,9.107297564E0
3.024084583E-1,-9.234147491E0,4.701722717E-1,-2.185155945E0,9.500813037E0
3.124774584E-1,-1.080348404E1,2.837798767E0,-1.759441223E0,1.130769661E1
3.225464583E-1,-1.315105225E1,4.846471710E0,-2.336191864E0,1.420902022E1
3.326144584E-1,-1.221085739E1,4.183350677E0,-3.233126678E0,1.330633568E1
3.426834584E-1,-1.233315308E1,3.854185181E0,-3.653452606E0,1.342792330E1
3.527524583E-1,-1.249481689E1,3.250191193E0,-3.935765533E0,1.349720128E1
3.628204584E-1,-1.297786240E1,2.593955841E0,-3.477718048E0,1.368386064E1
3.728894583E-1,-1.278910492E1,2.673440552E0,-2.828967133E0,1.336830371E1
3.829584584E-1,-1.075857742E1,3.169059906E0,-2.702031097E0,1.153650298E1
3.930264583E-1,-9.798324280E0,2.709814911E0,-2.258503418E0,1.041398546E1
4.030954584E-1,-9.356592865E0,2.013163605E0,-1.925146637E0,9.762420157E0
4.131644584E-1,-8.695567474E0,1.565594330E0,-1.745520172E0,9.006154561E0
4.232334583E-1,-7.978259125E0,1.287472687E0,-1.066981201E0,8.151604349E0
4.333014584E-1,-7.316934357E0,9.101074219E-1,-1.187181244E0,7.468281141E0
4.433704583E-1,-6.910080414E0,3.396437073E-1,-1.141975250E0,7.012037981E0
4.534394584E-1,-6.728657684E0,-3.926335144E-1,-1.603465576E0,6.928210242E0
4.635074583E-1,-6.943161621E0,-9.693841553E-1,4.370910645E-2,7.010642583E0
4.735764584E-1,-7.902366943E0,-1.689237213E0,2.579136658E0,8.482503850E0
4.836454584E-1,-8.157137146E0,-2.189646606E0,2.192341003E0,8.725812154E0
4.937144583E-1,-7.881560211E0,-2.521057434E0,1.589394836E0,8.426203053E0
5.037824584E-1,-7.947123871E0,-2.913840637E0,1.384620667E-1,8.465601976E0
5.138514583E-1,-8.875792694E0,-3.065774689E0,-9.624984741E-1,9.439548384E0
5.239204584E-1,-8.898545380E0,-3.224893799E0,-3.739224243E-1,9.472268359E0
5.339884583E-1,-8.528963928E0,-2.935246124E0,5.878276062E-1,9.039050658E0
5.440574584E-1,-8.348738708E0,-2.187550964E0,1.716929626E-1,8.632282185E0
5.541264584E-1,-9.767787781E0,-1.877096558E0,-4.260290680E0,1.082050120E1
5.641944583E-1,-1.136107452E1,-1.253493347E0,-2.354154510E0,1.166993159E1
5.742634584E-1,-1.157782379E1,-6.270460510E-1,-1.621577911E0,1.170763449E1
5.843324583E-1,-1.170880142E1,-2.170486450E-1,-3.404669952E0,1.219569261E1
5.944014584E-1,-1.117905304E1,2.245330811E-2,-4.833149414E0,1.217912412E1
6.044694583E-1,-1.019425095E1,3.297642517E-1,-4.697232056E0,1.122922463E1
6.145384584E-1,-9.415719910E0,6.554869080E-1,-4.197271729E0,1.032969189E1
6.246074584E-1,-8.607999573E0,8.701405334E-1,-3.728147278E0,9.420927944E0
6.346754583E-1,-8.526269531E0,1.199006653E0,-1.467697906E0,8.734358947E0
6.447444584E-1,-8.136031036E0,1.480571136E0,2.536026306E0,8.649770017E0
6.548134583E-1,-7.079078979E0,1.858984222E0,4.884642334E0,8.799369993E0
6.648824584E-1,-5.987698517E0,2.648741913E0,5.799390106E0,8.746501749E0
6.749504583E-1,-5.280569000E0,3.323688354E0,4.822820892E0,7.886121645E0
6.850194584E-1,-5.305417328E0,3.272794189E0,2.089504852E0,6.574546780E0
6.950884584E-1,-6.235433350E0,2.173330536E0,-4.571493530E-1,6.619137422E0
7.051564583E-1,-7.334747314E0,6.882687378E-1,-2.674188995E0,7.837315791E0
7.152254584E-1,-7.711214447E0,-1.096918945E0,-5.053191833E0,9.284438977E0
7.252944583E-1,-7.654632111E0,-2.800825653E0,-7.330705719E0,1.096253910E1
7.353624584E-1,-7.426955566E0,-3.935466156E0,-7.782166901E0,1.145467959E1
7.454314583E-1,-6.270460510E0,-4.098926239E0,-5.063819733E0,9.042242068E0
7.555004584E-1,-3.621419220E0,-2.568957825E0,-1.764979706E0,4.778009505E0
7.655694584E-1,-6.078858948E-1,2.245330811E-2,-9.222322083E-1,1.104781272E0
7.756374583E-1,6.815327454E-1,1.384171600E0,-3.701352997E0,4.010041385E0
7.857064584E-1,-4.959187317E-1,1.433568878E0,-5.543272705E0,5.747079902E0
7.957754583E-1,-3.230731659E0,-6.789880371E-1,-5.380411377E0,6.312485912E0
8.058435833E-1,-7.125332794E0,-3.557951202E0,-5.361550598E0,9.600812934E0
8.159125834E-1,-1.120674545E1,-5.620212708E0,-6.662195892E0,1.419728103E1
8.259815833E-1,-1.491947479E1,-6.757697296E0,-8.309220886E0,1.836573855E1
8.360505834E-1,-1.750938904E1,-7.009324036E0,-8.548722839E0,2.070724487E1
8.461185833E-1,-1.883278702E1,-6.975344696E0,-7.236551514E0,2.134706018E1
8.561875834E-1,-1.830857712E1,-7.494315491E0,-5.546416168E0,2.054583883E1
8.662565834E-1,-1.685764435E1,-8.453221436E0,-5.520070953E0,1.964963890E1
8.763245833E-1,-1.473805206E1,-8.293952637E0,-5.348827057E0,1.773724273E1
8.863935834E-1,-1.278940430E1,-6.666536865E0,-4.718787231E0,1.517493094E1
8.964625833E-1,-1.218391342E1,-4.134552155E0,-4.908891907E0,1.377096538E1
9.065305834E-1,-1.312246170E1,-2.129022675E0,-5.151088257E0,1.425711923E1
9.165995833E-1,-1.425470718E1,-1.157991943E0,-4.504732361E0,1.499434013E1
9.266685834E-1,-1.493249771E1,-9.157955933E-1,-3.505260773E0,1.536570931E1
9.367375834E-1,-1.560834229E1,-8.657995605E-1,-3.131188660E0,1.594284480E1
9.468055833E-1,-1.620739655E1,-8.812174988E-1,-3.884571991E0,1.668970181E1
9.568745834E-1,-1.700224365E1,-9.771679688E-1,-4.540957031E0,1.762530673E1
9.669435833E-1,-1.799842209E1,-8.348139954E-1,-4.012855225E0,1.845922856E1
9.770115834E-1,-1.727063553E1,7.503895569E-1,-1.960922241E0,1.739779159E1
9.870805833E-1,-1.857487335E1,1.540895691E0,-4.725223846E0,1.922831298E1
9.971495833E-1,-2.095672028E1,2.006726990E0,-5.269342346E0,2.170200559E1
1.007217583E0,-2.313379303E1,2.243833923E0,-5.652096405E0,2.391972752E1
1.017286583E0,-2.442126572E1,1.792073364E0,-6.678961029E0,2.538145517E1
1.027355583E0,-2.414973038E1,1.038540344E0,-6.170767822E0,2.494727277E1
1.037424583E0,-2.331386856E1,9.550140381E-2,-3.931873627E0,2.364329118E1
1.047492583E0,-2.337628876E1,-1.019829254E0,-1.843865662E0,2.347106236E1
1.057561583E0,-2.382745056E1,-2.239642639E0,4.418811035E-1,2.393655485E1
1.067630583E0,-2.440779373E1,-3.206033020E0,2.254012756E0,2.472042912E1
1.077698583E0,-2.499292694E1,-3.802692261E0,3.182382202E0,2.548007892E1
1.087767583E0,-2.466750366E1,-4.258494415E0,3.258424072E0,2.524357025E1
1.097836583E0,-2.119936569E1,-4.938230896E0,2.570604401E0,2.191819420E1
1.107904583E0,-1.487381973E1,-5.088368683E0,1.729653168E0,1.581498370E1
1.117973583E0,-1.026340714E1,-5.085973663E0,1.977986755E0,1.162398751E1
1.128042583E0,-7.091952209E0,-5.472769318E0,1.854643250E0,9.148043055E0
1.138111583E0,-4.590803375E0,-5.841602325E0,1.740879822E-1,7.431695633E0
1.148179583E0,-1.670825500E0,-5.603597260E0,-3.222798157E0,6.676704880E0
1.158248583E0,4.101470947E-1,-3.337609406E0,-9.466165009E0,1.004570242E1
1.168317583E0,1.735491028E0,1.753753052E0,-1.908980255E1,1.924858801E1
1.178385583E0,8.113128662E-2,7.052284698E0,-2.551863373E1,2.647530867E1
1.188454583E0,-3.556304626E0,8.260572052E0,-1.940654388E1,2.138920987E1
1.198523583E0,-5.350922699E0,7.567363586E0,-8.422684937E0,1.252353732E1
1.208592583E0,-3.590433655E0,5.151537323E0,1.780098267E0,6.526737352E0
1.218660583E0,4.604425049E-1,2.027683411E0,9.811496887E0,1.002940569E1
1.228729583E0,2.387385406E0,-9.496252441E-1,1.220232513E1,1.246988917E1
1.238798583E0,2.280058594E0,-3.155438232E0,1.040306671E1,1.110762147E1
1.248866583E0,1.829495544E0,-3.959865417E0,7.609126740E0,8.770769511E0
1.258935583E0,1.701362000E0,-3.616030426E0,4.981191559E0,6.386123867E0
1.269004583E0,1.679507446E0,-3.137774963E0,3.123105469E0,4.734993638E0
1.279072583E0,1.559906158E0,-2.750380554E0,1.939666443E0,3.709475209E0
1.289141583E0,1.319955139E0,-2.211650848E0,9.488768005E-1,2.744822076E0
1.299210583E0,9.806108093E-1,-1.619931335E0,1.469943237E-1,1.899311039E0
1.309279583E0,8.996292114E-1,-1.295855255E0,-5.950126648E-1,1.686005229E0
1.319347583E0,8.876541138E-1,-1.147214355E0,-8.493338013E-1,1.680892177E0
1.329416583E0,9.116043091E-1,-9.005273438E-1,-5.995033264E-1,1.414700022E0
1.339485583E0,9.774673462E-1,-6.153703308E-1,7.469467163E-2,1.157455118E0
1.349553583E0,8.888516235E-1,-3.622467041E-1,8.737330627E-1,1.297955834E0
1.359622583E0,7.379653931E-1,-1.318757629E-1,1.480571136E0,1.659540608E0
1.369691583E0,6.185137939E-1,7.619155884E-2,1.915865936E0,2.014672865E0
1.379759583E0,5.411247253E-1,2.885998535E-1,2.236199799E0,2.318770231E0
1.389828583E0,4.870870972E-1,5.025050354E-1,2.340383148E0,2.442776787E0
1.399897583E0,5.737568665E-1,6.902146912E-1,2.149979095E0,2.329807583E0
1.409965583E0,6.548881531E-1,8.647517395E-1,1.636696472E0,1.963529833E0
1.420034583E0,6.462062073E-1,1.040486298E0,7.186555481E-1,1.420091544E0
1.430103583E0,5.219645691E-1,1.421144714E0,-1.010847931E0,1.820415571E0
1.440172583E0,8.008346558E-2,2.048190765E0,-3.909420319E0,4.414189167E0
1.450240583E0,-6.908134460E-1,2.558479614E0,-6.527176666E0,7.044648777E0
1.460309583E0,-1.085692291E0,2.556683350E0,-5.885610809E0,6.508131229E0
1.470378583E0,-1.143472137E0,2.162552948E0,-3.882027283E0,4.588496443E0
1.480446583E0,-9.885443115E-1,1.277593231E0,-2.304457855E0,2.814247737E0
1.490515583E0,-8.337661743E-1,1.526824951E-1,-1.556313629E0,1.772171010E0
1.500584583E0,-7.958949280E-1,-9.012757874E-1,-1.675316162E0,2.062142339E0
1.510653583E0,-7.319778442E-1,-1.767225037E0,-2.614912262E0,3.239852162E0
1.520721583E0,-1.368304596E0,-2.533331909E0,-6.086792450E0,6.733429316E0
1.530790583E0,-4.083208923E0,-2.894081726E0,-1.360700409E1,1.449823660E1
1.540859583E0,-9.704918518E0,-2.421813812E0,-2.919603653E1,3.086193731E1
1.550927583E0,-1.315943481E1,-1.158141632E0,-3.095143616E1,3.365268811E1
1.560996583E0,-8.637488251E0,-1.045575714E0,4.256398773E0,9.685884697E0
1.571065583E0,-1.104133942E1,-2.065554657E0,2.425930252E1,2.673371375E1
1.581133583E0,-1.509041931E1,-3.322790222E0,2.249821472E1,2.729343063E1
1.591202583E0,-1.850182526E1,-3.024161224E0,1.826202393E1,2.617182850E1
1.601271583E0,-2.834370895E1,-1.042731628E0,-7.571255493E-1,2.837298655E1
1.611340583E0,-4.182018448E1,3.912863159E-1,-2.460493378E1,4.852302238E1
1.621408583E0,-3.378160080E1,3.091072083E0,-1.427940582E1,3.680560704E1
1.631477583E0,-2.443653397E1,7.354356537E0,-1.007824219E1,2.743723233E1
1.641546583E0,-2.235122040E1,7.874824219E0,-7.671846313E0,2.490877628E1
1.651614583E0,-2.295072372E1,6.869215393E0,-3.118914185E0,2.415883824E1
1.661683583E0,-2.002101608E1,5.155728607E0,-2.249671783E0,2.079624114E1
1.671752583E0,-1.741343857E1,3.344046021E0,-5.631589050E0,1.860444253E1
1.681820583E0,-1.575833038E1,6.656657410E-1,-8.814719696E0,1.806840808E1
1.691889583E0,-1.313353867E1,-9.912387085E-1,-1.028002258E1,1.670782022E1
1.701958583E0,-1.253164032E1,-1.555864563E0,-9.680668945E0,1.591157047E1
1.712027583E0,-1.197809143E1,-2.067051544E0,-8.518485718E0,1.484290993E1
1.722095583E0,-1.011566437E1,-1.257684631E0,-4.677173767E0,1.121536405E1
1.732164583E0,-9.260642395E0,-1.049617310E0,-5.455854492E0,1.079942324E1
1.742233583E0,-8.992100830E0,-1.320254517E0,-8.525970154E0,1.246166588E1
1.752301583E0,-8.502768402E0,-1.753453674E0,-6.071673889E0,1.059419153E1
1.762370583E0,-7.291337585E0,-1.796264648E0,-2.978057098E0,8.078303940E0
1.772439583E0,-5.968538361E0,-1.763033752E0,-4.381987610E0,7.611409435E0
1.782507583E0,-5.797144775E0,-2.383343811E0,-6.637048187E0,9.128944293E0
1.792576583E0,-6.020180969E0,-3.380420380E0,-8.254285126E0,1.076118227E1
1.802645458E0,-6.992409210E0,-4.103716278E0,-9.237740021E0,1.229105832E1
1.812714458E0,-9.103469238E0,-4.005670166E0,-9.590706024E0,1.381666341E1
1.822782458E0,-1.076366684E1,-3.169658661E0,-1.002016296E1,1.504350111E1
1.832851458E0,-1.161704224E1,-2.363734589E0,-9.605824585E0,1.525826915E1
1.842920458E0,-1.125838806E1,-1.825903015E0,-8.069569244E0,1.397151285E1
1.852988458E0,-9.160051575E0,-1.710343323E0,-8.354726257E0,1.251532141E1
1.863057458E0,-7.141648865E0,-2.259102173E0,-8.897198181E0,1.163042676E1
1.873126458E0,-6.122568054E0,-2.790048065E0,-7.746540985E0,1.026056066E1
1.883194458E0,-5.568570099E0,-3.026855621E0,-6.989714813E0,9.435408898E0
1.893263458E0,-6.012546844E0,-2.825224915E0,-8.273594971E0,1.061060739E1
1.903332458E0,-7.215894470E0,-2.443368988E0,-8.765472107E0,1.161347004E1
1.913401458E0,-8.459208984E0,-2.317780151E0,-8.360414429E0,1.211721300E1
1.923469458E0,-9.521998901E0,-2.410736847E0,-8.524323578E0,1.300554527E1
1.933538458E0,-1.027343628E1,-2.558479614E0,-7.899223480E0,1.320935436E1
1.943607458E0,-1.083881058E1,-2.594105530E0,-7.410639496E0,1.338382516E1
1.953675458E0,-1.134071686E1,-2.476899261E0,-7.137906647E0,1.362705398E1
1.963744458E0,-1.140074203E1,-2.208208008E0,-6.627917175E0,1.337095313E1
1.973813458E0,-1.106289459E1,-1.734592896E0,-7.059020691E0,1.323730420E1
1.983881458E0,-1.062161224E1,-9.668394470E-1,-6.431076508E0,1.245440365E1
1.993950458E0,-1.022837997E1,-2.321672058E-1,-5.996979218E0,1.185906481E1
2.004019458E0,-1.024319916E1,6.721023560E-2,-5.681435394E0,1.171351161E1
2.014088458E0,-1.059302170E1,2.713856506E-1,-5.513484650E0,1.194505219E1
2.024156458E0,-1.143053009E1,6.545887756E-1,-5.632786560E0,1.275985067E1
2.034225458E0,-1.297022827E1,8.524772644E-1,-6.053411865E0,1.433866570E1
2.044294458E0,-1.549427948E1,8.033793640E-1,-7.178472290E0,1.709527945E1
2.054362458E0,-1.844524292E1,7.412585449E-1,-6.943760376E0,1.972288667E1
2.064431458E0,-2.122750717E1,8.765771484E-1,-7.490423584E0,2.252735878E1
2.074500458E0,-2.355741211E1,1.178349609E0,-8.870104523E0,2.519958189E1
2.084568458E0,-2.446602264E1,1.534758453E0,-6.927144928E0,2.547404727E1
2.094637458E0,-2.385544235E1,1.776356049E0,-4.440216522E0,2.433008618E1
2.104706458E0,-2.264730469E1,1.644629974E0,-3.139720917E0,2.292298115E1
2.114775458E0,-2.125714554E1,1.401236115E0,-5.749543762E-1,2.131103638E1
2.124843458E0,-2.023447220E1,1.367855530E0,2.183209991E0,2.039782586E1
2.134912458E0,-1.969604187E1,1.438209229E0,4.132456512E0,2.017621639E1
2.144981458E0,-1.899235519E1,1.472787323E0,4.916975098E0,1.967372111E1
2.155049458E0,-1.717019440E1,1.412462769E0,4.753664703E0,1.787198799E1
2.165118458E0,-1.454869583E1,1.417552185E0,4.564757538E0,1.531375251E1
2.175187458E0,-1.186747147E1,1.353934479E0,4.148473206E0,1.264436030E1
2.185255458E0,-9.227411499E0,1.006656647E0,3.093317413E0,9.784022342E0
2.195324458E0,-6.863227844E0,4.809498596E-1,1.406026154E0,7.022258807E0
2.205393458E0,-4.677024078E0,-2.415975952E-1,-1.185384979E0,4.830948269E0
2.215462458E0,-1.270258484E0,-1.642234955E0,-8.110583954E0,8.372100354E0
2.225530458E0,1.863025818E0,-3.249891815E0,-1.330148941E1,1.381891032E1
2.235599458E0,2.791694641E0,-4.962630157E0,-1.776580582E1,1.865596723E1
2.245668458E0,-1.830842743E0,-7.105274506E0,-2.983445892E1,3.072347393E1
2.255736458E0,-8.950337677E0,-4.176165619E0,-2.958597565E1,3.119100606E1
2.265805458E0,-8.466244354E0,-2.085463257E0,-1.475421844E1,1.713806910E1
2.275874458E0,-6.608607330E0,-1.798060913E0,-1.960473175E0,7.123915283E0
2.285942458E0,-3.103346558E0,-1.610351257E0,4.358935547E0,5.587871700E0
2.296011458E0,-9.145980835E-2,-1.480421448E0,4.571493530E0,4.806096717E0
2.306080458E0,5.164260864E-2,-9.009764099E-1,4.061204681E0,4.160265486E0
2.316149458E0,-2.832110596E-1,-7.050338745E-1,3.930975494E0,4.003729462E0
2.326217458E0,1.477427673E-1,-5.281018066E-1,3.328029327E0,3.372906558E0
2.336286458E0,-2.395019531E-2,-5.194198608E-2,2.894830170E0,2.895395188E0
2.346355458E0,1.618135071E-1,3.543132019E-1,2.712209930E0,2.740037256E0
2.356423458E0,6.239025879E-1,5.361849976E-1,2.832709351E0,2.949744236E0
2.366492458E0,9.788145447E-1,5.857319641E-1,2.995570679E0,3.205402243E0
2.376561458E0,1.221909027E0,8.005352783E-1,2.911595306E0,3.257499905E0
2.386629458E0,1.425335999E0,1.115330658E0,2.646047516E0,3.205793606E0
2.396698458E0,1.697919159E0,1.344803467E0,2.384092255E0,3.221074621E0
2.406767458E0,2.111060028E0,1.632804565E0,2.227218475E0,3.476079304E0
2.416835458E0,2.471660156E0,1.924547882E0,2.225422211E0,3.842589296E0
2.426904458E0,2.577789459E0,2.237397308E0,2.158960419E0,4.038818553E0
2.436973458E0,2.464475098E0,2.550246735E0,1.972298584E0,4.057999214E0
2.447042458E0,2.343376923E0,2.790796509E0,1.669328613E0,4.008318672E0
2.457110458E0,2.210303650E0,2.941233673E0,1.273102570E0,3.893210487E0
2.467179458E0,2.047292633E0,2.925366669E0,9.038204956E-1,3.683214460E0
2.477248458E0,1.869312744E0,2.679577789E0,5.915698242E-1,3.320304522E0
2.487316458E0,1.601369934E0,2.182910614E0,4.534071350E-1,2.745006821E0
2.497385458E0,1.092128906E0,1.611099701E0,5.522016907E-1,2.023194133E0
2.507454458E0,5.442681885E-1,1.137334900E0,9.030720520E-1,1.550902211E0
2.517522458E0,1.130149841E-1,7.688012695E-1,1.176253967E0,1.409752168E0
2.527591458E0,-1.850152588E-1,5.272036743E-1,1.151854706E0,1.280212335E0
2.537660458E0,-3.221301270E-1,3.727249146E-1,8.949888611E-1,1.021614772E0
2.547729458E0,-3.191363525E-1,3.094065857E-1,5.737568665E-1,7.257943156E-1
2.557797458E0,-2.471360779E-1,3.571572876E-1,2.052232361E-1,4.803687601E-1
2.567866458E0,-1.329235840E-1,4.694238281E-1,-2.094145203E-1,5.309254664E-1
2.577935458E0,-1.639091492E-1,7.177574158E-1,-7.976911926E-1,1.085519763E0
2.588003458E0,-1.113235016E0,1.049317932E0,-5.278024292E0,5.495261663E0
2.598072458E0,-1.160746216E1,-8.234376526E-1,-4.085184814E1,4.247687282E1
2.608141458E0,-1.689865906E1,-2.292782135E0,-4.161600906E1,4.497458992E1
2.618209458E0,-1.075184143E1,-1.899549866E-1,5.668711853E-1,1.076845021E1
2.628278458E0,-1.268462219E1,1.884281616E0,1.946312622E1,2.330801235E1
2.638347458E0,-2.264850220E1,2.661615143E0,1.412043640E1,2.682210974E1
2.648416458E0,-3.974205597E1,1.056802368E0,7.643106079E0,4.048413164E1
2.658484458E0,-5.055976044E1,-5.188211060E-1,6.267466736E0,5.094938361E1
2.668553458E0,-4.141617462E1,9.392967224E-1,-3.497926025E0,4.157423824E1
2.678622458E0,-2.881882095E1,-4.029620361E-1,-1.278461426E1,3.152987760E1
2.688690458E0,-2.472423569E1,-5.551056519E0,-1.353036346E1,2.872582104E1
2.698759458E0,-2.425077026E1,-5.635480957E0,-9.840386810E0,2.677109853E1
2.708828458E0,-2.258039383E1,-7.387138367E-1,-5.373525696E0,2.322271866E1
2.718896458E0,-2.023207718E1,4.884792023E0,-5.436993713E0,2.151183490E1
2.728965458E0,-1.750908966E1,7.269333344E0,-6.525380402E0,2.004973859E1
2.739034458E0,-1.463626373E1,6.342460785E0,-3.080893250E0,1.624619734E1
2.749102458E0,-1.152363647E1,5.109774170E0,-1.813478851E0,1.273548959E1
2.759171458E0,-7.353757782E0,4.698130188E0,-3.230881348E0,9.305308972E0
2.769240458E0,-1.884281616E0,3.486100616E0,-2.790347443E0,4.846591954E0
2.779309458E0,6.487509155E-1,1.129700775E0,-4.777165833E0,4.951607313E0
2.789377458E0,-6.465055847E-1,-1.966760101E0,-4.925507355E0,5.342914698E0
2.799446458E0,-1.786684570E0,-3.616479492E0,-2.745141449E0,4.879238388E0
2.809515375E0,-6.320456543E0,-3.201841736E0,-6.986122284E0,9.950169143E0
2.819583375E0,-1.208571762E1,-2.516267395E0,-1.084704346E1,1.643333575E1
2.829652375E0,-1.635723495E1,-2.340981903E0,-9.326355743E0,1.897419941E1
2.839721375E0,-1.798180664E1,-2.428549805E0,-8.221503296E0,1.992075151E1
2.849789375E0,-1.752645355E1,-2.977009277E0,-8.626411285E0,1.975991220E1
2.859858375E0,-1.574051743E1,-3.094664612E0,-8.369545441E0,1.809392519E1
2.869927375E0,-1.209844116E1,-1.843117218E0,-7.363936615E0,1.428274911E1
2.879996375E0,-8.552165680E0,-7.674540710E-1,-5.907465363E0,1.042241194E1
2.890064375E0,-5.453908539E0,2.389031982E-1,-5.364993439E0,7.654106590E0
2.900133375E0,-3.589086456E0,1.137634277E0,-5.804030457E0,6.918274559E0
2.910202375E0,-3.348985748E0,1.874102783E0,-6.441704407E0,7.498234622E0
2.920270375E0,-4.842280426E0,1.754351807E0,-6.624174957E0,8.390776117E0
2.930339375E0,-7.491770782E0,7.679031372E-1,-6.795568542E0,1.014376934E1
2.940408375E0,-1.006836273E1,-4.013154602E-1,-6.644233246E0,1.206974803E1
2.950476375E0,-1.172047714E1,-1.083896027E0,-5.518424377E0,1.299990087E1
2.960545375E0,-1.252146149E1,-1.115480347E0,-4.890929260E0,1.348897636E1
2.970614375E0,-1.279718811E1,-6.117778015E-1,-4.358187103E0,1.353277837E1
2.980682375E0,-1.244871277E1,4.367916870E-1,-3.100951538E0,1.283655472E1
2.990751375E0,-1.163635208E1,1.807790680E0,-3.940405884E0,1.241771297E1
3.000820375E0,-1.168455185E1,3.019670563E0,-5.242248688E0,1.315782404E1
3.010889375E0,-1.271036865E1,3.687431946E0,-4.948409729E0,1.412930941E1
3.020957375E0,-1.431323547E1,4.110152893E0,-4.677622833E0,1.560904295E1
3.031026375E0,-1.646665741E1,4.539759521E0,-6.079457703E0,1.813063785E1
3.041095375E0,-1.885149811E1,4.849615173E0,-7.274422760E0,2.078015820E1
3.051163375E0,-2.065958817E1,5.191204834E0,-7.740254059E0,2.266448154E1
3.061232375E0,-2.167193298E1,5.288652191E0,-8.087082825E0,2.372853619E1
3.071301375E0,-2.213477051E1,4.970863037E0,-7.540419617E0,2.390638979E1
3.081369375E0,-2.256347900E1,4.256698151E0,-6.651717682E0,2.390555191E1
3.091438375E0,-2.286180862E1,3.409160614E0,-5.659431152E0,2.379734924E1
3.101507375E0,-2.271526337E1,2.411185913E0,-4.100423126E0,2.320798305E1
3.111576375E0,-2.175051956E1,1.335971832E0,-2.295775909E0,2.191210873E1
3.121644375E0,-2.004855881E1,6.911128235E-1,-6.674620056E-1,2.007156827E1
3.131713375E0,-1.847592911E1,2.797682190E-1,5.761518860E-1,1.848702728E1
3.141782375E0,-1.685240524E1,-9.714797974E-2,9.141490173E-1,1.687746037E1
3.151850375E0,-1.460213470E1,-5.921685791E-1,6.529421997E-1,1.462871611E1
3.161919375E0,-1.251831802E1,-1.211430817E0,1.963916016E-1,1.257833138E1
3.171988375E0,-1.048749115E1,-1.914967804E0,-1.294807434E-1,1.066167611E1
3.182056375E0,-8.090825043E0,-2.355651398E0,-2.974314880E-1,8.432022822E0
3.192125375E0,-6.474635925E0,-2.546354828E0,-2.492167511E0,7.390245745E0
3.202194375E0,-3.960015106E0,-2.756368103E0,-6.386469269E0,8.004141083E0
3.212262375E0,-1.565294952E0,-2.457888794E0,-7.123386841E0,7.696363147E0
3.222331375E0,-5.995033264E-1,-1.377585297E0,-4.777914276E0,5.008553715E0
3.232400375E0,-1.161584473E-1,3.122506714E-1,-3.635639648E0,3.650872351E0
3.242469375E0,5.122348022E-1,2.405647430E0,-7.354805603E0,7.755171791E0
3.252537375E0,1.270857239E-1,5.578898621E0,-1.399814072E1,1.506944605E1
3.262606375E0,-2.206860809E0,7.378157043E0,-1.804602310E1,1.962056028E1
3.272675375E0,-1.778601379E0,6.761738892E0,-1.616817810E1,1.761517865E1
3.282743375E0,1.321452026E0,4.971162415E0,-8.154293060E0,9.641119568E0
3.292812375E0,3.325484619E0,3.080444183E0,-1.520088959E0,4.781072553E0
3.302881375E0,4.121678925E0,1.908680878E0,2.365979919E0,5.121441284E0
3.312949375E0,4.399501190E0,8.933422852E-1,4.782404938E0,6.559349674E0
3.323018375E0,3.614383850E0,2.396516418E-1,5.677244110E0,6.734411942E0
3.333087375E0,2.100731506E0,-5.221142578E-1,5.498366089E0,5.909120561E0
3.343155375E0,1.053209839E0,-1.261426849E0,4.739444275E0,5.016251658E0
3.353224375E0,9.291178894E-1,-1.784738617E0,3.596271515E0,4.120888350E0
3.363293375E0,8.415499878E-1,-2.274071045E0,3.147504730E0,3.973209223E0
3.373362375E0,5.605842590E-1,-2.521955566E0,3.220552826E0,4.128737712E0
3.383430375E0,4.311035156E-2,-2.257455597E0,3.444487152E0,4.118550232E0
3.393499375E0,-3.854484558E-1,-1.912722473E0,3.441194000E0,3.955868289E0
3.403568375E0,-4.812492371E-1,-1.672322388E0,2.902464294E0,3.384163409E0
3.413636375E0,-2.371069336E-1,-1.238374786E0,1.865420837E0,2.251574274E0
3.423705375E0,-1.594184875E-1,-7.619155884E-1,9.976753235E-1,1.265419167E0
3.433774375E0,-1.266366577E-1,-3.369493103E-1,4.815486145E-1,6.012160584E-1
3.443842375E0,-6.526428223E-2,-6.616241455E-2,2.529739380E-1,2.695045546E-1
3.453911375E0,2.993774414E-3,7.155120850E-2,2.046244812E-1,2.167941799E-1
3.463980375E0,8.756790161E-2,7.948471069E-2,2.375559998E-1,2.653654266E-1
3.474049375E0,2.076182556E-1,4.146377563E-2,2.251318359E-1,3.090451881E-1
3.484117375E0,3.905378723E-1,-2.933898926E-2,1.878593445E-1,4.343636027E-1
3.494186375E0,5.740562439E-1,-7.185058594E-2,2.471360779E-1,6.291099418E-1
3.504255375E0,7.842192078E-1,-5.867797852E-2,4.170327759E-1,8.901456101E-1
3.514323375E0,9.005273438E-1,1.242416382E-2,7.608677673E-1,1.178992628E0
3.524392375E0,9.601034546E-1,1.992356873E-1,1.062640228E0,1.445924534E0
3.534461375E0,5.891748047E-1,5.068460083E-1,1.109043732E0,1.354251759E0
3.544529375E0,-6.072871399E-1,8.608598328E-1,8.954379272E-1,1.382637481E0
3.554598375E0,-1.636995850E0,1.088985443E0,8.497828674E-1,2.141909342E0
3.564667375E0,-2.157912598E0,1.183888092E0,1.030756531E0,2.668452139E0
3.574735375E0,-2.959046631E0,1.359472961E0,1.400637360E0,3.544842551E0
3.584804375E0,-4.165088654E0,1.550625458E0,1.943558350E0,4.850754772E0
3.594873375E0,-7.336094513E0,1.734592896E0,2.418221283E0,7.916747400E0
3.604942375E0,-1.844973358E1,1.987866211E0,-3.561843109E0,1.889526416E1
3.615010375E0,-4.157065338E1,2.489323425E0,-1.722093887E1,4.506524924E1
3.625079375E0,-6.072302582E1,2.790646820E0,-1.284014877E1,6.212843950E1
3.635148375E0,-5.864714264E1,4.612957306E0,-1.018018021E1,5.970261957E1
3.645216375E0,-3.945136047E1,4.744982758E0,2.884801025E0,3.984026583E1
3.655285375E0,-2.896656372E1,-8.387059021E-1,1.293115952E1,3.173295019E1
3.665354375E0,-3.013877609E1,-5.232668610E0,4.977599030E0,3.099198505E1
3.675422375E0,-3.021616516E1,-1.982477417E0,-2.830314331E0,3.041311449E1
3.685491375E0,-2.869457932E1,2.724933472E0,2.236648865E0,2.891032242E1
3.695560375E0,-2.658037582E1,4.506229248E0,6.332132263E0,2.769329124E1
3.705628375E0,-2.244297958E1,5.320984955E0,5.157075806E0,2.363462808E1
3.715697375E0,-1.802611450E1,5.815406799E0,2.688409424E0,1.913079469E1
3.725766375E0,-1.469419327E1,6.256689148E0,4.257147217E-1,1.597644228E1
3.735835375E0,-1.309042831E1,6.493197327E0,-2.053429871E0,1.475593098E1
3.745903375E0,-1.411789169E1,6.255791016E0,-3.858226776E0,1.591652289E1
3.755972375E0,-1.596250580E1,6.488257599E0,-4.140240326E0,1.772119262E1
3.766041375E0,-1.749591705E1,5.905519409E0,-3.894152069E0,1.887184923E1
3.776109375E0,-1.746582962E1,4.400099945E0,-3.258274384E0,1.830389128E1
3.786178375E0,-1.624377090E1,2.722388763E0,-2.397115173E0,1.664384736E1
3.796247375E0,-1.458462112E1,1.366508331E0,-1.609902191E0,1.473669920E1
3.806315083E0,-1.258058853E1,3.514691162E-1,-8.078700256E-1,1.261139930E1
3.816384083E0,-1.062041473E1,-3.110531616E-1,2.357597351E-1,1.062758420E1
3.826453083E0,-8.608448639E0,-4.833448792E-1,1.482966156E0,8.748611253E0
3.836521083E0,-6.719077606E0,-2.293231201E-1,2.791245575E0,7.279398659E0
3.846590083E0,-4.877756653E0,1.672023010E-1,3.550017700E0,6.035154699E0
3.856659083E0,-2.953358459E0,5.328918457E-1,3.426973572E0,4.555265939E0
3.866728083E0,-1.093027039E0,7.035369873E-1,3.064128113E0,3.328446108E0
3.876796083E0,2.652484131E-1,6.078858948E-1,2.892435150E0,2.967501151E0
3.886865083E0,1.018332367E0,2.781216431E-1,2.496059418E0,2.710104255E0
3.896934083E0,1.120420074E0,-4.775070190E-2,2.093396759E0,2.374853946E0
3.907002083E0,1.116228790E0,-2.990780640E-1,1.575024719E0,1.953488486E0
3.917071083E0,1.200204163E0,-4.670288086E-1,1.025966492E0,1.646576200E0
3.927140083E0,1.451681213E0,-7.322772217E-1,3.861968994E-2,1.626376265E0
3.937208083E0,1.783840485E0,-9.081614685E-1,-1.121168518E0,2.294311002E0
3.947277083E0,1.738634491E0,-8.415499878E-1,-1.367556152E0,2.366699412E0
3.957346083E0,1.373992767E0,-7.068301392E-1,-4.513114929E-1,1.609704021E0
3.967414083E0,8.779243469E-1,-5.945635986E-1,7.553292847E-1,1.301836918E0
3.977483083E0,5.008584595E-1,-4.754113770E-1,1.503323822E0,1.654345093E0
3.987552083E0,1.383123779E-1,-3.686833191E-1,1.533261566E0,1.583018867E0
3.997621083E0,-6.885681152E-2,-2.740800476E-1,1.088386688E0,1.124476196E0
4.007689083E0,1.398092651E-1,-2.924917603E-1,4.653822327E-1,5.671672442E-1
4.017758083E0,4.662803650E-1,-5.938151550E-1,-5.542973328E-1,9.366319182E-1
4.027827083E0,7.981402588E-1,-1.485510864E0,-3.527115326E0,3.909515689E0
4.037895083E0,7.303312683E-1,-2.857557678E0,-7.685917053E0,8.232395799E0
4.047964083E0,-8.747808838E-1,-4.061653748E0,-1.152498367E1,1.225102124E1
4.058033083E0,-4.020040283E0,-5.049898682E0,-1.563334030E1,1.691341271E1
4.068101083E0,-7.551646271E0,-5.451064453E0,-1.843087280E1,2.065038831E1
4.078170083E0,-9.927056580E0,-4.089495850E0,-1.508652740E1,1.851685010E1
4.088239083E0,-9.045539703E0,-1.099912720E0,1.474134521E0,9.230637524E0
4.098307083E0,-6.918762360E0,6.264472961E-1,1.344563965E1,1.513429663E1
4.108376083E0,-6.261030121E0,1.320703583E0,1.373379044E1,1.515129552E1
4.118445083E0,-8.139623566E0,3.158731384E0,7.366032257E0,1.142319951E1
4.128514083E0,-1.524519745E1,6.413113861E0,-1.974768448E1,2.575878718E1
4.138582083E0,-2.683784042E1,2.900368652E0,-3.751798096E1,4.621991683E1
4.148651083E0,-3.463722153E1,9.174421692E-1,-1.867815857E1,3.936308452E1
4.158720083E0,-3.414803879E1,2.050286407E0,4.168681183E0,3.446259030E1
4.168788083E0,-2.771531570E1,2.750679932E0,7.367229767E0,2.880939151E1
4.178857083E0,-1.676214294E1,2.396666107E0,-1.182690582E0,1.697386820E1
4.188926083E0,-6.505322113E0,-3.607498169E-1,-7.284751282E0,9.773277724E0
4.198994083E0,-4.393363953E0,-3.351530457E0,-2.651735687E0,6.129119462E0
4.209063083E0,-4.865781555E0,-4.217779083E0,4.087998962E0,7.627399692E0
4.219132083E0,-4.183200989E0,-3.829636230E0,3.408112793E0,6.616684742E0
4.229200083E0,-2.281256104E0,-3.080593872E0,-3.958218842E0,5.510143774E0
4.239269083E0,-2.366878052E0,-2.676134949E0,-1.174876831E1,1.227995793E1
4.249338083E0,-7.661218414E0,-2.118245087E0,-8.223149872E0,1.143684500E1
4.259407083E0,-1.180310532E1,-1.105750580E0,-1.394051056E0,1.193647175E1
4.269475083E0,-1.364263000E1,-9.979747009E-1,-3.028951263E0,1.401041943E1
4.279544083E0,-1.647818344E1,-1.347198486E0,-8.431366882E0,1.855891755E1
4.289613083E0,-2.009990204E1,-5.287005615E-1,-8.927135925E0,2.199953050E1
4.299681083E0,-2.294578400E1,1.500330048E0,-5.151986389E0,2.356486701E1
4.309750083E0,-2.549094131E1,3.645668793E0,-4.540657654E0,2.614759190E1
4.319819083E0,-2.759736099E1,5.235812073E0,-6.880891113E0,2.892014392E1
4.329887083E0,-2.631527710E1,5.730383606E0,-9.303004303E0,2.849345529E1
4.339956083E0,-2.209046265E1,4.546645203E0,-7.432344360E0,2.374658429E1
4.350025083E0,-1.980755997E1,3.752995605E0,-6.257138214E0,2.110867562E1
4.360093083E0,-2.022264679E1,3.843557281E0,-7.200775909E0,2.180778644E1
4.370162083E0,-2.243280075E1,4.217030640E0,-6.737189941E0,2.379923581E1
4.380231083E0,-2.488230698E1,4.353546753E0,-4.651576996E0,2.568500999E1
4.390300083E0,-2.592563736E1,4.161346436E0,-3.043770447E0,2.643331260E1
4.400368083E0,-2.515459076E1,3.683839417E0,-1.646126862E0,2.547614262E1
4.410437083E0,-2.280118469E1,3.088377686E0,-2.576142883E-1,2.301083365E1
4.420506083E0,-1.949920120E1,2.435136108E0,3.423381042E-1,1.965364930E1
4.430574083E0,-1.681393524E1,1.948348389E0,7.720944214E-1,1.694404348E1
4.440643083E0,-1.442161011E1,1.563348999E0,1.347497864E0,1.456854999E1
4.450712083E0,-1.178065201E1,1.159488831E0,1.478026428E0,1.192949027E1
4.460780083E0,-9.124126282E0,6.869215393E-1,9.639953613E-1,9.200588495E0
4.470849083E0,-6.545887756E0,1.007405090E-1,-2.275268555E-2,6.546702441E0
4.480918083E0,-4.105213165E0,-7.213499451E-1,-1.084345093E0,4.306846312E0
4.490986083E0,-2.151625671E0,-1.596280518E0,-1.828447723E0,3.243582217E0
4.501055083E0,-1.322050781E0,-2.274520111E0,-1.680106201E0,3.121540782E0
4.511124083E0,-7.629634094E-1,-2.631527710E0,-8.834628296E-1,2.878811877E0
4.521192083E0,4.580474854E-2,-2.869083710E0,-3.023712158E-1,2.885336681E0
4.531261083E0,6.830296326E-1,-2.983595581E0,5.310955811E-1,3.106514862E0
4.541330083E0,1.024170227E0,-2.650687866E0,1.115031281E0,3.052599806E0
4.551399083E0,1.229543152E0,-1.999092865E0,1.070424042E0,2.579526366E0
4.561467083E0,1.413360901E0,-1.110390930E0,9.744735718E-1,2.044542931E0
4.571536083E0,1.338217163E0,4.041595459E-2,3.981719971E-1,1.396781860E0
4.581605083E0,8.743318176E-1,1.269360352E0,-5.887257385E-1,1.649948431E0
4.591673083E0,4.921765137E-1,2.075434113E0,-1.191222839E0,2.443087458E0
4.601742083E0,5.245092773E-1,2.455643463E0,-1.279988251E0,2.818450766E0
4.611811083E0,9.059161377E-1,2.649789734E0,-1.276844788E0,3.077726806E0
4.621879083E0,1.269809418E0,2.632725220E0,-8.903485107E-1,3.055548807E0
4.631948083E0,1.207089844E0,2.384691010E0,2.185455322E-2,2.672881352E0
4.642017083E0,4.998106384E-1,1.979483643E0,1.161434784E0,2.348850128E0
4.652085083E0,-2.189945984E-1,1.547781372E0,1.919608154E0,2.475576958E0
4.662154083E0,-5.794450378E-1,1.158291321E0,2.140099640E0,2.501483920E0
4.672223083E0,-5.936654663E-1,8.710386658E-1,1.990111542E0,2.252041516E0
4.682291083E0,-4.535568237E-1,6.306385803E-1,1.697320404E0,1.866632092E0
4.692360083E0,-2.547702026E-1,4.465214539E-1,1.414259033E0,1.504798285E0
4.702429083E0,-7.649093628E-2,2.195933533E-1,1.072519684E0,1.097438188E0
4.712498083E0,3.787124634E-2,-1.513352966E-1,6.391708374E-1,6.579330989E-1
4.722566083E0,1.264869690E-1,-7.641609192E-1,-1.872605896E-1,7.968735108E-1
4.732635083E0,1.564247131E-1,-1.646126862E0,-1.944157104E0,2.552243950E0
4.742704083E0,7.379653931E-2,-2.669099579E0,-3.660487976E0,4.530862028E0
4.752772083E0,2.050735474E-2,-3.296744385E0,-3.489393768E0,4.800501324E0
4.762841083E0,-2.125579834E-2,-3.363505554E0,-2.086810455E0,3.958332894E0
4.772910083E0,6.122268677E-2,-3.092119904E0,-1.159039764E0,3.302775634E0
4.782978083E0,4.161346436E-2,-2.523602142E0,-9.720785522E-1,2.704669326E0
4.793047083E0,8.292755127E-2,-1.719025269E0,-1.813927917E0,2.500451828E0
4.803116708E0,-2.049238586E-1,-6.155200195E-1,-4.096231842E0,4.147285134E0
4.813184708E0,-1.208437042E0,9.592053223E-1,-8.609047394E0,8.746204432E0
4.823253708E0,-3.033591614E0,3.306474152E0,-1.433853287E1,1.502427949E1
4.833322708E0,-5.089266815E0,6.439010010E0,-2.176563812E1,2.326165277E1
4.843390708E0,-6.660848694E0,7.378157043E0,-2.636063278E1,2.817245228E1
4.853459708E0,-7.340585175E0,3.949087830E0,-6.283034363E0,1.043819938E1
4.863528708E0,-7.457342377E0,3.791615295E-1,1.685749466E1,1.843721359E1
4.873597708E0,-8.704399109E0,-1.450483704E-1,1.740595413E1,1.946162486E1
4.883665708E0,-1.068717590E1,2.532733154E-1,1.304507263E1,1.686575810E1
4.893734708E0,-1.257909164E1,9.325607300E-1,1.166164948E1,1.717839587E1
4.903803708E0,-1.509041931E1,9.797126770E-1,1.040965302E1,1.835868916E1
4.913871708E0,-1.799363205E1,7.810757446E-1,7.397616577E0,1.947063442E1
4.923940708E0,-2.305161392E1,1.218615875E0,-2.340951965E1,3.287654999E1
4.934009708E0,-2.861314865E1,-1.889371033E0,-5.426575378E1,6.137633121E1
4.944077708E0,-3.089215942E1,-5.355413361E0,-2.540112808E1,4.035124873E1
4.954146708E0,-2.883648422E1,-2.977608032E0,-2.234702911E0,2.907581244E1
4.964215708E0,-2.363914215E1,-2.742297363E-1,9.274713135E0,2.539497091E1
4.974283708E0,-2.102108643E1,6.975494385E-1,6.215524750E0,2.193183526E1
4.984352708E0,-1.797492096E1,7.183561707E-1,-8.323441315E0,1.982154117E1
4.994421708E0,-1.219379288E1,8.860075378E-1,-1.216370544E1,1.724613940E1
5.004489708E0,-8.808133392E0,9.828561401E-1,-4.299958191E0,9.850830447E0
5.014558708E0,-7.694598999E0,1.142424316E0,-3.874692535E0,8.690525261E0
5.024627708E0,-9.655072174E0,1.459764404E0,-6.115382996E0,1.152168564E1
5.034696708E0,-1.397748367E1,1.075363770E0,-6.437064056E0,1.542602511E1
5.044764708E0,-1.733081039E1,4.043092346E-1,-1.007794281E1,2.005206688E1
5.054833708E0,-1.907902496E1,2.514770508E-1,-1.057086777E1,2.181319966E1
5.064902708E0,-2.068967560E1,2.186952209E-1,-6.806944885E0,2.178175848E1
5.074970708E0,-2.103740250E1,1.218316498E0,-6.363566895E0,2.201253240E1
5.085039708E0,-2.103635468E1,2.447111206E0,-6.753655701E0,2.222899990E1
5.095108708E0,-1.986519012E1,3.821403351E0,-6.405779114E0,2.121939934E1
5.105176708E0,-1.777119461E1,4.679269409E0,-6.278543701E0,1.941986177E1
5.115245708E0,-1.612237335E1,5.056934052E0,-7.308402100E0,1.840967805E1
5.125314708E0,-1.494986160E1,5.329367523E0,-8.571176147E0,1.803789291E1
5.135382708E0,-1.429182999E1,5.283113708E0,-8.177195435E0,1.729260593E1
5.145451708E0,-1.437715256E1,4.719086609E0,-7.413333893E0,1.685021702E1
5.155520708E0,-1.506661880E1,3.837120667E0,-8.070467377E0,1.751738967E1
5.165588708E0,-1.639690247E1,2.940036163E0,-8.116571503E0,1.853054117E1
5.175657708E0,-1.835078934E1,2.507136383E0,-7.362888794E0,1.993111471E1
5.185726708E0,-2.097168915E1,2.421963501E0,-5.549110565E0,2.182819922E1
5.195795708E0,-2.319471634E1,2.240241394E0,-3.360062714E0,2.354365241E1
5.205863708E0,-2.431348984E1,1.976489868E0,-1.066382446E0,2.441699146E1
5.215932708E0,-2.397010391E1,1.885179749E0,1.168470154E0,2.407249689E1
5.226001708E0,-2.266451889E1,2.007325745E0,2.674937439E0,2.290993373E1
5.236069708E0,-2.056663147E1,2.302362213E0,2.638114014E0,2.086257049E1
5.246138708E0,-1.797102905E1,2.921774139E0,1.202000427E0,1.824662858E1
5.256207708E0,-1.510299316E1,2.586920471E0,-3.140469360E-1,1.532616017E1
5.266275708E0,-1.155821457E1,3.935316467E-1,-5.927673340E-1,1.158009345E1
5.276344708E0,-8.498726807E0,-1.056502991E0,5.628295898E-1,8.582618077E0
5.286413708E0,-6.016438751E0,-1.812880096E0,7.958949280E-1,6.333839138E0
5.296481708E0,-3.289559326E0,-2.944526825E0,-8.030799866E-1,4.487357379E0
5.306550708E0,-1.797312469E0,-3.567980347E0,-1.174158325E0,4.164068160E0
5.316619708E0,-1.697470093E0,-2.294877777E0,-9.430389404E-2,2.856004543E0
5.326688708E0,-1.167721710E0,2.520758057E-1,-2.562820587E0,2.827572380E0
5.336756708E0,2.082170105E-1,3.482807465E0,-8.498277740E0,9.186622160E0
5.346825708E0,1.406325531E0,6.481970673E0,-1.321631653E1,1.478731611E1
5.356894708E0,1.495839386E0,7.993377686E0,-1.106499023E1,1.373192016E1
5.366962708E0,1.674867096E0,8.157436523E0,-5.425317993E0,9.938965024E0
5.377031708E0,2.459235992E0,6.501430206E0,6.499484253E-1,6.981322894E0
5.387100708E0,2.673889618E0,4.176914062E0,5.096451874E0,7.111267009E0
5.397168708E0,2.864742737E0,2.490221558E0,6.738836517E0,7.734330738E0
5.407237708E0,2.906056824E0,1.397643585E0,6.884034576E0,7.601875157E0
5.417306708E0,2.838098145E0,7.378157043E-1,6.364015961E0,7.007130100E0
5.427374708E0,2.588866425E0,2.221380615E-1,4.966372375E0,5.605036062E0
5.437443708E0,2.324067078E0,-8.307723999E-2,3.317102051E0,4.051093139E0
5.447512708E0,2.096839600E0,-3.905378723E-1,2.014061737E0,2.933547480E0
5.457580708E0,1.898502045E0,-7.000941467E-1,9.991722107E-1,2.256720394E0
5.467649708E0,1.650617523E0,-9.163943481E-1,3.802093506E-1,1.925844220E0
5.477718708E0,1.032702484E0,-1.121318207E0,2.468367004E-1,1.544265942E0
5.487786708E0,8.921447754E-2,-1.124311981E0,6.357279968E-1,1.294676307E0
5.497855708E0,-6.426136780E-1,-1.205293579E0,1.237027588E0,1.842802812E0
5.507924708E0,-1.025517426E0,-1.447639618E0,1.820813599E0,2.542185795E0
5.517993708E0,-1.217118988E0,-1.721869354E0,2.132016449E0,2.998617489E0
5.528061708E0,-1.185384979E0,-1.921254730E0,2.137255554E0,3.108732634E0
5.538130708E0,-1.122066650E0,-1.955383759E0,1.783391418E0,2.874551124E0
5.548199708E0,-1.090332642E0,-1.818119202E0,1.226699066E0,2.449320987E0
5.558267708E0,-9.416917419E-1,-1.626817017E0,7.137158203E-1,2.010648456E0
5.568336708E0,-7.050338745E-1,-1.349144440E0,2.805166626E-1,1.547886650E0
5.578405708E0,-5.005590820E-1,-9.279203796E-1,4.490661621E-3,1.054331917E0
5.588473708E0,-3.436853027E-1,-5.258564758E-1,-2.323168945E-1,6.697878470E-1
5.598542708E0,-2.573149109E-1,-2.531236267E-1,-5.194198608E-1,6.325183994E-1
5.608611708E0,-1.853146362E-1,-1.173559570E-1,-1.115031281E0,1.136401642E0
5.618679708E0,-3.116519165E-1,-3.906875610E-2,-3.006947021E0,3.023306745E0
5.628748708E0,-1.753154297E0,1.197509766E-1,-1.615081421E1,1.624612846E1
5.638817708E0,-3.748055878E0,4.281097412E-2,-1.915312088E1,1.951644935E1
5.648885708E0,-5.017116852E0,1.354682922E-1,-1.420725586E1,1.506771158E1
5.658954708E0,-7.128476257E0,3.715274048E-1,-1.347273331E1,1.524689310E1
5.669023708E0,-8.368048553E0,1.187181244E0,-1.194486053E1,1.463261183E1
5.679092708E0,-6.657555542E0,1.798809357E0,-5.810167694E0,9.017583353E0
5.689160708E0,-3.826492767E0,4.087998962E-1,7.110064545E0,8.084688125E0
5.699229708E0,-4.976700897E0,-1.058149567E0,1.138412659E1,1.246938533E1
5.709298708E0,-7.759114838E0,-1.491199036E0,9.733958130E0,1.253704425E1
5.719366708E0,-1.093176727E1,2.535577240E0,9.314380646E0,1.458390807E1
5.729435708E0,-1.543320648E1,6.661896515E0,8.954828339E0,1.904609351E1
5.739504708E0,-2.414883224E1,8.894503784E0,2.711910553E0,2.587726329E1
5.749572708E0,-3.611928955E1,1.238299942E1,-2.348975281E1,4.482979187E1
5.759641708E0,-3.869707901E1,1.228031296E1,-2.236663834E1,4.635230869E1
5.769710708E0,-3.174822922E1,6.140530701E0,-7.259902954E0,3.314155046E1
5.779778708E0,-3.075205078E1,-1.165476379E0,-2.562566116E1,4.004649139E1
5.789847708E0,-3.315904541E1,-3.969744873E-1,-1.546104858E1,3.658857615E1
5.799916708E0,-2.812321747E1,4.887486420E0,1.515807861E1,3.231981175E1
5.809984375E0,-1.889161469E1,5.473517761E0,1.252041367E1,2.331551544E1
5.820053375E0,-1.262310013E1,6.581813049E0,-4.881199493E0,1.504955243E1
5.830122375E0,-5.750292206E0,5.908962250E0,-1.832369568E1,2.009327048E1
5.840191375E0,-8.232879639E-2,3.169958038E0,-1.302800812E1,1.340837080E1
5.850259375E0,-8.553213501E-1,1.804048462E0,-7.008276215E0,7.287118838E0
5.860328375E0,-2.540217590E0,-2.835104370E-1,-6.647227020E0,7.121707003E0
5.870397375E0,-3.677402802E0,-2.332749023E0,-8.312214661E0,9.383918261E0
5.880465375E0,-9.113498383E0,-3.939657440E0,-7.476652222E0,1.242888096E1
5.890534375E0,-1.405113052E1,-4.685406647E0,-9.138197021E0,1.740384869E1
5.900603375E0,-1.590038498E1,-4.756957855E0,-8.470884705E0,1.863348540E1
5.910671375E0,-1.461366074E1,-4.750820618E0,-7.929909668E0,1.729198786E1
5.920740375E0,-1.257340347E1,-3.988006897E0,-8.930129700E0,1.592927777E1
5.930809375E0,-1.038211029E1,-3.483555908E0,-9.224417725E0,1.431828405E1
5.940877375E0,-7.931256866E0,-2.382295990E0,-8.685089264E0,1.200045604E1
5.950946375E0,-6.312223663E0,-3.088078308E-1,-8.095016327E0,1.026980132E1
5.961015375E0,-6.331832886E0,1.143322449E0,-9.023984528E0,1.108294143E1
5.971083375E0,-7.289092255E0,1.405427399E0,-8.513396301E0,1.129530914E1
5.981152375E0,-8.251441040E0,7.144642639E-1,-7.419920197E0,1.111989002E1
5.991221375E0,-9.148375854E0,-2.067201233E-1,-8.281977539E0,1.234206895E1
6.001289375E0,-1.042237656E1,-8.574169922E-1,-8.263266449E0,1.332826581E1
6.011358375E0,-1.146346161E1,-7.767347717E-1,-7.233108673E0,1.357689692E1
6.021427375E0,-1.223331070E1,-2.664459229E-2,-7.299121399E0,1.424541238E1
6.031496375E0,-1.335792206E1,1.000669098E0,-7.179071045E0,1.519784463E1
6.041564375E0,-1.488863892E1,2.304158478E0,-6.619684296E0,1.645603036E1
6.051633375E0,-1.676094543E1,3.842060394E0,-7.069798279E0,1.859227710E1
6.061702375E0,-1.857831619E1,5.655838623E0,-7.045099640E0,2.065855203E1
6.071770375E0,-1.968616241E1,7.266189880E0,-6.652166748E0,2.201349196E1
6.081839375E0,-1.953946747E1,7.926915894E0,-5.240302734E0,2.172757596E1
6.091908375E0,-1.839300156E1,7.625442810E0,-3.160377960E0,2.016030439E1
6.101976375E0,-1.700778214E1,7.085814972E0,-2.024539948E0,1.853570039E1
6.112045375E0,-1.598346222E1,6.458170166E0,-6.626719666E-1,1.725161327E1
6.122114375E0,-1.541718979E1,5.786816254E0,1.097218323E0,1.650396532E1
6.132182375E0,-1.518157974E1,5.227130127E0,2.344275055E0,1.622648694E1
6.142251375E0,-1.539413773E1,4.822970581E0,2.537672882E0,1.633034921E1
6.152320375E0,-1.564606384E1,4.587959290E0,1.457668762E0,1.636989561E1
6.162388375E0,-1.599094666E1,4.140689392E0,1.745370483E-1,1.651926593E1
6.172457375E0,-1.618569168E1,3.381168823E0,-4.064048767E-1,1.654007505E1
6.182526375E0,-1.565414703E1,2.326911163E0,-1.239422607E-1,1.582662935E1
6.192595375E0,-1.394410309E1,1.168470154E0,4.358935547E-1,1.399976202E1
6.202663375E0,-1.177421539E1,2.369572449E-1,4.719685364E-1,1.178605325E1
6.212732375E0,-9.513167267E0,-4.655319214E-1,4.147874451E-1,9.533578554E0
6.222801375E0,-6.809190216E0,-1.152004395E0,-7.200027466E-1,6.943384584E0
6.232869375E0,-4.064647522E0,-2.039059753E0,-4.642745361E0,6.498785167E0
6.242938375E0,-1.715133362E0,-3.250789948E0,-9.298813019E0,9.998862000E0
6.253007375E0,1.362167358E-1,-4.029919739E0,-1.051982391E1,1.126612193E1
6.263075375E0,8.270301819E-1,-4.384232941E0,-8.869505768E0,9.928424345E0
6.273144375E0,1.026864624E0,-3.992048492E0,-6.875951385E0,8.016832889E0
6.283213375E0,1.253942413E0,-2.678380280E0,-5.469625854E0,6.217949782E0
6.293281375E0,4.492158508E-1,-6.836283875E-1,-4.773423615E0,4.843006882E0
6.303350375E0,-3.012635193E0,2.079475708E0,-5.630840607E0,6.716141449E0
6.313419375E0,-5.333409119E0,3.127596130E0,-6.922504578E0,9.281604388E0
6.323487375E0,-6.221811676E0,3.898343353E0,-7.766898651E0,1.068797156E1
6.333556375E0,-6.508315887E0,4.518653412E0,-9.162147217E0,1.211285870E1
6.343625375E0,-4.386777649E0,4.225862274E0,-7.670798492E0,9.795043625E0
6.353693375E0,-3.040177917E-1,2.939138031E0,-3.480113068E0,4.565319939E0
6.363762375E0,1.692380676E0,1.135987701E0,4.641847229E-1,2.090475512E0
6.373831375E0,1.798809357E0,-1.306782532E-1,3.779041443E0,4.187355506E0
6.383900375E0,1.974244537E0,-8.909472656E-1,5.920637970E0,6.304393904E0
6.393968375E0,1.634900208E0,-1.533560944E0,6.732250214E0,7.095625469E0
6.404037375E0,1.282383270E0,-1.839225311E0,6.123166809E0,6.520769001E0
6.414106375E0,1.278491364E0,-1.493594055E0,5.020709381E0,5.391927861E0
6.424174375E0,1.324296112E0,-1.013392639E0,4.515060883E0,4.813159005E0
6.434243375E0,1.365161133E0,-7.491920471E-1,4.343667297E0,4.614368779E0
6.444312375E0,1.397493896E0,-5.608836365E-1,3.842659149E0,4.127179301E0
6.454380375E0,1.212179260E0,-3.382965088E-1,3.140319672E0,3.383109624E0
6.464449375E0,8.384065247E-1,-7.783813477E-2,2.142195282E0,2.301735194E0
6.474518375E0,1.812730408E-1,2.597099304E-1,1.353335724E0,1.389901703E0
6.484586375E0,-4.900808716E-1,6.520440674E-1,1.076112213E0,1.350317822E0
6.494655375E0,-1.079704742E0,1.059047699E0,1.235381012E0,1.952821191E0
6.504724375E0,-1.567989349E0,1.492845612E0,1.574575653E0,2.677025795E0
6.514792375E0,-1.793270874E0,1.875899048E0,1.994602203E0,3.273110999E0
6.524861375E0,-1.689087524E0,2.254611511E0,2.250569916E0,3.605739131E0
6.534930375E0,-1.514251099E0,2.608325958E0,2.096689911E0,3.673204225E0
6.544998375E0,-1.589544525E0,2.932102661E0,1.922452240E0,3.849636402E0
6.555067375E0,-2.081571350E0,3.234623566E0,1.465751953E0,4.116328180E0
6.565136375E0,-4.211342468E0,4.021088104E0,-3.065774689E0,6.580541723E0
6.575205375E0,-1.196506851E1,5.358257446E0,-2.099623810E1,2.475309681E1
6.585273375E0,-1.326002563E1,5.884712677E0,-2.893767380E1,3.237046629E1
6.595342375E0,-1.359383148E1,6.453080750E0,-1.261142441E1,1.963370905E1
6.605411375E0,-1.669448364E1,6.837780762E0,2.805016937E0,1.825730401E1
6.615479375E0,-2.102812180E1,6.825506287E0,5.344486084E0,2.274495491E1
6.625548375E0,-2.394540527E1,5.213059387E0,5.823489990E0,2.518871687E1
6.635617375E0,-3.007785278E1,4.221072235E0,-4.238885193E0,3.066696637E1
6.645685375E0,-3.804533432E1,1.557361450E0,-1.558424240E1,4.114293924E1
6.655754375E0,-3.751438843E1,-3.981270905E0,-1.235231323E1,3.969583730E1
6.665823375E0,-2.797846848E1,-7.347770233E0,-5.592669983E0,2.946289842E1
6.675891375E0,-2.083547241E1,-8.436306610E0,-3.870351563E0,2.280937967E1
6.685960375E0,-1.604318802E1,-6.803951111E0,-2.853665771E0,1.765845522E1
6.696029375E0,-1.258732452E1,-4.189637604E0,-6.504723358E0,1.477515577E1
6.706097375E0,-1.059466827E1,-2.281555481E0,-6.751410370E0,1.276847811E1
6.716166375E0,-8.118517456E0,-1.285077667E0,-3.447780304E0,8.913413449E0
6.726235375E0,-5.109175415E0,-5.072950745E-1,-2.767594757E0,5.832718273E0
6.736303375E0,-2.138153687E0,-1.712438965E-1,-4.240531769E0,4.752171645E0
6.746372375E0,1.544787598E-1,5.613327026E-2,-5.833668823E0,5.835983771E0
6.756441375E0,5.628295898E-1,6.138734436E-1,-6.147566071E0,6.203723587E0
6.766510375E0,-2.649490356E-2,1.117276611E0,-5.238057404E0,5.355955038E0
6.776578375E0,-2.490820312E0,9.122030640E-1,-6.133046265E0,6.682107208E0
6.786647375E0,-7.922574921E0,-2.643502808E-1,-8.837023315E0,1.187139653E1
6.796716375E0,-1.235051697E1,-1.884730682E0,-1.080737595E1,1.651928733E1
6.806784958E0,-1.534114792E1,-3.032543793E0,-9.179211731E0,1.813298291E1
6.816853958E0,-1.650737274E1,-3.320544891E0,-6.506220245E0,1.805132336E1
6.826922958E0,-1.606728790E1,-3.520678711E0,-5.774092712E0,1.743252896E1
6.836990958E0,-1.499536697E1,-4.149670715E0,-6.185287628E0,1.674331451E1
6.847059958E0,-1.229617996E1,-4.774321747E0,-5.855673065E0,1.443187780E1
6.857128958E0,-9.610464935E0,-4.784500580E0,-5.165907440E0,1.191381894E1
6.867196958E0,-8.506360931E0,-4.496499481E0,-5.970334625E0,1.132349678E1
6.877265958E0,-8.455616455E0,-3.874692535E0,-6.901398468E0,1.158188209E1
6.887334958E0,-8.939111023E0,-3.042572937E0,-6.768923950E0,1.161823082E1
6.897402958E0,-9.691147156E0,-2.144590302E0,-6.183042297E0,1.169391349E1
6.907471958E0,-1.044722488E1,-1.294058990E0,-5.546116791E0,1.189867673E1
6.917540958E0,-1.129715744E1,-6.888674927E-1,-5.542075195E0,1.260217847E1
6.927608958E0,-1.201087326E1,-1.023870850E-1,-5.570516052E0,1.324017404E1
6.937677958E0,-1.267953278E1,4.471202087E-1,-4.766537933E0,1.355324137E1
6.947746958E0,-1.358859238E1,8.307723999E-1,-4.009113007E0,1.419200524E1
6.957815958E0,-1.481080078E1,1.187181244E0,-4.105512543E0,1.541507225E1
6.967883958E0,-1.641291916E1,1.425335999E0,-5.132826233E0,1.725576435E1
6.977952958E0,-1.765638336E1,1.665736084E0,-6.469546509E0,1.887796552E1
6.988021958E0,-1.911390244E1,2.235750732E0,-5.884862366E0,2.012390252E1
6.998089958E0,-2.142090500E1,2.628983002E0,-4.967869263E0,2.214602555E1
7.008158958E0,-2.363674713E1,2.654280396E0,-5.386548615E0,2.438761828E1
7.018227958E0,-2.502466095E1,2.289488983E0,-6.999444580E0,2.608577467E1
7.028295958E0,-2.502990005E1,2.005230103E0,-7.827223206E0,2.630175408E1
7.038364958E0,-2.334605164E1,2.217788086E0,-6.493796082E0,2.433364129E1
7.048433958E0,-2.095911530E1,2.731519775E0,-4.905149689E0,2.169806922E1
7.058501958E0,-1.895283737E1,3.590733032E0,-3.557202759E0,1.961522622E1
7.068570958E0,-1.772389297E1,4.753664703E0,-1.615440674E0,1.842127463E1
7.078639958E0,-1.742466522E1,5.730533295E0,-6.930587769E-2,1.834292161E1
7.088707958E0,-1.728964600E1,6.170468445E0,6.695576477E-1,1.836994412E1
7.098776958E0,-1.600531677E1,6.196663971E0,7.574249268E-1,1.717971193E1
7.108845958E0,-1.395009064E1,5.780978394E0,5.839356995E-1,1.511177425E1
7.118913958E0,-1.142888351E1,4.642745361E0,6.610253906E-1,1.235359937E1
7.128982958E0,-8.539891205E0,2.852468262E0,7.433541870E-1,9.034317485E0
7.139051958E0,-6.106551361E0,8.068222046E-1,-1.288819885E-1,6.160969255E0
7.149119958E0,-4.517006836E0,-1.196312256E0,-1.126707001E0,4.806660216E0
7.159188958E0,-3.368445282E0,-2.844534760E0,-1.098565521E0,4.543638170E0
7.169257958E0,-2.457439728E0,-3.892804871E0,-7.827223206E-1,4.669646026E0
7.179326958E0,-1.589095459E0,-4.602030029E0,-4.784051514E-1,4.892113680E0
7.189394958E0,-9.246272278E-1,-4.972659302E0,-6.483018494E-1,5.099271647E0
7.199463958E0,-4.177812195E-1,-4.814737701E0,-9.746232605E-1,4.930124824E0
7.209532958E0,3.091072083E-1,-4.412524109E0,-1.316362610E0,4.615054366E0
7.219600958E0,8.619076538E-1,-4.360731812E0,-2.074236603E0,4.905234370E0
7.229669958E0,1.292711792E0,-4.726271667E0,-3.270848236E0,5.891281341E0
7.239738958E0,8.134085083E-1,-3.614234161E0,-5.560636597E0,6.681691503E0
7.249806958E0,-4.159849548E-1,-1.165326691E0,-9.031918030E0,9.116280660E0
7.259875958E0,-1.037342834E0,-2.245330811E-2,-1.016955231E1,1.022234701E1
7.269944958E0,-6.451583862E-1,4.559518433E-1,-7.202572174E0,7.245768927E0
7.280012958E0,1.137634277E-2,4.840933228E-1,-3.541485443E0,3.574436307E0
7.290081958E0,3.757186890E-1,1.628613281E-1,-3.059637451E-1,5.111772283E-1
7.300150958E0,4.586462402E-1,-9.460327148E-2,2.445764008E0,2.490194316E0
7.310218958E0,1.330732727E-1,-2.222877502E-1,3.763024750E0,3.771932609E0
7.320287958E0,-3.204835510E-1,-3.034190369E-1,3.787124634E0,3.812753049E0
7.330356958E0,-7.018904114E-1,-3.781137085E-1,3.745062103E0,3.828982931E0
7.340424958E0,-8.828640747E-1,-4.102967834E-1,3.627257080E0,3.755633948E0
7.350493958E0,-9.198371887E-1,-2.941383362E-1,3.338657227E0,3.475521528E0
7.360562958E0,-9.494755554E-1,-8.532257080E-2,2.945724335E0,3.096138826E0
7.370630958E0,-8.298742676E-1,1.052311707E-1,2.451003113E0,2.589822611E0
7.380699958E0,-5.385800171E-1,2.374063110E-1,1.935325470E0,2.022848206E0
7.390768958E0,-2.074685669E-1,3.088078308E-1,1.484912109E0,1.530806799E0
7.400837958E0,-3.083587646E-2,2.896476746E-1,9.930349731E-1,1.034874429E0
7.410905958E0,2.282752991E-1,2.466870117E-1,3.236270142E-1,4.665817594E-1
7.420974958E0,6.122268677E-1,2.284249878E-1,-4.300556946E-1,7.822708054E-1
7.431043958E0,8.493338013E-1,1.908531189E-1,-1.022074585E0,1.342545819E0
7.441111958E0,1.076561279E0,1.462458801E-1,-1.280886383E0,1.679595776E0
7.451180958E0,1.268013153E0,1.203497314E-1,-1.142574005E0,1.711086430E0
7.461249958E0,1.382974091E0,1.074765015E-1,-7.830216980E-1,1.592887790E0
7.471317958E0,1.234931946E0,1.558259583E-1,-3.183879089E-1,1.284799401E0
7.481386958E0,7.077282715E-1,3.079096985E-1,5.912704468E-2,7.740695680E-1
7.491455958E0,-6.810836792E-2,4.376898193E-1,-2.225871277E-1,4.957379924E-1
7.501523958E0,-9.958790588E-1,4.198768616E-1,-2.493365021E0,2.717524757E0
7.511592958E0,-2.748883667E0,6.658154297E-1,-7.977061615E0,8.463638911E0
7.521661958E0,-5.914500732E0,1.361867981E0,-1.638837021E1,1.747611746E1
7.531729958E0,-9.101822662E0,1.841171265E0,-2.008373566E1,2.212667000E1
7.541798958E0,-9.351802826E0,1.622176666E0,-5.048401794E0,1.075053645E1
7.551867958E0,-1.052117111E1,1.973945160E0,1.140253830E1,1.563999299E1
7.561935958E0,-1.250649261E1,3.409010925E0,1.554921524E1,2.024380912E1
7.572004958E0,-1.522274414E1,5.158722382E0,1.421249496E1,2.145552071E1
7.582073958E0,-2.321567276E1,6.959926758E0,5.143304443E-1,2.424195904E1
7.592141958E0,-4.419529541E1,5.953569489E0,-2.037353302E1,4.902805293E1
7.602210958E0,-5.604001419E1,3.105591888E0,-6.881489868E0,5.654628895E1
7.612279958E0,-4.313954086E1,2.081870728E0,-6.430028687E0,4.366576967E1
7.622348958E0,-2.364932098E1,3.354524231E-1,-6.612948303E0,2.455878655E1
7.632416958E0,-1.441292816E1,-3.004252625E-1,-2.935395813E-1,1.441904709E1
7.642485958E0,-1.151690048E1,6.152206421E-1,-8.586145020E-1,1.156523722E1
7.652554958E0,-9.486372986E0,8.934919739E-1,-5.251679077E0,1.087978554E1
7.662622958E0,-6.575376434E0,7.761360168E-1,-4.113446045E0,7.794767523E0
7.672691958E0,-5.132826233E0,2.980302429E-1,-1.165925446E0,5.272011884E0
7.682760958E0,-3.474275208E0,3.989204407E-1,-7.649093628E-2,3.497938907E0
7.692828958E0,-2.376607819E0,1.091380463E0,-1.735191650E0,3.138513358E0
7.702897958E0,-2.958148499E0,2.261646881E0,-4.522695007E0,5.858366605E0
7.712966958E0,-4.676425323E0,3.397784271E0,-5.729335785E0,8.138745622E0
7.723034958E0,-6.461313629E0,3.960015106E0,-5.209167480E0,9.195962119E0
7.733103958E0,-8.011340332E0,3.480562134E0,-5.114564209E0,1.012198863E1
7.743172958E0,-1.005369324E1,1.881437531E0,-4.915627899E0,1.134812551E1
7.753240958E0,-1.257145752E1,2.695893860E-1,-7.678432617E0,1.473338217E1
7.763309958E0,-1.589963654E1,-1.314716034E0,-1.122605530E1,1.950772252E1
7.773378958E0,-1.967044510E1,-2.864742737E0,-9.738598480E0,2.213534417E1
7.783446958E0,-2.249716690E1,-3.192561035E0,-5.311105499E0,2.333501245E1
7.793515958E0,-2.191981750E1,-3.392096100E0,-3.506158905E0,2.245613203E1
7.803584958E0,-1.710238541E1,-4.435875549E0,-4.027824097E0,1.812158783E1
7.813652333E0,-1.212523544E1,-4.752467194E0,-3.384761353E0,1.345599823E1
7.823721333E0,-8.200247498E0,-4.516857147E0,-1.488504639E0,9.479541316E0
7.833790333E0,-4.979245605E0,-4.669689331E0,-1.334474945E0,6.955552360E0
7.843859333E0,-2.694995728E0,-5.198389893E0,-3.000809784E0,6.579598681E0
7.853927333E0,-1.787133636E0,-5.691614227E0,-4.761149139E0,7.632618180E0
7.863996333E0,-3.474275208E0,-5.619314575E0,-4.893623657E0,8.221607933E0
7.874065333E0,-6.275100861E0,-4.645140381E0,-3.995641022E0,8.770368701E0
7.884133333E0,-8.183033295E0,-3.828738098E0,-3.724554749E0,9.772081529E0
7.894202333E0,-9.560917969E0,-3.509751434E0,-3.631298676E0,1.081276272E1
7.904271333E0,-1.048988617E1,-3.456761627E0,-3.783532104E0,1.167484595E1
7.914339333E0,-1.091470276E1,-4.007616119E0,-4.574786682E0,1.249481478E1
7.924408333E0,-1.112037506E1,-4.890480194E0,-5.188360748E0,1.320979278E1
7.934477333E0,-1.106424179E1,-5.273383942E0,-4.458328857E0,1.304234338E1
7.944545333E0,-1.061846878E1,-5.294340363E0,-3.603157196E0,1.240018794E1
7.954614333E0,-1.026131149E1,-5.376669159E0,-3.824846191E0,1.219969398E1
7.964683333E0,-1.028586044E1,-5.075495453E0,-4.203858032E0,1.221605507E1
7.974751333E0,-1.085452789E1,-4.478536835E0,-4.761897583E0,1.267098009E1
7.984820333E0,-1.179786621E1,-3.668870544E0,-5.075944519E0,1.335722542E1
7.994889333E0,-1.279569122E1,-2.765499115E0,-4.964276733E0,1.400077650E1
8.004957333E0,-1.416549271E1,-1.877695312E0,-5.437891846E0,1.528913310E1
8.015026333E0,-1.620994125E1,-1.169368286E0,-6.726711731E0,1.758915201E1
8.025095333E0,-1.837369171E1,-2.216889954E-1,-7.853119354E0,1.998282204E1
8.035163333E0,-1.951641541E1,1.453327789E0,-8.418194275E0,2.130419270E1
8.045232333E0,-1.982926483E1,3.401526489E0,-8.394992523E0,2.180013820E1
8.055301333E0,-1.974409195E1,4.774321747E0,-7.462431793E0,2.164049915E1
8.065369333E0,-1.911584839E1,5.539680176E0,-5.822891235E0,2.073667713E1
8.075438333E0,-1.857307709E1,5.706433411E0,-4.180356903E0,1.987455556E1
8.085507333E0,-1.821756638E1,5.438041534E0,-3.421285400E0,1.931727761E1
8.095575333E0,-1.804198151E1,4.765639801E0,-3.025059357E0,1.890437525E1
8.105644333E0,-1.818583237E1,3.750151520E0,-2.212249603E0,1.869979100E1
8.115713333E0,-1.846709747E1,2.711910553E0,-1.925745392E0,1.876423841E1
8.125782333E0,-1.883667892E1,1.753753052E0,-1.980381775E0,1.902151505E1
8.135850333E0,-1.917377792E1,7.457492065E-1,-2.034569092E0,1.929583823E1
8.145919333E0,-1.939786194E1,1.496887207E-4,-1.723366241E0,1.947426607E1
8.155988333E0,-1.937286392E1,-3.291654968E-1,-6.494993591E-1,1.938654316E1
8.166056333E0,-1.922916275E1,-3.902384949E-1,4.171824646E-1,1.923764610E1
8.176125333E0,-1.894176041E1,-1.543290710E-1,6.367758179E-1,1.895308915E1
8.186194333E0,-1.792417648E1,1.013392639E-1,4.857398987E-1,1.793104335E1
8.196262333E0,-1.537123535E1,1.927990723E-1,8.321195984E-1,1.539494952E1
8.206331333E0,-1.206146805E1,3.540138245E-1,1.086141357E0,1.211544635E1
8.216400333E0,-9.200168152E0,4.085005188E-1,8.981323242E-1,9.252924314E0
8.226468333E0,-6.669530640E0,4.658312988E-1,9.259744263E-1,6.749597498E0
8.236537333E0,-4.381688232E0,4.863386536E-1,7.494914246E-1,4.471851345E0
8.246606333E0,-2.238894196E0,2.330653381E-1,-5.327421570E-1,2.313175496E0
8.256674333E0,9.894424438E-2,-5.375321960E-1,-3.704795837E0,3.744895596E0
8.266743333E0,2.060315552E0,-1.598226471E0,-7.153474274E0,7.613896651E0
8.276812333E0,2.722538452E0,-2.052232361E0,-8.072413330E0,8.762860849E0
8.286880333E0,3.336411896E0,-2.117346954E0,-8.879085846E0,9.718691678E0
8.296949333E0,3.420087891E0,-1.788181458E0,-9.737550659E0,1.047446834E1
8.307018333E0,6.047424316E-2,-1.568737793E-1,-9.057814178E0,9.059374383E0
8.317086333E0,-4.103716278E0,2.339634705E-1,-7.136559448E0,8.235636403E0
8.327155333E0,-6.208339691E0,-6.765930176E-2,-4.737498322E0,7.809734301E0
8.337224333E0,-6.147266693E0,-1.072519684E0,-1.520388336E0,6.422675997E0
8.347292333E0,-3.973936157E0,-2.078128510E0,2.082319794E0,4.944374825E0
8.357361333E0,-1.404529266E0,-2.269131317E0,4.832700348E0,5.520566280E0
8.367430333E0,-2.230361938E-1,-2.553839264E0,5.365741882E0,5.946681938E0
8.377499333E0,4.369413757E-1,-2.243983612E0,4.834197235E0,5.347508123E0
8.387567333E0,6.770420837E-1,-1.667532349E0,4.207450562E0,4.576209167E0
8.397636333E0,8.361611938E-1,-1.271006927E0,3.346141663E0,3.675770420E0
8.407705333E0,1.041534119E0,-8.126600647E-1,2.461780701E0,2.793845722E0
8.417773333E0,1.032702484E0,-3.198847961E-1,1.900597687E0,2.186566320E0
8.427842333E0,9.590556335E-1,1.354682922E-1,1.606908417E0,1.876244661E0
8.437911333E0,9.139993286E-1,5.022056580E-1,1.460363159E0,1.794509920E0
8.447979333E0,9.837542725E-1,8.264314270E-1,1.234183502E0,1.781564001E0
8.458048333E0,1.090931396E0,1.065783691E0,9.303153992E-1,1.786480599E0
8.468117333E0,9.125024414E-1,1.389111328E0,6.735992432E-1,1.793328450E0
8.478185333E0,8.090675354E-1,1.933229828E0,4.197271729E-1,2.137320459E0
8.488254333E0,7.078779602E-1,2.507585449E0,2.296224976E-1,2.615683942E0
8.498323333E0,6.483018494E-1,2.909799042E0,1.550775146E-1,2.985175839E0
8.508391333E0,7.165599060E-1,3.019969940E0,1.270857239E-1,3.106417119E0
8.518460333E0,8.258326721E-1,2.826721802E0,1.742376709E-1,2.950036358E0
8.528529333E0,9.690847778E-1,2.306254120E0,3.369493103E-1,2.524176739E0
8.538597333E0,1.049018555E0,1.680106201E0,5.436694336E-1,2.053965245E0
8.548666333E0,1.059496765E0,1.160087585E0,6.652166748E-1,1.706121281E0
8.558735333E0,1.120270386E0,8.536747742E-1,6.563850403E-1,1.553900794E0
8.568803333E0,1.141675873E0,9.114546204E-1,4.821473694E-1,1.538388576E0
8.578872333E0,3.689826965E-1,1.265169067E0,2.953358459E-1,1.350564423E0
8.588941333E0,-1.185534668E-1,1.434017944E0,7.499404907E-2,1.440863108E0
8.599010333E0,-3.074606323E-1,1.501078491E0,-2.308200073E-1,1.549531075E0
8.609078333E0,-9.514215088E-1,1.711391144E0,-3.261717224E-1,1.985056807E0
8.619147333E0,-2.396815796E0,1.900298309E0,3.888912964E-1,3.083357920E0
8.629216333E0,-6.270161133E0,2.273921356E0,-2.340233459E0,7.068403753E0
8.639284333E0,-1.491678040E1,2.683170319E0,-1.344713654E1,2.026166877E1
8.649353333E0,-2.220991425E1,2.994971924E0,-2.434387665E0,2.254276804E1
8.659422333E0,-2.952819580E1,3.429967346E0,1.088925568E1,3.165840982E1
8.669490333E0,-4.122142960E1,4.447401581E0,7.069199524E0,4.205899691E1
8.679559333E0,-5.931655060E1,7.930508423E-1,-1.948093918E1,6.243868269E1
8.689628333E0,-5.495132812E1,-6.169121246E0,-8.068820801E0,5.588212942E1
8.699696333E0,-3.528851715E1,8.949888611E-1,1.250125351E1,3.744812128E1
8.709765333E0,-2.673245956E1,1.268162842E0,1.187974594E1,2.928072736E1
8.719834333E0,-2.114428024E1,-6.475534058E-1,7.067702637E0,2.230363946E1
8.729902333E0,-1.505164993E1,-1.997745667E0,-8.319699097E-1,1.520642389E1
8.739971333E0,-9.511969757E0,-1.114432526E0,-5.567971344E0,1.107798869E1
8.750040333E0,-7.076234894E0,1.711540833E0,-5.096451874E0,8.886860750E0
8.760108333E0,-6.626569977E0,3.591032410E0,-4.160747681E0,8.609225557E0
8.770177333E0,-8.312064972E0,6.035000153E0,-4.332141266E0,1.114805359E1
8.780246333E0,-1.138966507E1,9.985734558E0,-7.446564789E0,1.687870529E1
8.790314333E0,-1.465602264E1,1.204694824E1,-1.020592667E1,2.154272269E1
8.800383333E0,-2.109503265E1,9.170679474E0,-4.287084961E0,2.339830896E1
8.810451958E0,-2.563943253E1,6.767277374E0,2.383792877E0,2.662440632E1
8.820519958E0,-2.600497238E1,3.835773468E0,3.446283417E0,2.651129224E1
8.830588958E0,-2.086840393E1,-3.743714905E-1,6.171665955E-1,2.088088435E1
8.840657958E0,-1.645617920E1,-3.549568634E0,-1.805245972E0,1.693116016E1
8.850726958E0,-1.313548462E1,-3.912114716E0,-1.518891449E0,1.378958407E1
8.860794958E0,-1.034783157E1,-2.299368439E0,-3.733236694E-1,1.060679424E1
8.870863958E0,-8.894054718E0,-2.267784119E-1,7.668553162E-1,8.929933082E0
8.880932958E0,-8.423732758E0,1.453028412E0,2.018851776E0,8.783298221E0
8.891000958E0,-8.128097534E0,2.661764832E0,2.975961456E0,9.055788653E0
8.901069958E0,-7.433691559E0,3.316802673E0,3.343147888E0,8.799862952E0
8.911138958E0,-6.547534332E0,3.479214935E0,2.997816010E0,7.997627350E0
8.921206958E0,-5.741310883E0,2.991678772E0,2.080822906E0,6.800192386E0
8.931275958E0,-5.328768768E0,1.474583588E0,8.734336853E-1,5.597594103E0
8.941344958E0,-5.492827606E0,-2.131567383E-1,-4.251159668E-1,5.513375961E0
8.951412958E0,-5.451812897E0,-1.432970123E0,-1.487307129E0,5.829901348E0
8.961481958E0,-5.342689819E0,-2.472857666E0,-2.075284424E0,6.242288441E0
8.971550958E0,-5.083728333E0,-3.282374268E0,-2.237247620E0,6.451631693E0
8.981618958E0,-4.676575012E0,-3.813020782E0,-2.281106415E0,6.450808307E0
8.991687958E0,-4.609364777E0,-3.962260437E0,-2.195783844E0,6.462756231E0
9.001756958E0,-5.139262848E0,-3.778292999E0,-2.009421387E0,6.687697281E0
9.011824958E0,-6.344107361E0,-3.192411346E0,-1.850901031E0,7.339279463E0
9.021893958E0,-7.489226074E0,-2.275418243E0,-1.735191650E0,8.017289158E0
9.031962958E0,-8.213420105E0,-1.254092102E0,-1.414408722E0,8.428141483E0
9.042030958E0,-8.876391449E0,-4.486170959E-1,-1.375938721E0,8.993597157E0
9.052099958E0,-9.248517609E0,1.462458801E-1,-2.023492126E0,9.468420470E0
9.062168958E0,-9.040599976E0,5.888754272E-1,-2.913541260E0,9.516719228E0
9.072236958E0,-8.436905365E0,7.623646545E-1,-3.222947845E0,9.063661778E0
9.082305958E0,-7.741750946E0,5.917195129E-1,-2.918780365E0,8.294824803E0
9.092374958E0,-7.196584625E0,3.559597778E-1,-2.446362762E0,7.609351378E0
9.102442958E0,-7.140900421E0,2.210902405E-1,-2.025138702E0,7.425801403E0
9.112511958E0,-7.506290588E0,2.980302429E-1,-1.634451141E0,7.687954927E0
9.122580958E0,-8.125852203E0,6.622229004E-1,-1.195264435E0,8.239943584E0
9.132649958E0,-8.835526428E0,1.150357819E0,-7.099736023E-1,8.938339493E0
9.142717958E0,-9.805659027E0,1.660496979E0,-2.112107849E-1,9.947502660E0
9.152786958E0,-1.086515579E1,2.076032867E0,3.891906738E-2,1.106178275E1
9.162855958E0,-1.150642227E1,2.387385406E0,-1.616638184E-2,1.175149454E1
9.172923958E0,-1.151705017E1,2.337688751E0,9.894424438E-2,1.175231991E1
9.182992958E0,-1.096170502E1,1.517993317E0,5.089416504E-1,1.107800985E1
9.193061958E0,-1.031490005E1,-2.380050659E-2,7.964936829E-1,1.034563347E1
9.203129958E0,-1.052147049E1,-2.159708862E0,3.390449524E-1,1.074619166E1
9.213198958E0,-1.187405777E1,-3.488645325E0,4.790039062E-3,1.237594106E1
9.223267958E0,-1.371223526E1,-3.211272125E0,6.327342224E-1,1.409744718E1
9.233335958E0,-1.540281967E1,-2.193688202E0,1.002315674E0,1.559050219E1
9.243404958E0,-1.646890274E1,-1.462608490E0,-1.466949463E-2,1.653372905E1
9.253473958E0,-1.547601746E1,-1.013991394E0,-1.366508331E0,1.556928514E1
9.263541958E0,-1.245125748E1,4.101470947E-2,-1.587299194E0,1.255209200E1
9.273610958E0,-8.843609619E0,1.808838501E0,-1.807042236E0,9.205798687E0
9.283679958E0,-6.507866821E0,2.943179626E0,-2.723286896E0,7.644012585E0
9.293747958E0,-5.173242188E0,4.098477173E0,-3.737577667E0,7.584816193E0
9.303816958E0,-5.677842865E0,4.921615448E0,-3.040626984E0,8.105899745E0
9.313885958E0,-7.606282654E0,4.819527740E0,-5.508544922E-1,9.021464633E0
9.323953958E0,-9.119186554E0,4.648283844E0,1.721569977E0,1.037930197E1
9.334022958E0,-9.750723267E0,4.486919403E0,2.938838654E0,1.112860380E1
9.344091958E0,-9.720186768E0,4.452341309E0,3.305576019E0,1.119071967E1
9.354159958E0,-9.509125671E0,4.330045624E0,3.438649292E0,1.099986705E1
9.364228958E0,-9.282796326E0,4.178710327E0,3.522624664E0,1.077222410E1
9.374297958E0,-8.928632812E0,3.913611603E0,3.523822174E0,1.036600996E1
9.384365958E0,-8.432414703E0,3.480412445E0,3.460354156E0,9.756686907E0
9.394434958E0,-7.951165466E0,2.864293671E0,3.334166565E0,9.085256033E0
9.404503958E0,-7.620652771E0,2.254761200E0,3.189118195E0,8.563222033E0
9.414572958E0,-7.547754364E0,1.775757294E0,3.019071808E0,8.320859600E0
9.424640958E0,-7.639962616E0,1.422791290E0,2.784359894E0,8.255060499E0
9.434709958E0,-8.055498505E0,1.152902527E0,2.564616852E0,8.532145099E0
9.444778958E0,-8.895401917E0,9.978250122E-1,2.414329376E0,9.271074174E0
9.454846958E0,-9.991123352E0,1.024768982E0,2.422412567E0,1.033154296E1
9.464915958E0,-1.106079895E1,1.264121246E0,2.607727203E0,1.143413823E1
9.474984958E0,-1.189202042E1,1.536704407E0,2.818788300E0,1.231775862E1
9.485052958E0,-1.227013412E1,1.736987915E0,2.906655579E0,1.272878490E1
9.495121958E0,-1.217178864E1,1.850002899E0,2.738704834E0,1.261251178E1
9.505190958E0,-1.162527512E1,1.866169281E0,2.350412292E0,1.200641692E1
9.515258958E0,-1.066532135E1,1.766177216E0,1.864073639E0,1.097010629E1
9.525327958E0,-9.795180817E0,1.635648651E0,1.477727051E0,1.004014895E1
9.535396958E0,-9.231004028E0,1.621428223E0,1.341660004E0,9.467867575E0
9.545464958E0,-8.908873901E0,1.668879547E0,1.406026154E0,9.172246327E0
9.555533958E0,-8.748407593E0,1.656754761E0,1.487456818E0,9.027291927E0
9.565602958E0,-8.628057861E0,1.548679504E0,1.450932770E0,8.885212241E0
9.575670958E0,-8.634943542E0,1.315913544E0,1.067430267E0,8.799618504E0
9.585739958E0,-8.938512268E0,8.746311951E-1,-2.727328491E-1,8.985341646E0
9.595808958E0,-9.473499756E0,-3.173400879E-2,-2.605781250E0,9.825390608E0
9.605876958E0,-9.995464325E0,-1.473835144E0,-3.188818817E0,1.059481300E1
9.615945958E0,-1.051862640E1,-2.900967407E0,-2.000440063E0,1.109319042E1
9.626014958E0,-1.077339661E1,-3.966152344E0,-1.465003510E0,1.157336054E1
9.636082958E0,-1.050201096E1,-4.492308197E0,-2.384840698E0,1.166878452E1
9.646151958E0,-9.937085724E0,-3.976480865E0,-4.132755890E0,1.147334929E1
9.656220958E0,-9.503886566E0,-2.873424683E0,-5.456602936E0,1.132938413E1
9.666288958E0,-9.374555511E0,-1.347198486E0,-5.860912170E0,1.113766251E1
9.676357958E0,-9.071735229E0,5.336402893E-1,-5.326224060E0,1.053327180E1
9.686426958E0,-8.881630554E0,2.197729797E0,-4.858147430E0,1.035929409E1
9.696495958E0,-8.859776001E0,3.303181000E0,-4.141288147E0,1.032264031E1
9.706563958E0,-9.460776215E0,3.799099731E0,-2.796035614E0,1.057153066E1
9.716632958E0,-1.006132736E1,3.572471008E0,-1.339863739E0,1.076048755E1
9.726701958E0,-1.001836670E1,2.887196045E0,-4.255650330E-1,1.043478212E1
9.736769958E0,-9.304501190E0,1.735191650E0,2.739303589E-1,9.468879042E0
9.746838958E0,-8.237819366E0,2.275268555E-1,8.756790161E-1,8.287354833E0
9.756907958E0,-7.130571899E0,-1.317560120E0,1.531465302E0,7.411235137E0
9.766975958E0,-6.279591522E0,-2.496508484E0,2.014959869E0,7.051658498E0
9.777044958E0,-5.588778076E0,-2.899021454E0,2.011367340E0,6.609414827E0
9.787113958E0,-4.842130737E0,-2.324067078E0,6.048921204E-1,5.404943324E0
9.797181958E0,-5.018014984E0,-7.087760925E-1,-3.116519165E0,5.949414226E0
9.807251000E0,-8.390950928E0,1.037193146E0,-9.619745636E0,1.280715945E1
9.817320000E0,-1.449121536E1,-6.511459351E-2,-1.342483292E1,1.975413125E1
9.827388000E0,-1.983180954E1,-3.248394928E0,-8.458759918E0,2.180374643E1
9.837457000E0,-2.236559052E1,-2.993325348E0,-2.107617188E0,2.266322320E1
9.847526000E0,-2.062036972E1,-1.150657196E0,1.653611298E0,2.071854458E1
9.857594000E0,-1.410157562E1,3.603007507E-1,2.991080017E0,1.441980622E1
9.867663000E0,-7.037764893E0,8.358618164E-1,1.750010834E0,7.300091614E0
9.877732000E0,-2.536625061E0,3.567082214E-1,-2.132465515E0,3.333034148E0
9.887800000E0,-9.131011963E-3,1.082249451E-1,-4.498595123E0,4.499906010E0
9.897869000E0,9.105564880E-1,2.360591125E-1,-3.473975830E0,3.599075588E0
9.907938000E0,-1.263522491E0,1.058299255E-1,-2.356399841E0,2.675875422E0
9.918006000E0,-3.666475525E0,-3.200344849E-1,-1.460363159E0,3.959561264E0
9.928075000E0,-6.288872223E0,-2.447410583E-1,-1.730850677E0,6.527300827E0
9.938144000E0,-9.325307922E0,5.254074097E-2,-2.755469971E0,9.724029162E0
9.948212000E0,-1.174742111E1,1.761836243E-1,-3.272943878E0,1.219611024E1
9.958281000E0,-1.349892883E1,8.457412720E-2,-3.691024475E0,1.399470950E1
9.968350000E0,-1.462039673E1,-2.418969727E-1,-3.882326660E0,1.512901104E1
9.978418000E0,-1.430440384E1,-2.869532776E-1,-3.743565216E0,1.478893478E1
9.988487000E0,-1.191492279E1,2.460882568E-1,-3.654949493E0,1.246533595E1
9.998556000E0,-9.222920837E0,7.417076111E-1,-3.756288757E0,9.986095542E0
1.000862500E1,-7.269033966E0,9.357041931E-1,-4.422553253E0,8.559986823E0
1.001869300E1,-6.259383545E0,8.533753967E-1,-4.693789215E0,7.870183551E0
1.002876200E1,-6.309529266E0,5.209167480E-1,-3.696413269E0,7.331097113E0
1.003883100E1,-6.964567108E0,2.764750671E-1,-2.622546387E0,7.447105681E0
1.004889900E1,-7.736362152E0,3.293151855E-2,-2.550546112E0,8.146021686E0
1.005896800E1,-8.669821014E0,-6.276448059E-1,-3.231929169E0,9.273893496E0
1.006903700E1,-9.306596832E0,-1.428479462E0,-3.902684326E0,1.019236200E1
1.007910500E1,-9.595046997E0,-2.110311584E0,-4.528682556E0,1.081791604E1
1.008917400E1,-9.770482178E0,-2.569556580E0,-4.964276733E0,1.125650863E1
1.009924300E1,-9.990225220E0,-2.755619659E0,-4.538112946E0,1.131337742E1
1.010931100E1,-1.014305740E1,-2.675835571E0,-3.653751984E0,1.110817776E1
1.011938000E1,-1.001746857E1,-2.227218475E0,-3.423381042E0,1.081802738E1
1.012944900E1,-9.734856262E0,-1.671424255E0,-3.825744324E0,1.059232765E1
1.013951700E1,-9.268276520E0,-1.583556976E0,-4.236639862E0,1.031298791E1
1.014958600E1,-8.818162537E0,-2.011966095E0,-4.452191620E0,1.008117098E1
1.015965500E1,-8.891060944E0,-2.741997986E0,-4.368964691E0,1.027897710E1
1.016972300E1,-9.276210022E0,-3.767365723E0,-4.232747955E0,1.087001712E1
1.017979200E1,-9.624236298E0,-4.662354584E0,-3.943100281E0,1.139787324E1
1.018986100E1,-1.006387207E1,-5.259462891E0,-3.609444122E0,1.191518182E1
1.019992900E1,-1.045276337E1,-5.385650482E0,-3.498824158E0,1.226814019E1
1.020999800E1,-1.061053528E1,-4.980293427E0,-3.791914673E0,1.231930998E1
1.022006700E1,-1.057610687E1,-4.198319550E0,-3.976480865E0,1.205372655E1
1.023013500E1,-1.027687912E1,-3.231480103E0,-3.588188324E0,1.135481411E1
1.024020400E1,-9.727371826E0,-2.172881470E0,-3.233276367E0,1.047841842E1
1.025027300E1,-9.264983368E0,-1.213526459E0,-3.563489685E0,1.000055109E1
1.026034100E1,-9.160350952E0,-5.601351929E-1,-4.064797211E0,1.003734812E1
1.027041000E1,-9.170230408E0,-1.333726501E-1,-3.978127441E0,9.996820091E0
1.028047900E1,-9.360634460E0,-5.538482666E-2,-4.010310516E0,1.018367004E1
1.029054800E1,-9.859696655E0,-4.040098572E-1,-4.397704926E0,1.080354806E1
1.030061600E1,-1.057460999E1,-1.021775208E0,-4.818330231E0,1.166544929E1
1.031068500E1,-1.198991684E1,-1.893861694E0,-5.317691803E0,1.325227015E1
1.032075400E1,-1.222223373E1,-1.996847534E0,-5.166655884E0,1.341882001E1
1.033082200E1,-1.219020035E1,-1.496138763E0,-4.706662445E0,1.315264563E1
1.034089100E1,-1.194501022E1,-9.345066833E-1,-5.176235962E0,1.305181944E1
1.035096000E1,-1.166284698E1,-6.562353516E-1,-5.988446960E0,1.312684812E1
1.036102800E1,-1.168065994E1,-9.842033386E-1,-5.171595612E0,1.281217679E1
1.037109700E1,-1.141601028E1,-1.183139648E0,-3.662433929E0,1.204734546E1
1.038116600E1,-1.120674545E1,-9.868977356E-1,-2.324815521E0,1.148781433E1
1.039123400E1,-1.121198456E1,-5.053491211E-1,-1.760788422E0,1.136064925E1
1.040130300E1,-1.155207733E1,1.996847534E-1,-1.643582153E0,1.167012112E1
1.041137200E1,-1.287727158E1,1.643881531E0,-8.708889771E-1,1.301095374E1
1.042144000E1,-1.656560165E1,3.001558228E0,1.660047913E-1,1.683615359E1
1.043150900E1,-2.132779861E1,4.720433807E0,4.123924255E-1,2.184782727E1
1.044157800E1,-2.533092407E1,6.773713989E0,-1.878892822E0,2.628819419E1
1.045164600E1,-2.943254471E1,8.513695679E0,-3.454216919E0,3.083325018E1
1.046171500E1,-3.132850204E1,9.406289520E0,-3.733386383E0,3.292250745E1
1.047178400E1,-3.091146927E1,8.802744598E0,-3.632945251E0,3.234510065E1
1.048185200E1,-2.886133255E1,7.114854584E0,-2.955753479E0,2.987196262E1
1.049192100E1,-2.516686523E1,5.609884186E0,-2.439177704E0,2.589964274E1
1.050199000E1,-2.126448029E1,4.805457001E0,-1.967209167E0,2.188927707E1
1.051205800E1,-1.699745361E1,4.515959015E0,-1.074315948E0,1.761991685E1
1.052212700E1,-1.380968262E1,4.317621460E0,-4.460723877E-2,1.446897297E1
1.053219600E1,-1.155357422E1,4.084556122E0,1.061293030E0,1.230020402E1
1.054226500E1,-9.636361084E0,3.597618713E0,2.288141785E0,1.053745264E1
1.055233300E1,-7.934400330E0,2.967279510E0,3.554658051E0,9.186677862E0
1.056240200E1,-6.479575653E0,2.348017273E0,4.794679413E0,8.395655807E0
1.057247000E1,-5.531297607E0,1.535955963E0,6.764582977E0,8.872090892E0
1.058253900E1,-4.161945190E0,7.180567932E-1,7.993078308E0,9.040281753E0
1.059260800E1,-2.288740540E0,-1.332229614E-1,7.741002502E0,8.073363695E0
1.060267700E1,-9.325607300E-1,-9.575587463E-1,7.533384247E0,7.651043489E0
1.061274500E1,-3.291654968E-1,-1.419797516E0,6.840624847E0,6.994163511E0
1.062281400E1,-9.101074219E-2,-1.742077332E0,5.613626404E0,5.878428173E0
1.063288300E1,3.987707520E-1,-1.962419128E0,4.748126221E0,5.153135895E0
1.064295100E1,1.122216339E0,-2.130818939E0,4.401746521E0,5.017482566E0
1.065302000E1,1.809437256E0,-2.427202606E0,4.452790375E0,5.384488629E0
1.066308900E1,2.255509644E0,-2.654879150E0,4.456532593E0,5.656535141E0
1.067315700E1,2.398911438E0,-2.737507324E0,4.436025238E0,5.738208985E0
1.068322600E1,2.497256927E0,-2.759810944E0,4.772226105E0,6.052023678E0
1.069329500E1,2.490970001E0,-2.741249542E0,5.045108643E0,6.258793959E0
1.070336300E1,2.419269104E0,-2.639161835E0,4.931494904E0,6.094069262E0
1.071343200E1,2.392175446E0,-2.677931213E0,4.456233215E0,5.722921755E0
1.072350100E1,2.279609528E0,-2.797233124E0,3.865262146E0,5.287852513E0
1.073356900E1,2.046843567E0,-2.788700867E0,3.201093292E0,4.713111433E0
1.074363800E1,1.785786438E0,-2.673440552E0,2.545756073E0,4.100876927E0
1.075370700E1,1.553020477E0,-2.531535645E0,1.911974030E0,3.532165060E0
1.076377500E1,1.372495880E0,-2.430645447E0,1.393302612E0,3.119787557E0
1.077384400E1,1.225501556E0,-2.388582916E0,9.425898743E-1,2.845286995E0
1.078391300E1,1.136137390E0,-2.366578674E0,6.117778015E-1,2.695510132E0
1.079398100E1,1.140927429E0,-2.389331360E0,4.210743713E-1,2.681030282E0
1.080405000E1,1.129850464E0,-2.468217316E0,3.333567810E-1,2.734919657E0
1.081411988E1,1.056652679E0,-2.583926697E0,3.649411011E-1,2.815381691E0
1.082418788E1,9.654922485E-1,-2.695744171E0,4.737648010E-1,2.902355079E0
1.083425687E1,6.514453125E-1,-2.791095886E0,6.800358582E-1,2.945682605E0
1.084432588E1,2.131567383E-1,-2.917582855E0,9.162446594E-1,3.065490138E0
1.085439387E1,-2.068698120E-1,-3.074756012E0,1.028062134E0,3.248666096E0
1.086446288E1,-6.185137939E-1,-3.229384460E0,9.678872681E-1,3.427577726E0
1.087453188E1,-9.415420532E-1,-3.349285126E0,8.866062927E-1,3.590304027E0
1.088460087E1,-1.249451752E0,-3.436853027E0,9.110055542E-1,3.768689365E0
1.089466888E1,-1.983974304E0,-4.036056976E0,-6.610253906E-1,4.545642366E0
1.090473787E1,-5.257666626E0,-7.314988403E0,-1.168051025E1,1.475081128E1
1.091480688E1,-7.081923065E0,-7.648794250E0,-1.072010742E1,1.495253794E1
1.092487487E1,-7.420069885E0,-6.015390930E0,-3.854334869E0,1.030040108E1
1.093494388E1,-9.820328522E0,-5.106181641E0,-3.419339447E0,1.158463748E1
1.094501288E1,-1.528785873E1,-4.301604767E0,-1.108968887E1,1.937017366E1
1.095508088E1,-2.031335815E1,-3.372786255E0,-1.459285400E1,2.523805846E1
1.096514988E1,-2.643742310E1,-1.280587006E0,-9.973011017E0,2.828494638E1
1.097521887E1,-3.774356186E1,3.393892365E0,-1.081815353E1,3.940973754E1
1.098528688E1,-4.738920364E1,8.812174988E0,-1.341091187E1,5.003242556E1
1.099535587E1,-4.627941147E1,1.048928741E1,-1.001507355E1,4.849856466E1
1.100542488E1,-3.204057129E1,6.015690308E0,-3.754791870E0,3.281592906E1
1.101549288E1,-1.976834152E1,1.515897675E0,-1.218017120E0,1.986375690E1
1.102556188E1,-1.316242859E1,-1.721420288E-1,-8.620573425E-1,1.319175129E1
1.103563088E1,-9.122779083E0,-2.559677124E-2,-2.146985321E0,9.372048835E0
1.104569887E1,-6.944957886E0,5.399272156E-1,-2.095642090E0,7.274316270E0
1.105576788E1,-5.196294250E0,8.777746582E-1,-4.215234375E-1,5.286742314E0
1.106583688E1,-3.835923157E0,5.899232483E-1,9.819580078E-1,4.003318303E0
1.107590488E1,-3.078947296E0,9.939331055E-2,5.289999390E-1,3.125641761E0
1.108597388E1,-2.764301605E0,-3.891906738E-1,-1.376687164E0,3.112571331E0
1.109604287E1,-3.527863770E0,-6.036946106E-1,-2.360142059E0,4.287253258E0
1.110611088E1,-6.065686340E0,-1.181044006E-1,-3.170107727E0,6.845150285E0
1.111617987E1,-9.465715942E0,-2.055226135E-1,-6.823260956E0,1.167042878E1
1.112624888E1,-1.253837631E1,1.580712891E-1,-8.026009827E0,1.488800527E1
1.113631687E1,-1.547811310E1,1.360071716E0,-9.395811310E0,1.815772701E1
1.114638588E1,-1.702215225E1,2.333946533E0,-8.327482910E0,1.909313870E1
1.115645488E1,-1.735146744E1,2.980302429E0,-6.165229340E0,1.865383815E1
1.116652288E1,-1.572375229E1,2.916235657E0,-4.412075043E0,1.658937077E1
1.117659188E1,-1.237207214E1,1.822310486E0,-5.315446472E0,1.358833897E1
1.118666087E1,-9.552535400E0,5.571414185E-1,-7.096742249E0,1.191323171E1
1.119672988E1,-8.286318512E0,-1.028511200E0,-7.289241943E0,1.108395046E1
1.120679787E1,-8.092471619E0,-2.537223816E0,-6.428980865E0,1.064224584E1
1.121686688E1,-8.480764160E0,-3.524420929E0,-6.334078217E0,1.115640849E1
1.122693588E1,-9.313183136E0,-4.171525269E0,-6.473288727E0,1.208472052E1
1.123700388E1,-1.015413437E1,-4.462220764E0,-6.261030121E0,1.273649705E1
1.124707288E1,-1.088341782E1,-4.276007996E0,-6.419400787E0,1.333948028E1
1.125714187E1,-1.106948090E1,-3.619772644E0,-6.820716248E0,1.349660444E1
1.126720988E1,-1.081351318E1,-2.630030823E0,-6.883286133E0,1.308544067E1
1.127727888E1,-1.044976959E1,-1.710942078E0,-6.836283875E0,1.260395908E1
1.128734788E1,-1.028571075E1,-1.162332916E0,-6.813680878E0,1.239246185E1
1.129741588E1,-1.044782364E1,-7.134164429E-1,-6.353537750E0,1.224881316E1
1.130748488E1,-1.065050217E1,-3.451821899E-1,-5.752537537E0,1.210966702E1
1.131755388E1,-1.095646591E1,-2.290237427E-2,-5.525908813E0,1.227111804E1
1.132762187E1,-1.126213028E1,3.116519165E-1,-5.294190674E0,1.244833966E1
1.133769088E1,-1.159294235E1,7.132667542E-1,-4.674030304E0,1.252004877E1
1.134775988E1,-1.209155548E1,1.129251709E0,-4.518952789E0,1.295769492E1
1.135782788E1,-1.278102173E1,1.565893707E0,-4.660109253E0,1.369390951E1
1.136789688E1,-1.347827179E1,2.237696686E0,-4.269272003E0,1.431425095E1
1.137796587E1,-1.455767715E1,2.982547760E0,-4.187991028E0,1.543893857E1
1.138803388E1,-1.606459351E1,3.624562683E0,-4.815486145E0,1.715801638E1
1.139810287E1,-1.791115356E1,3.891906738E0,-5.637576599E0,1.917651246E1
1.140817188E1,-1.953392899E1,3.712429962E0,-6.489604797E0,2.091581909E1
1.141823987E1,-2.080463654E1,3.116668854E0,-6.663692780E0,2.206697368E1
1.142830888E1,-2.180126404E1,2.097438354E0,-5.984255676E0,2.270475010E1
1.143837788E1,-2.285402481E1,8.369096375E-1,-5.400469666E0,2.349833910E1
1.144844588E1,-2.314980972E1,-1.559756470E-1,-4.782704315E0,2.363921063E1
1.145851488E1,-2.179812057E1,-3.823049927E-1,-3.784430237E0,2.212749715E1
1.146858387E1,-1.948063980E1,2.574645996E-2,-3.034340057E0,1.971555755E1
1.147865188E1,-1.673310333E1,8.867559814E-1,-2.494113464E0,1.694118311E1
1.148872088E1,-1.448103653E1,2.086960144E0,-1.827549591E0,1.474434668E1
1.149878988E1,-1.305794586E1,3.004402313E0,-7.827223206E-1,1.342196102E1
1.150885888E1,-1.119941071E1,3.363655243E0,5.716612244E-1,1.170759468E1
1.151892688E1,-9.041049042E0,3.291056213E0,2.094145203E0,9.846677760E0
1.152899588E1,-7.078629913E0,2.905308380E0,3.089874573E0,8.251978133E0
1.153906487E1,-5.693111115E0,2.346221008E0,2.329605560E0,6.583565087E0
1.154913288E1,-4.172722778E0,1.746867371E0,9.901908875E-1,4.630727695E0
1.155920188E1,-2.363135834E0,9.271719360E-1,6.215075684E-1,2.613490085E0
1.156927088E1,-1.154998169E0,1.595681763E-1,1.049467621E0,1.568714461E0
1.157933888E1,-5.715115356E-1,-1.800755310E-1,8.774752808E-1,1.062551411E0
1.158940787E1,-1.803749084E-1,-2.170486450E-1,2.646496582E-1,3.868910228E-1
1.159947688E1,3.359014893E-1,-5.837860107E-2,-6.150709534E-1,7.032425963E-1
1.160954487E1,9.401948547E-1,2.360591125E-1,-1.446891174E0,1.741603956E0
1.161961388E1,1.513652344E0,7.472460938E-1,-2.406545563E0,2.939554675E0
1.162968288E1,1.955533447E0,1.510957947E0,-3.912414093E0,4.627535955E0
1.163975088E1,2.292782135E0,2.223027191E0,-4.912933502E0,5.859660008E0
1.164981988E1,2.693648529E0,2.509531403E0,-4.462969208E0,5.785463197E0
1.165988887E1,3.250340881E0,2.507136383E0,-3.354374542E0,5.301158105E0
1.166995688E1,3.794758759E0,2.397414551E0,-2.437381439E0,5.107701914E0
1.168002587E1,4.109853516E0,2.254461823E0,-1.597627716E0,4.952363915E0
1.169009488E1,3.929777985E0,1.866169281E0,-7.746391296E-1,4.418801713E0
1.170016288E1,3.420986023E0,7.807763672E-1,9.415420532E-2,3.510216819E0
1.171023188E1,1.885778503E0,-3.213816833E-1,1.041983185E0,2.178342422E0
1.172030088E1,2.769241333E-1,-8.866062927E-1,1.990710297E0,2.196744222E0
1.173036888E1,-3.881428528E-1,-1.526675262E0,2.406246185E0,2.876006421E0
1.174043788E1,-9.857002258E-1,-2.042652283E0,2.181114349E0,3.146632023E0
1.175050687E1,-1.517244873E0,-2.427501984E0,1.755549316E0,3.358087445E0
1.176057488E1,-1.900447998E0,-2.799478455E0,1.179696808E0,3.583359704E0
1.177064388E1,-2.025138702E0,-3.104993134E0,5.653742981E-1,3.749908962E0
1.178071288E1,-1.939516754E0,-3.299887848E0,-1.215472412E-1,3.829589897E0
1.179078188E1,-1.784888306E0,-3.186723175E0,-1.486259308E0,3.943348525E0
1.180084987E1,-1.108894043E0,-2.294129333E0,-2.571053467E0,3.619805427E0
1.181091858E1,-6.224057007E-1,-1.356928253E0,-1.204096069E0,1.917939124E0
1.182098758E1,-9.494755554E-1,-9.282197571E-1,5.077441406E-1,1.421583575E0
1.183105558E1,-9.289682007E-1,-5.144801331E-1,1.495989075E0,1.834572167E0
1.184112458E1,-7.207511902E-1,-6.676116943E-2,1.920955353E0,2.052805105E0
1.185119358E1,-6.188131714E-1,5.641767883E-1,1.986668701E0,2.155940101E0
1.186126158E1,-9.994715881E-1,1.769919434E0,4.414320374E-1,2.080004928E0
1.187133058E1,-2.525548096E0,3.604654083E0,-5.556145935E0,7.088207241E0
1.188139958E1,-3.796555023E0,3.836072845E0,-9.778864746E0,1.116939930E1
1.189146758E1,-3.692221985E0,3.570225677E0,-4.455484772E0,6.799291075E0
1.190153658E1,-4.805007935E0,3.891757050E0,2.691852264E0,6.743881879E0
1.191160558E1,-5.846392365E0,4.749024353E0,4.476141815E0,8.761813827E0
1.192167358E1,-8.451724548E0,6.797664185E0,2.637814636E0,1.116234529E1
1.193174258E1,-1.348979782E1,1.006477020E1,-6.994953918E-1,1.684528237E1
1.194181158E1,-2.351235580E1,1.348560654E1,-1.031145721E1,2.900032084E1
1.195187958E1,-3.898238571E1,1.543036240E1,-1.203542221E1,4.361850373E1
1.196194858E1,-5.555517242E1,1.406400375E1,9.452842712E-1,5.731550355E1
1.197201758E1,-5.003884369E1,1.143352386E1,-5.677693176E-1,5.133160535E1
1.198208558E1,-2.649415512E1,5.768703918E0,-6.226901093E0,2.782072065E1
1.199215458E1,-1.937466019E1,2.219883728E-1,-2.501897278E0,1.953679160E1
1.200222358E1,-2.102542740E1,-3.175197144E0,-6.927593994E-1,2.127511198E1
1.201229158E1,-2.282453613E1,-4.813989258E0,7.349716187E-2,2.332679455E1
1.202236058E1,-2.079715210E1,-3.925437012E0,3.861968994E-1,2.116789407E1
1.203242958E1,-1.755938507E1,-1.389859772E0,6.768923950E-1,1.762730545E1
1.204249758E1,-1.516032394E1,3.595523071E-1,1.085243225E-1,1.516497535E1
1.205256658E1,-1.272803192E1,2.271226959E0,-1.065783691E-1,1.292952541E1
1.206263558E1,-1.106034988E1,3.736978912E0,-1.014889526E-1,1.167504394E1
1.207270358E1,-9.017248535E0,4.629872131E0,-3.347039795E-1,1.014191865E1
1.208277258E1,-7.087311859E0,5.201383667E0,-5.611830139E-1,8.809046930E0
1.209284158E1,-6.030509491E0,5.407654724E0,-3.757186890E-1,8.108695263E0
1.210291058E1,-6.564748535E0,5.250780945E0,5.068460083E-1,8.421610104E0
1.211297858E1,-9.259744263E0,4.243375854E0,1.369202728E0,1.027734492E1
1.212304758E1,-1.230950226E1,2.666405182E0,1.123413849E0,1.264498403E1
1.213311658E1,-1.305555084E1,1.150956573E0,3.031196594E-1,1.310969070E1
1.214318458E1,-1.221474930E1,-2.769241333E-2,-5.284011841E-2,1.221489498E1
1.215325358E1,-1.113938553E1,-5.352868652E-1,3.634442139E-1,1.115815996E1
1.216332258E1,-1.009785141E1,-4.141886902E-1,1.422491913E0,1.020596094E1
1.217339058E1,-9.350305939E0,-2.709365845E-1,2.064057770E0,9.579246435E0
1.218345958E1,-8.625213776E0,-1.802252197E-1,2.018552399E0,8.860098622E0
1.219352858E1,-8.028255157E0,-5.418731689E-2,1.797013092E0,8.227093848E0
1.220359658E1,-7.627089386E0,-1.691482544E-2,1.624721375E0,7.798236862E0
1.221366558E1,-7.322472839E0,-1.853146362E-1,1.130149841E0,7.411490313E0
1.222373458E1,-7.062912598E0,-4.420307922E-1,2.808160400E-1,7.082300702E0
1.223380258E1,-6.933581543E0,-6.619235229E-1,-6.165678406E-1,6.992342359E0
1.224387158E1,-6.956932983E0,-7.903564453E-1,-1.261726227E0,7.114459426E0
1.225394058E1,-7.265890503E0,-7.472460938E-1,-1.527723083E0,7.462270388E0
1.226400858E1,-7.538623352E0,-6.712042236E-1,-1.869163055E0,7.795840409E0
1.227407758E1,-7.536976776E0,-7.087760925E-1,-2.444566498E0,7.955142226E0
1.228414658E1,-7.548203430E0,-5.866300964E-1,-2.735411682E0,8.049968134E0
1.229421458E1,-7.508535919E0,-6.496490479E-2,-2.602338409E0,7.946980388E0
1.230428358E1,-7.457192688E0,6.126759338E-1,-2.738704834E0,7.967785059E0
1.231435258E1,-7.670050049E0,1.158740387E0,-2.978506165E0,8.309262663E0
1.232442058E1,-8.018375702E0,1.572929077E0,-2.918780365E0,8.676850442E0
1.233448958E1,-8.284222870E0,2.105521545E0,-2.094444580E0,8.800469739E0
1.234455858E1,-8.329129486E0,2.683170319E0,-1.046324158E0,8.812978793E0
1.235462758E1,-8.233029327E0,3.092568970E0,-6.051914978E-1,8.815498369E0
1.236469558E1,-8.171058197E0,3.173999634E0,-8.818162537E-1,8.810111557E0
1.237476458E1,-8.657546539E0,2.797682190E0,-1.297501831E0,9.190410694E0
1.238483258E1,-9.968670044E0,2.177671509E0,-1.304088135E0,1.028675272E1
1.239490158E1,-1.177870605E1,1.704655151E0,-1.137334900E0,1.195563868E1
1.240497058E1,-1.380833542E1,1.625769196E0,-2.195783844E0,1.407603350E1
1.241503958E1,-1.640109375E1,1.843715973E0,-4.151616669E0,1.701855122E1
1.242510758E1,-1.879701141E1,2.144440613E0,-5.751040649E0,1.977373845E1
1.243517658E1,-1.919802750E1,2.678230591E0,-7.358248444E0,2.073357179E1
1.244524558E1,-1.730865646E1,2.981949005E0,-7.383845215E0,1.905263180E1
1.245531358E1,-1.431458267E1,2.854713593E0,-5.652395782E0,1.565267533E1
1.246538258E1,-1.190938431E1,2.481838989E0,-3.568878479E0,1.267792779E1
1.247545158E1,-1.035426819E1,2.288441162E0,-2.022593994E0,1.079531005E1
1.248551958E1,-9.151219940E0,2.472109222E0,-1.208137665E0,9.555927324E0
1.249558858E1,-8.198301544E0,2.989433441E0,-7.810757446E-1,8.761217942E0
1.250565758E1,-7.691754913E0,3.694467316E0,-7.170089722E-1,8.563076799E0
1.251572558E1,-7.500901794E0,4.344266052E0,-8.165519714E-1,8.706487948E0
1.252579458E1,-7.625742188E0,4.841981049E0,-8.592132568E-1,9.073862012E0
1.253586358E1,-8.003556519E0,5.071902924E0,-8.601113892E-1,9.514247622E0
1.254593158E1,-8.390052795E0,4.875810699E0,-9.482780457E-1,9.750166519E0
1.255600058E1,-8.608298950E0,4.278852081E0,-9.997709656E-1,9.664932899E0
1.256606958E1,-8.761131134E0,3.546724548E0,-7.855664063E-1,9.484397100E0
1.257613758E1,-8.729546814E0,2.878214722E0,-4.510121155E-1,9.202853877E0
1.258620658E1,-8.607550507E0,2.389780426E0,-1.127156067E-1,8.933850291E0
1.259627558E1,-8.454119568E0,2.107317810E0,8.711883545E-2,8.713237958E0
1.260634358E1,-8.421188049E0,1.949845276E0,1.510359192E-1,8.645294478E0
1.261641258E1,-8.484207001E0,1.747915192E0,-2.380050659E-2,8.662421279E0
1.262648158E1,-8.389154663E0,1.447789307E0,-2.950364685E-1,8.518277781E0
1.263654958E1,-8.247698822E0,1.040186920E0,-4.885839844E-1,8.327378879E0
1.264661858E1,-8.194858704E0,5.608836365E-1,-5.530998230E-1,8.232631356E0
1.265668758E1,-8.104297028E0,5.942642212E-2,-5.846841431E-1,8.125577971E0
1.266675658E1,-7.929610291E0,-3.580554199E-1,-6.674620056E-1,7.965703269E0
1.267682458E1,-7.727979584E0,-6.042933655E-1,-7.089257812E-1,7.783920264E0
1.268689358E1,-7.557184753E0,-6.688092041E-1,-7.714956665E-1,7.625847672E0
1.269696258E1,-7.553891602E0,-5.412744141E-1,-9.339079285E-1,7.630625160E0
1.270703058E1,-7.647896118E0,-2.911445618E-1,-1.077609100E0,7.728927582E0
1.271709958E1,-7.817792816E0,-3.083587646E-2,-1.157542877E0,7.903084264E0
1.272716858E1,-7.975415039E0,2.636018372E-1,-1.302890625E0,8.085434741E0
1.273723658E1,-8.134683838E0,5.451663208E-1,-1.482816467E0,8.286677992E0
1.274730558E1,-8.245902557E0,6.975494385E-1,-1.749561768E0,8.458277046E0
1.275737458E1,-8.138725433E0,7.304809570E-1,-1.940863953E0,8.398774136E0
1.276744258E1,-7.814499664E0,7.168592834E-1,-1.893562317E0,8.072538045E0
1.277751158E1,-7.438930664E0,6.854246521E-1,-1.586101685E0,7.636963725E0
1.278758058E1,-7.145690460E0,6.858737183E-1,-1.063987427E0,7.256954193E0
1.279764858E1,-6.862329712E0,7.343728638E-1,-5.504054260E-1,6.923425360E0
1.280771758E1,-6.685697021E0,7.167095947E-1,-2.227368164E-1,6.727691208E0
1.281778683E1,-6.437962189E0,6.141728210E-1,-2.106120300E-1,6.470619972E0
1.282785483E1,-6.123915253E0,4.451742554E-1,-3.541635132E-1,6.150280476E0
1.283792383E1,-5.877228241E0,1.902543640E-1,-6.509962463E-1,5.916232300E0
1.284799283E1,-5.545218658E0,-1.369651794E-1,-1.033899994E0,5.642442612E0
1.285806083E1,-5.365143127E0,-5.783972168E-1,-1.579665070E0,5.622690268E0
1.286812983E1,-5.556145935E0,-9.508227539E-1,-2.254910889E0,6.071197961E0
1.287819883E1,-6.076463928E0,-1.102756805E0,-2.810705109E0,6.785244996E0
1.288826683E1,-6.781497803E0,-9.952803040E-1,-3.492387543E0,7.692598136E0
1.289833583E1,-7.823181610E0,-9.021739197E-1,-4.339326324E0,8.991431545E0
1.290840483E1,-8.870104523E0,-6.532415771E-1,-4.567002869E0,9.998149529E0
1.291847283E1,-9.814340973E0,-2.920426941E-1,-4.486021271E0,1.079495088E1
1.292854183E1,-1.101918549E1,-9.056167603E-2,-5.120402069E0,1.215109738E1
1.293861083E1,-1.246248413E1,-6.212081909E-2,-6.460714874E0,1.403774221E1
1.294867983E1,-1.397673523E1,-8.607101440E-2,-7.929011536E0,1.606940446E1
1.295874783E1,-1.511362106E1,-4.385879517E-2,-9.091194763E0,1.763726984E1
1.296881683E1,-1.535911057E1,7.843688965E-2,-8.632398834E0,1.761893128E1
1.297888583E1,-1.444645844E1,3.258723450E-1,-7.369475098E0,1.622083590E1
1.298895383E1,-1.258388168E1,7.135661316E-1,-5.271138611E0,1.366192362E1
1.299902283E1,-1.084913910E1,3.957769775E-1,-4.664001160E0,1.181580998E1
1.300909183E1,-8.066276093E0,2.773731995E-1,-3.459755402E0,8.781324122E0
1.301915983E1,-5.622458038E0,-1.389111328E-1,-1.851050720E0,5.920955959E0
1.302922883E1,-4.121080170E0,-9.011260986E-1,-7.794291687E-1,4.289853126E0
1.303929783E1,-3.031945038E0,-2.060165863E0,4.535568237E-2,3.665928427E0
1.304936583E1,-4.127217407E0,-3.506607971E0,9.984237671E-2,5.416658702E0
1.305943483E1,-7.375911713E0,-4.042194214E0,-3.339555359E-1,8.417537286E0
1.306950383E1,-1.054107971E1,-3.810925140E0,-1.838925934E0,1.135866015E1
1.307957183E1,-1.297067734E1,-3.239114227E0,-4.362827454E0,1.406288004E1
1.308964083E1,-1.464509537E1,-2.812501373E0,-6.203699341E0,1.615162121E1
1.309970983E1,-1.494417343E1,-2.592908020E0,-6.100414124E0,1.634828872E1
1.310977783E1,-1.406041122E1,-2.440225525E0,-4.077969818E0,1.484182274E1
1.311984683E1,-1.320583832E1,-2.219734039E0,-2.146087189E0,1.356197165E1
1.312991583E1,-1.308309357E1,-1.943857727E0,-1.697619781E0,1.333521027E1
1.313998383E1,-1.360655502E1,-1.393751678E0,-2.450703735E0,1.389556880E1
1.315005283E1,-1.414034500E1,-7.625143433E-1,-4.029770050E0,1.472310536E1
1.316012183E1,-1.496872238E1,-4.381388855E-1,-5.138514404E0,1.583221228E1
1.317018983E1,-1.624721375E1,2.248324585E-1,-5.585035858E0,1.718182556E1
1.318025883E1,-1.729144226E1,1.182391205E0,-4.880151672E0,1.800577421E1
1.319032783E1,-1.870959320E1,2.294728088E0,-4.552632751E0,1.939177969E1
1.320039583E1,-2.137510025E1,3.137774963E0,-5.100792847E0,2.219816727E1
1.321046483E1,-2.451886276E1,4.126319275E0,-5.753435669E0,2.552064192E1
1.322053383E1,-2.726609985E1,5.592819672E0,-6.382727051E0,2.855624341E1
1.323060283E1,-2.861479523E1,6.821165314E0,-7.013964386E0,3.024120531E1
1.324067083E1,-2.789598999E1,7.234306183E0,-7.083569641E0,2.967656318E1
1.325073983E1,-2.588058105E1,6.881639557E0,-5.609435120E0,2.736105263E1
1.326080883E1,-2.418625443E1,6.275699615E0,-2.618055725E0,2.512396315E1
1.327087683E1,-2.326117813E1,5.579197998E0,1.856140137E-2,2.392091559E1
1.328094583E1,-2.235151978E1,4.928800507E0,1.327289886E0,2.292695377E1
1.329101483E1,-2.080733093E1,4.361779633E0,2.578238525E0,2.141535561E1
1.330108283E1,-1.798839294E1,3.507506104E0,3.304677887E0,1.862272203E1
1.331115183E1,-1.420276520E1,2.259401550E0,3.680396576E0,1.484482245E1
1.332122083E1,-1.102681961E1,9.669891357E-1,3.949836273E0,1.175274544E1
1.333128883E1,-8.668174438E0,-3.207829285E-1,3.745511169E0,9.448227543E0
1.334135783E1,-6.484066315E0,-1.477128296E0,3.845203857E0,7.681836804E0
1.335142683E1,-5.557193756E0,-2.370919647E0,2.907553711E0,6.705037733E0
1.336149483E1,-4.585264893E0,-3.227438507E0,8.132588196E-1,5.665898284E0
1.337156383E1,-3.315605164E0,-3.905827789E0,-7.963439941E-1,5.184871462E0
1.338163283E1,-2.102827148E0,-4.169878693E0,-1.568588104E0,4.926483428E0
1.339170083E1,-1.011746063E0,-3.969445496E0,-1.481469269E0,4.356016395E0
1.340176983E1,-2.016307068E-1,-3.352578278E0,-1.156944122E0,3.552316955E0
1.341183883E1,4.902305603E-1,-2.583777008E0,-9.897418213E-1,2.809949911E0
1.342190683E1,7.897576904E-1,-1.831291809E0,-8.011340332E-1,2.149223729E0
1.343197583E1,1.013841705E0,-1.202449493E0,-9.093589783E-1,1.816781093E0
1.344204483E1,1.288221130E0,-5.516029358E-1,-1.372196503E0,1.961301283E0
1.345211283E1,1.591191101E0,4.023632813E-1,-2.490670624E0,2.982821732E0
1.346218183E1,1.812131653E0,1.585802307E0,-4.667743378E0,5.252277442E0
1.347225083E1,2.075284424E0,2.353106689E0,-6.352938995E0,7.085460494E0
1.348231983E1,2.385888519E0,2.592009888E0,-5.861959991E0,6.839119404E0
1.349238783E1,2.531385956E0,2.756368103E0,-4.206851807E0,5.630549005E0
1.350245683E1,2.226170654E0,3.172053680E0,-2.165846100E0,4.439442494E0
1.351252583E1,1.689237213E0,3.362158356E0,-4.296066284E-2,3.762908023E0
1.352259383E1,1.044827271E0,2.692301331E0,1.989961853E0,3.507149648E0
1.353266283E1,9.295669556E-2,1.728455658E0,3.206182709E0,3.643598149E0
1.354273183E1,-5.337899780E-1,9.431886292E-1,3.626059570E0,3.784553413E0
1.355279983E1,-5.769003296E-1,1.465452576E-1,3.539090424E0,3.588795136E0
1.356286883E1,-3.466790771E-1,-4.008663940E-1,3.270698547E0,3.313359207E0
1.357293783E1,-1.863624573E-1,-6.433621216E-1,2.985840912E0,3.060047669E0
1.358300583E1,-6.750961304E-2,-8.346643066E-1,2.627037048E0,2.757271424E0
1.359307483E1,1.686991882E-1,-1.019230499E0,2.290387115E0,2.512600916E0
1.360314383E1,4.905299377E-1,-1.054407349E0,2.016606445E0,2.327895194E0
1.361321183E1,8.048762512E-1,-9.066645813E-1,1.706301727E0,2.093163163E0
1.362328083E1,1.082099762E0,-5.866300964E-1,1.016835480E0,1.596567931E0
1.363334983E1,1.366208954E0,-9.325607300E-2,-7.836204529E-1,1.577746689E0
1.364341783E1,1.886526947E0,7.450007629E-1,-4.903203735E0,5.306167820E0
1.365348683E1,1.798509979E0,1.515598297E0,-8.550519104E0,8.868091863E0
1.366355583E1,9.515711975E-1,1.303040314E0,-6.833140411E0,7.021054742E0
1.367362383E1,3.213816833E-1,6.502478027E-1,-3.484304352E0,3.559000591E0
1.368369283E1,-2.499801636E-1,2.279759216E-1,-2.040556641E0,2.068413524E0
1.369376183E1,-1.710942078E0,-3.338058472E-2,-2.583477631E0,3.098837479E0
1.370382983E1,-4.232149200E0,-1.676513672E-1,-5.406606903E0,6.868085034E0
1.371389883E1,-7.376360779E0,-4.183799744E-1,-8.289162598E0,1.110387125E1
1.372396783E1,-1.102607117E1,-8.701405334E-1,-8.538843384E0,1.397294658E1
1.373403583E1,-1.305345520E1,-1.532662811E0,-1.421144714E0,1.321973526E1
1.374410483E1,-1.481214798E1,-1.727856903E0,9.357041931E0,1.760509730E1
1.375417383E1,-1.823657684E1,-4.676275635E-1,1.063478485E1,2.111610900E1
1.376424283E1,-2.264490967E1,6.119274902E0,-6.206244049E0,2.426427259E1
1.377431083E1,-3.069037903E1,1.614497635E1,-2.123873383E1,4.066501495E1
1.378437983E1,-3.532055054E1,1.429557220E1,8.309370575E0,3.899936300E1
1.379444883E1,-3.848961044E1,1.448657501E1,2.151221512E1,4.641213599E1
1.380451683E1,-4.039290253E1,2.265628601E1,3.458408203E0,4.644194718E1
1.381458500E1,-3.884586960E1,2.831032837E1,-1.420590866E1,5.012269065E1
1.382465400E1,-2.830149673E1,2.702779541E1,-1.428853683E1,4.166099767E1
1.383472200E1,-1.582808533E1,1.920281754E1,-9.305099945E0,2.656805171E1
1.384479100E1,-1.377031448E1,1.159907959E1,-4.858297119E0,1.864841171E1
1.385486000E1,-1.240171051E1,8.299042053E0,-1.129401398E0,1.496502824E1
1.386492800E1,-1.078372513E1,6.272107086E0,3.897894287E-1,1.248118547E1
1.387499700E1,-9.955946503E0,4.658911743E0,-5.140310669E-1,1.100411547E1
1.388506600E1,-9.958940277E0,3.814367981E0,-1.852547607E0,1.082413171E1
1.389513400E1,-9.773326263E0,3.639082489E0,-2.945874023E0,1.083692767E1
1.390520300E1,-9.066795502E0,3.871249695E0,-3.573818207E0,1.048644513E1
1.391527200E1,-8.175848236E0,3.798950043E0,-3.407364349E0,9.637771922E0
1.392534000E1,-7.183561707E0,3.209775238E0,-2.277962952E0,8.191173974E0
1.393540900E1,-6.128705292E0,2.420915680E0,-8.213420105E-1,6.640516846E0
1.394547800E1,-5.127287750E0,1.780547333E0,2.676434326E-1,5.434248935E0
1.395554600E1,-4.288581848E0,1.379082184E0,7.387138367E-1,4.565030128E0
1.396561500E1,-3.915108490E0,1.265767822E0,7.342231750E-1,4.179632321E0
1.397568400E1,-3.752696228E0,1.238374786E0,2.246827698E-1,3.958128780E0
1.398575200E1,-3.299738159E0,1.142124939E0,-7.286846924E-1,3.567029952E0
1.399582100E1,-2.266736298E0,1.077609100E0,-1.657353516E0,3.007682745E0
1.400589000E1,-8.716374207E-1,1.413660278E0,-1.882485352E0,2.510366163E0
1.401595900E1,-2.790197754E-1,2.165546722E0,-1.354682922E0,2.569554526E0
1.402602700E1,-7.833210754E-1,3.118914185E0,-5.004093933E-1,3.254478016E0
1.403609600E1,-1.728156281E0,3.804039459E0,1.224453735E-1,4.179980049E0
1.404616500E1,-2.524949341E0,4.046834564E0,4.260140991E-1,4.788917119E0
1.405623300E1,-3.478167114E0,3.934867401E0,7.286846924E-1,5.302057084E0
1.406630200E1,-5.073998566E0,3.512745209E0,9.075627136E-1,6.237668669E0
1.407637100E1,-7.045848083E0,2.872825928E0,9.147477722E-1,7.663802419E0
1.408643900E1,-9.106612701E0,2.456391907E0,6.780899048E-1,9.456429665E0
1.409650800E1,-1.161554535E1,2.370470581E0,1.630110168E-1,1.185607849E1
1.410657700E1,-1.429527283E1,2.462080078E0,-5.872288513E-1,1.451762726E1
1.411664500E1,-1.670121964E1,2.580783234E0,-1.458566895E0,1.696226980E1
1.412671400E1,-1.799857178E1,2.680176544E0,-2.232307892E0,1.833344296E1
1.413678300E1,-1.624811188E1,2.794239349E0,-2.812501373E0,1.672480425E1
1.414685100E1,-1.278431488E1,3.071762238E0,-3.336112518E0,1.356481024E1
1.415692000E1,-1.109178452E1,3.276985474E0,-4.158202972E0,1.229052356E1
1.416698900E1,-1.036968613E1,3.541186066E0,-5.107379150E0,1.208948762E1
1.417705700E1,-1.028870453E1,3.695215759E0,-5.464087372E0,1.222163292E1
1.418712600E1,-1.055949142E1,3.649710388E0,-4.972659302E0,1.222908768E1
1.419719500E1,-1.076486435E1,3.584595795E0,-4.480333099E0,1.219856615E1
1.420726300E1,-1.069136719E1,3.284918976E0,-4.588108978E0,1.208911779E1
1.421733200E1,-1.020532791E1,2.468965759E0,-4.291276245E0,1.134281982E1
1.422740100E1,-8.846004639E0,2.060614929E0,-1.650318146E0,9.231548187E0
1.423747000E1,-7.079078979E0,2.019749908E0,1.547481995E0,7.522462989E0
1.424753800E1,-5.865253143E0,2.302062836E0,3.389701080E0,7.154771915E0
1.425760700E1,-5.361251221E0,2.996768188E0,3.861519928E0,7.254996236E0
1.426767600E1,-5.019811249E0,3.248843994E0,2.484084320E0,6.474887426E0
1.427774400E1,-4.907544708E0,3.674409027E0,-1.463356934E0,6.302911254E0
1.428781300E1,-6.232289886E0,4.892725525E0,-5.074896698E0,9.409292045E0
1.429788200E1,-8.704099731E0,5.256618805E0,-3.419339447E0,1.072778056E1
1.430795000E1,-1.025801834E1,4.581522675E0,2.923420715E-1,1.123844981E1
1.431801900E1,-1.124401794E1,3.666325836E0,2.361489258E0,1.206012090E1
1.432808800E1,-1.252161118E1,2.826123047E0,3.097808075E0,1.320507981E1
1.433815600E1,-1.355027206E1,2.257305908E0,3.178041229E0,1.409983152E1
1.434822500E1,-1.382420242E1,1.347946930E0,2.595901794E0,1.413025972E1
1.435829400E1,-1.349907852E1,8.143066406E-2,1.293759613E0,1.356117863E1
1.436836200E1,-1.280946259E1,-1.329535217E0,-3.924838257E-1,1.288425548E1
1.437843100E1,-1.205637863E1,-2.514620819E0,-1.648072815E0,1.242560773E1
1.438850000E1,-1.144519958E1,-3.330723724E0,-2.214644623E0,1.212398304E1
1.439856800E1,-1.056532928E1,-3.308420105E0,-1.850451965E0,1.122479394E1
1.440863700E1,-9.667496338E0,-2.548749847E0,-1.151106262E0,1.006387882E1
1.441870600E1,-9.276509399E0,-1.592089233E0,-7.282356262E-1,9.440270223E0
1.442877400E1,-9.220974884E0,-8.364605713E-1,-4.507127380E-1,9.269799678E0
1.443884300E1,-9.294771423E0,-2.987786865E-1,-2.948867798E-1,9.304246489E0
1.444891200E1,-9.238488464E0,2.314187622E-1,-3.844006348E-1,9.249377687E0
1.445898000E1,-9.168883209E0,8.279283142E-1,-6.584806824E-1,9.229706464E0
1.446904900E1,-9.099427643E0,1.353036346E0,-8.728349304E-1,9.240786308E0
1.447911800E1,-9.021290131E0,1.860331421E0,-8.556207275E-1,9.250761885E0
1.448918700E1,-9.007818146E0,2.364632721E0,-6.858737183E-1,9.338238507E0
1.449925500E1,-9.073082428E0,2.872676239E0,-5.614823914E-1,9.533538482E0
1.450932400E1,-9.304052124E0,3.413351898E0,-6.638694763E-1,9.932627034E0
1.451939300E1,-9.607022095E0,4.011957092E0,-9.207353210E-1,1.045171884E1
1.452946100E1,-9.877060547E0,4.511468353E0,-8.708889771E-1,1.089348977E1
1.453953000E1,-1.001941452E1,4.784949646E0,-3.400927734E-1,1.110855857E1
1.454959900E1,-9.947114868E0,4.812043304E0,2.586621094E-1,1.105295259E1
1.455966700E1,-9.756261749E0,4.635260925E0,6.092330933E-1,1.081856978E1
1.456973600E1,-9.544302521E0,4.377197571E0,7.539820862E-1,1.052720562E1
1.457980500E1,-9.328301697E0,4.087549896E0,8.518785095E-1,1.022012591E1
1.458987300E1,-9.164691925E0,3.759282532E0,9.352551270E-1,9.949798259E0
1.459994200E1,-9.103469238E0,3.438349915E0,8.147557068E-1,9.765205024E0
1.461001100E1,-9.246272278E0,3.085533600E0,3.956272888E-1,9.755541481E0
1.462007900E1,-9.601633301E0,2.610870667E0,-3.698808289E-1,9.957149166E0
1.463014800E1,-1.006656647E1,1.992506561E0,-1.375639343E0,1.035365764E1
1.464021700E1,-1.034648438E1,1.226549377E0,-2.089055786E0,1.062630304E1
1.465028500E1,-1.038734940E1,4.781057739E-1,-2.214944000E0,1.063163156E1
1.466035400E1,-1.018272491E1,-1.347198486E-1,-1.951192474E0,1.036885665E1
1.467042300E1,-1.018916153E1,-6.818321228E-1,-2.864892426E0,1.060620179E1
1.468049100E1,-1.079105988E1,-1.497485962E0,-5.756130066E0,1.232162614E1
1.469056000E1,-1.083955902E1,-1.812281342E0,-5.626050568E0,1.234636985E1
1.470062900E1,-9.120533752E0,-1.132694550E0,-2.101479950E0,9.427796712E0
1.471069700E1,-6.834038544E0,3.077600098E-1,1.576371918E0,7.020238419E0
1.472076600E1,-5.285957794E0,2.201022949E0,4.929399261E0,7.555450278E0
1.473083500E1,-4.784949646E0,3.811523895E0,5.646707611E0,8.325188548E0
1.474090400E1,-3.905079346E0,5.028193817E0,3.603606262E0,7.315624092E0
1.475097200E1,-2.080523529E0,6.036197662E0,-1.306034088E0,6.516899985E0
1.476104100E1,-1.243613892E0,6.662944336E0,-4.705464935E0,8.251230393E0
1.477111000E1,-2.538121948E0,6.438111877E0,-2.312840424E0,7.296614173E0
1.478117800E1,-4.274511108E0,5.178481293E0,6.222560120E-1,6.743538853E0
1.479124700E1,-5.183271332E0,2.884801025E0,4.213737488E-1,5.946926474E0
1.480131600E1,-5.463488617E0,9.937834167E-1,-1.301543427E0,5.703624167E0
1.481138458E1,-5.783822479E0,-5.439688110E-1,-4.046984253E0,7.080013141E0
1.482145358E1,-7.009024658E0,-2.118993530E0,-8.962163086E0,1.157311226E1
1.483152258E1,-1.037687119E1,-3.989354095E0,-1.505164993E1,1.871220370E1
1.484159058E1,-1.543111084E1,-5.082530823E0,-1.502575378E1,2.212972160E1
1.485165958E1,-1.941537552E1,-3.961362305E0,-6.913822632E0,2.098690404E1
1.486172858E1,-2.006786865E1,-1.697320404E0,2.176324310E0,2.025676767E1
1.487179658E1,-1.549457886E1,3.969744873E-1,4.356091461E0,1.610015825E1
1.488186558E1,-9.011859741E0,1.817370758E0,-8.816665649E-2,9.193705772E0
1.489193458E1,-5.179529114E0,2.398761749E0,-5.473817139E0,7.908492514E0
1.490200258E1,-4.010011139E0,2.201322327E0,-5.588329010E0,7.221871672E0
1.491207158E1,-3.957171021E0,1.331780548E0,-1.589694214E0,4.467658179E0
1.492214058E1,-2.872376862E0,8.876541138E-2,-5.662724304E-1,2.929008808E0
1.493220858E1,-2.723586273E0,-1.303489380E0,-1.595382385E0,3.415003910E0
1.494227758E1,-6.360872498E0,-2.359243927E0,-3.426374817E0,7.600445725E0
1.495234658E1,-1.048823959E1,-2.168989563E0,-5.669460297E0,1.211818739E1
1.496241558E1,-1.270887177E1,-1.615290985E0,-6.585704956E0,1.440472479E1
1.497248358E1,-1.351913681E1,-1.050814819E0,-6.356980591E0,1.497606337E1
1.498255258E1,-1.312605423E1,-7.744894409E-1,-6.229445801E0,1.454988414E1
1.499262158E1,-1.170041885E1,-8.563691711E-1,-6.427783356E0,1.337720331E1
1.500268958E1,-1.056937088E1,-9.240284729E-1,-6.263574829E0,1.232062495E1
1.501275858E1,-1.004785538E1,-9.039701843E-1,-6.163283386E0,1.182212425E1
1.502282758E1,-9.601633301E0,-8.988807678E-1,-6.552024994E0,1.165883271E1
1.503289558E1,-9.422605591E0,-1.533411255E0,-7.082072754E0,1.188665641E1
1.504296458E1,-9.791139221E0,-2.953358459E0,-7.147337036E0,1.247690507E1
1.505303358E1,-1.025726990E1,-4.237537994E0,-6.540349274E0,1.288194405E1
1.506310158E1,-1.004171814E1,-4.716990967E0,-6.750961304E0,1.298697754E1
1.507317058E1,-9.653874664E0,-4.353247375E0,-7.234755249E0,1.282535544E1
1.508323958E1,-1.030951126E1,-3.324287109E0,-7.677235107E0,1.327692909E1
1.509330758E1,-1.097936829E1,-2.372715912E0,-7.143295441E0,1.331176091E1
1.510337658E1,-1.087608307E1,-1.798060913E0,-6.524482269E0,1.280980386E1
1.511344558E1,-1.164697998E1,-1.478325806E0,-6.930887146E0,1.363359037E1
1.512351358E1,-1.279179932E1,-1.217717743E0,-6.702911224E0,1.449282530E1
1.513358258E1,-1.139789795E1,-2.489323425E-1,-5.617967377E0,1.270966571E1
1.514365158E1,-1.186328018E1,7.834707642E-1,-6.354585571E0,1.348080120E1
1.515372058E1,-1.307081909E1,1.491049347E0,-5.711073761E0,1.434175385E1
1.516378858E1,-1.304851547E1,2.745141449E0,-4.085154877E0,1.394589717E1
1.517385758E1,-1.347437988E1,3.963607635E0,-3.991599426E0,1.460143708E1
1.518392658E1,-1.448148560E1,5.425467682E0,-4.906347198E0,1.622409836E1
1.519399458E1,-1.653626266E1,7.354057159E0,-4.822671204E0,1.872934321E1
1.520406358E1,-1.939681412E1,9.541907501E0,-4.605921936E0,2.210201153E1
1.521413258E1,-2.357253067E1,1.077204941E1,-5.378315735E0,2.646936967E1
1.522420058E1,-2.834984619E1,1.037971527E1,-6.350543976E0,3.085095909E1
1.523426958E1,-3.105427231E1,8.737779694E0,-5.169649658E0,3.267172937E1
1.524433858E1,-2.875670013E1,6.752458191E0,-2.611619110E0,2.965407305E1
1.525440658E1,-2.379661469E1,5.191803589E0,-1.015488281E0,2.437754933E1
1.526447558E1,-2.046888474E1,4.143982544E0,-5.995033264E-1,2.089275563E1
1.527454458E1,-1.958676910E1,3.274291077E0,1.065783691E-1,1.985884853E1
1.528461258E1,-1.954335938E1,2.214045868E0,7.816744995E-1,1.968389976E1
1.529468158E1,-1.819271805E1,1.251846771E0,1.208437042E0,1.827573338E1
1.530475058E1,-1.495749573E1,5.522016907E-1,1.561253357E0,1.504889090E1
1.531481858E1,-1.155477173E1,-2.921923828E-1,1.497336273E0,1.165504792E1
1.532488758E1,-8.973389740E0,-1.292562103E0,1.376986542E0,9.169979943E0
1.533495658E1,-6.648424530E0,-2.433639221E0,4.403842163E-1,7.093524290E0
1.534502458E1,-5.242697754E0,-3.620072021E0,-1.224304047E0,6.487659176E0
1.535509358E1,-4.251459045E0,-4.652475128E0,-2.216590576E0,6.680845951E0
1.536516258E1,-3.167263641E0,-5.205874329E0,-2.240690460E0,6.492563457E0
1.537523058E1,-1.748663635E0,-4.949906616E0,-2.345023499E0,5.749655227E0
1.538529958E1,-4.191284180E-1,-4.029620361E0,-3.178789673E0,5.149583738E0
1.539536858E1,9.755213928E-1,-2.903811493E0,-4.826712799E0,5.716722804E0
1.540543758E1,2.081721039E0,-1.594484253E0,-6.768774261E0,7.258942590E0
1.541550558E1,3.002456360E0,7.475454712E-1,-9.115294647E0,9.626118892E0
1.542557458E1,2.643951874E0,3.574866028E0,-9.696835327E0,1.066765035E1
1.543564358E1,1.590292969E0,5.218597870E0,-7.232210541E0,9.059120529E0
1.544571158E1,7.593708801E-1,5.482648773E0,-1.802401886E0,5.821059548E0
1.545578058E1,6.423143005E-1,4.514162750E0,3.878883820E0,5.986315451E0
1.546584958E1,1.116827545E0,3.152893524E0,6.874753876E0,7.645278425E0
1.547591758E1,1.067879333E0,2.265688477E0,7.444020081E0,7.854116469E0
1.548598658E1,5.044509888E-2,1.618434448E0,7.289990387E0,7.467652550E0
1.549605558E1,-5.751040649E-1,9.283694458E-1,6.894063721E0,6.980023574E0
1.550612358E1,-2.787203979E-1,2.317181396E-1,5.571863251E0,5.583640250E0
1.551619258E1,2.833607483E-1,-2.781216431E-1,4.075874176E0,4.095167306E0
1.552626158E1,5.432203674E-1,-6.342311096E-1,2.940485229E0,3.056761498E0
1.553632958E1,7.887098694E-1,-9.954299927E-1,1.882934418E0,2.271208082E0
1.554639858E1,9.936337280E-1,-1.214125214E0,8.575666809E-1,1.787967738E0
1.555646758E1,1.126856689E0,-1.439706116E0,-8.352630615E-2,1.830173856E0
1.556653558E1,9.877958679E-1,-1.579814758E0,-8.291258240E-1,2.039363866E0
1.557660458E1,8.303233337E-1,-1.624571686E0,-1.216071167E0,2.192600986E0
1.558667358E1,6.042933655E-1,-1.631307678E0,-1.212029572E0,2.120224256E0
1.559674258E1,1.703457642E-1,-1.573078766E0,-1.002914429E0,1.873347761E0
1.560681058E1,-5.507048035E-1,-1.367705841E0,-5.424719238E-1,1.571041322E0
1.561687958E1,-1.068777466E0,-9.160949707E-1,-3.248245239E-2,1.408037775E0
1.562694858E1,-1.155746613E0,-4.384382629E-1,3.100053406E-1,1.274394623E0
1.563701658E1,-1.223705292E0,-6.586303711E-2,4.564009094E-1,1.307705766E0
1.564708558E1,-1.360670471E0,3.297642517E-1,5.177732849E-1,1.492734996E0
1.565715458E1,-1.443598022E0,7.044351196E-1,4.969665527E-1,1.681421970E0
1.566722258E1,-1.474882965E0,1.001267853E0,3.797602844E-1,1.822645042E0
1.567729158E1,-1.673070831E0,1.027014313E0,-4.900808716E-1,2.023389153E0
1.568736058E1,-3.257226562E0,-6.245013428E-1,-7.072342987E0,7.811373895E0
1.569742858E1,-5.904621277E0,-2.559228058E0,-1.498713409E1,1.631037673E1
1.570749758E1,-8.162226562E0,-3.201542358E0,-2.127435974E1,2.301021943E1
1.571756658E1,-8.636141052E0,-2.496358795E0,-1.809048065E1,2.020099576E1
1.572763458E1,-7.113357697E0,-1.279838562E-1,-7.279362488E-1,7.151652171E0
1.573770358E1,-7.419620819E0,1.391805725E0,8.166118469E0,1.112085371E1
1.574777258E1,-8.311615906E0,2.136656799E0,7.190746765E0,1.119620919E1
1.575784158E1,-9.468260651E0,4.385580139E0,6.784192200E0,1.244614546E1
1.576790958E1,-1.296289352E1,7.731721802E0,3.648063812E0,1.552818406E1
1.577797858E1,-2.236005203E1,1.165985321E1,-1.728784973E1,3.057439864E1
1.578804758E1,-3.865815994E1,1.236473740E1,-2.517060745E1,4.775876402E1
1.579811558E1,-5.222325119E1,9.915979614E0,-1.052251831E1,5.418780313E1
1.580818458E1,-4.682158401E1,5.734724579E0,-6.234535217E-1,4.717559210E1
1.581825375E1,-2.792592773E1,3.372486877E-1,2.461032257E0,2.803618833E1
1.582832175E1,-1.653027512E1,-3.179238739E0,6.312223663E0,1.797781193E1
1.583839075E1,-1.221609650E1,-4.448449402E0,5.334157562E0,1.405257815E1
1.584845975E1,-9.879904633E0,-4.368815002E0,1.653311920E0,1.092851776E1
1.585852775E1,-8.111931152E0,-3.355272675E0,-1.046473846E0,8.840610231E0
1.586859675E1,-5.983806610E0,-2.719394989E0,-4.096680908E0,7.744923829E0
1.587866575E1,-4.749323730E0,-1.613943787E0,-7.060068512E0,8.660569140E0
1.588873375E1,-7.200775909E0,7.255412292E-1,-6.813381500E0,9.939806399E0
1.589880275E1,-1.206371338E1,2.689157867E0,-5.186714172E0,1.340398278E1
1.590887175E1,-1.691512482E1,3.587140503E0,-6.509064331E0,1.847584756E1
1.591893975E1,-2.116912857E1,3.022065582E0,-9.660311279E0,2.346457966E1
1.592900875E1,-2.468771164E1,1.550924835E0,-1.121033798E1,2.715805868E1
1.593907775E1,-2.585663086E1,3.891906738E-1,-9.156758423E0,2.743288271E1
1.594914675E1,-2.492287262E1,-1.209634552E0,-7.176226959E0,2.596364822E1
1.595921475E1,-2.285791672E1,-2.046244812E0,-6.525979156E0,2.385916760E1
1.596928375E1,-1.932765793E1,-2.766247559E-1,-5.632636871E0,2.013359085E1
1.597935275E1,-1.632310593E1,1.574725342E0,-4.665498047E0,1.704964572E1
1.598942075E1,-1.478430588E1,2.945724335E0,-7.707621918E0,1.693104922E1
1.599948975E1,-1.457324478E1,3.954027557E0,-7.256609802E0,1.675327381E1
1.600955875E1,-1.578632217E1,3.995191956E0,-3.486399994E0,1.665306313E1
1.601962675E1,-1.721375381E1,3.835174713E0,-2.759960632E0,1.785046969E1
1.602969575E1,-1.933349579E1,3.437002716E0,-1.867666168E0,1.972524332E1
1.603976475E1,-2.229912872E1,2.681374054E0,-8.153544617E-1,2.247455698E1
1.604983275E1,-2.534274948E1,1.741179199E0,5.138813782E-1,2.540769038E1
1.605990175E1,-2.715024078E1,4.793032837E-1,1.735041962E0,2.720984522E1
1.606997075E1,-2.679458038E1,-1.013392639E0,2.389481049E0,2.691999484E1
1.608003875E1,-2.411575104E1,-1.882635040E0,2.179617462E0,2.428712612E1
1.609010775E1,-1.985800507E1,-1.803749084E0,1.607806549E0,2.000447245E1
1.610017675E1,-1.565878738E1,-1.526076508E0,1.134341125E0,1.577381570E1
1.611024475E1,-1.249556534E1,-1.462159424E0,9.328601074E-1,1.261535934E1
1.612031375E1,-1.013213013E1,-1.241967316E0,6.795867920E-1,1.023056117E1
1.613038275E1,-7.869435425E0,-1.098415833E0,-3.826043701E-1,7.954930380E0
1.614045175E1,-5.078489227E0,-8.834628296E-1,-2.930755463E0,5.929661625E0
1.615051975E1,-1.354233856E0,-5.614823914E-1,-8.178243256E0,8.308602443E0
1.616058875E1,1.869462433E0,1.120420074E0,-1.292098068E1,1.310350994E1
1.617065775E1,2.441722412E0,3.532653809E0,-1.277668076E1,1.347906608E1
1.618072575E1,8.366102600E-1,4.851561127E0,-7.993078308E0,9.387590901E0
1.619079475E1,-1.445993042E0,5.185666351E0,-2.503394165E0,5.937087984E0
1.620086375E1,-2.869383087E0,5.280868378E0,1.374741211E0,6.165293466E0
1.621093175E1,-2.543660431E0,4.785997467E0,3.694317627E0,6.559265422E0
1.622100075E1,-1.398092651E0,3.442990265E0,4.784051514E0,6.057721842E0
1.623106975E1,-4.849914551E-1,2.360890503E0,4.908143463E0,5.467988015E0
1.624113775E1,1.139131165E-1,1.513652344E0,4.095333710E0,4.367594053E0
1.625120675E1,6.965016174E-1,7.686515808E-1,3.054847412E0,3.226148240E0
1.626127575E1,1.435514832E0,4.326004028E-2,2.368374939E0,2.769796764E0
1.627134375E1,2.074835358E0,-4.568499756E-1,1.806593170E0,2.788804859E0
1.628141275E1,2.177222443E0,-6.194119263E-1,1.295555878E0,2.608147567E0
1.629148175E1,2.015558624E0,-6.342311096E-1,1.053509216E0,2.361060638E0
1.630154975E1,1.673370209E0,-5.752537537E-1,7.197033691E-1,1.910250684E0
1.631161875E1,1.372495880E0,-4.198768616E-1,5.053491211E-1,1.521650175E0
1.632168775E1,1.210083618E0,-2.269281006E-1,5.650749207E-1,1.354661726E0
1.633175675E1,1.132993927E0,-1.686991882E-1,8.416996765E-1,1.421475642E0
1.634182475E1,1.113085327E0,-2.495310974E-1,1.092278595E0,1.579334430E0
1.635189375E1,1.091829529E0,-3.653901672E-1,1.181193695E0,1.649490903E0
1.636196275E1,1.125060425E0,-4.323010254E-1,1.138831787E0,1.658186653E0
1.637203075E1,1.109492798E0,-4.722679138E-1,1.051263885E0,1.599739669E0
1.638209975E1,1.075214081E0,-5.191204834E-1,9.303153992E-1,1.513624173E0
1.639216875E1,1.108145599E0,-5.448669434E-1,7.716453552E-1,1.456126097E0
1.640223675E1,1.121617584E0,-5.658233643E-1,6.162684631E-1,1.399274420E0
1.641230575E1,1.106499023E0,-6.351292419E-1,4.748126221E-1,1.361314170E0
1.642237475E1,1.072819061E0,-7.183561707E-1,2.655477905E-1,1.318139581E0
1.643244275E1,1.136137390E0,-7.827223206E-1,1.197509766E-3,1.379660768E0
1.644251175E1,1.177301788E0,-7.920030212E-1,-3.213816833E-1,1.454852045E0
1.645258075E1,1.300794983E0,-7.421566772E-1,-6.206094360E-1,1.621116959E0
1.646264875E1,1.446891174E0,-6.486012268E-1,-8.723858643E-1,1.809760956E0
1.647271775E1,1.607357483E0,-6.804849243E-1,-1.450334015E0,2.269389029E0
1.648278675E1,1.573677521E0,-8.258326721E-1,-3.036136322E0,3.518036996E0
1.649285575E1,-3.818559265E-1,-7.140151978E-1,-7.518864441E0,7.562337875E0
1.650292375E1,-4.090992737E0,-8.187973022E-2,-1.265842667E1,1.330333385E1
1.651299275E1,-7.607480164E0,9.892927551E-1,-2.034359528E1,2.174199447E1
1.652306175E1,-1.154504196E1,2.137554932E0,-2.829116821E1,3.063082326E1
1.653312975E1,-1.056742493E1,1.432670746E0,-1.283296371E1,1.668556181E1
1.654319875E1,-1.037178177E1,6.453080750E-1,1.067849396E1,1.490035277E1
1.655326775E1,-1.166120041E1,1.235530701E0,1.335941895E1,1.777594458E1
1.656333575E1,-1.191851532E1,3.689228210E0,1.187794968E1,1.722634903E1
1.657340475E1,-1.178663956E1,8.117918701E0,1.144954056E1,1.832805104E1
1.658347375E1,-1.580084198E1,1.731748810E1,1.119327347E1,2.597790161E1
1.659354175E1,-2.732657410E1,2.575723755E1,-3.331023102E0,3.769976993E1
