"Time (s)","Acceleration x (m/s^2)","Acceleration y (m/s^2)","Acceleration z (m/s^2)","Absolute acceleration (m/s^2)"
1.595583279E-3,5.411995697E0,5.191354523E0,-3.515738983E0,8.282528587E0
1.166458335E-2,5.428760834E0,5.294490051E0,-3.917952576E0,8.535421576E0
2.173358330E-2,5.786217499E0,5.288203125E0,-4.122427368E0,8.856625353E0
3.180258325E-2,5.640570374E0,5.003944244E0,-4.166884918E0,8.615011437E0
4.187158332E-2,3.203638000E0,4.291575623E0,-3.830085297E0,6.584107467E0
5.194058327E-2,2.516866150E0,4.032614136E0,-4.271367645E0,6.390709941E0
6.201058335E-2,4.943769379E0,4.134252777E0,-5.317841492E0,8.355377898E0
7.207958330E-2,5.850583649E0,4.249064026E0,-5.010231171E0,8.796947795E0
8.214858326E-2,6.302643585E0,4.551285553E0,-5.104535065E0,9.300204007E0
9.221758333E-2,7.334597626E0,4.972359924E0,-5.611530762E0,1.048856344E1
1.022865833E-1,7.771688690E0,5.320236511E0,-6.154002686E0,1.125059157E1
1.123555833E-1,7.545808411E0,5.695955200E0,-6.579118652E0,1.151815664E1
1.224245833E-1,6.938521271E0,5.994883575E0,-6.778354340E0,1.140297304E1
1.324945833E-1,6.268963623E0,6.150260468E0,-6.715335388E0,1.105537598E1
1.425635833E-1,5.840255127E0,6.145919495E0,-6.365363159E0,1.060182789E1
1.526325833E-1,5.796995087E0,6.146218872E0,-5.901777191E0,1.030592706E1
1.627015834E-1,6.010900269E0,6.263275452E0,-5.489534454E0,1.027105301E1
1.727705833E-1,6.329886932E0,6.550977173E0,-5.062771912E0,1.042182469E1
1.828395833E-1,6.660399628E0,6.988816681E0,-4.723726959E0,1.074793367E1
1.929085833E-1,6.961124268E0,7.434440002E0,-4.781357117E0,1.125120105E1
2.029785833E-1,7.270381165E0,7.786807251E0,-5.229076080E0,1.186743637E1
2.130475834E-1,7.521259460E0,7.810158691E0,-5.826483765E0,1.230917689E1
2.231165833E-1,7.672295380E0,7.411387939E0,-6.104755096E0,1.229068031E1
2.331855833E-1,8.005053406E0,7.050937500E0,-5.698649597E0,1.209426339E1
2.432545833E-1,8.474327545E0,7.071893921E0,-4.874912567E0,1.206609645E1
2.533235833E-1,8.843160553E0,7.283853149E0,-3.795507202E0,1.206904637E1
2.633925834E-1,8.928483124E0,7.309300232E0,-2.526745605E0,1.181220234E1
2.734625833E-1,8.870403900E0,7.513026581E0,-1.636546783E0,1.173916177E1
2.835315833E-1,8.907227325E0,8.082741852E0,-1.074465637E0,1.207575633E1
2.936005833E-1,8.888366547E0,8.901239777E0,-6.944059753E-1,1.259830660E1
3.036695833E-1,8.638386383E0,9.694440308E0,-7.360194397E-1,1.300559944E1
3.137385834E-1,7.961793365E0,9.581724701E0,-1.071920929E0,1.250394403E1
3.238075833E-1,6.302044830E0,7.408843231E0,-1.411564636E0,9.828491328E0
3.338765833E-1,4.818180542E0,4.927752686E0,-1.145268402E0,6.986361713E0
3.439465833E-1,4.656217346E0,3.594475250E0,1.483415222E-1,5.884098700E0
3.540155833E-1,5.418282623E0,3.155138855E0,1.714085541E0,6.500059771E0
3.640845834E-1,6.287974091E0,3.266656952E0,2.597847748E0,7.547084121E0
3.741535833E-1,6.799610138E0,3.748205566E0,2.181264038E0,8.064840718E0
3.842225833E-1,7.392527161E0,5.084177399E0,3.847000122E-2,8.972167942E0
3.942915833E-1,8.213270416E0,6.947502594E0,-2.594105530E0,1.106593813E1
4.043605833E-1,8.760682068E0,8.299940186E0,-3.689677277E0,1.261951963E1
4.144305832E-1,8.848249969E0,8.639134827E0,-2.865491180E0,1.269398353E1
4.244995833E-1,8.503965912E0,8.320896606E0,-1.363963623E0,1.197560660E1
4.345685833E-1,8.100704498E0,7.898325348E0,-2.710862732E-1,1.131717476E1
4.446375833E-1,7.660769348E0,7.449558563E0,2.918930054E-2,1.068569894E1
4.547065833E-1,7.142996063E0,6.988816681E0,-2.709365845E-1,9.996967440E0
4.647755834E-1,6.584657135E0,6.569987640E0,-8.071215820E-1,9.336696012E0
4.748445833E-1,6.196514282E0,6.268215179E0,-1.192420349E0,8.894333987E0
4.849145833E-1,6.117328949E0,6.139333191E0,-1.066382446E0,8.732141606E0
4.949835833E-1,6.303841095E0,6.137237549E0,-4.572990417E-1,8.809836531E0
5.050525833E-1,6.533014526E0,6.276148682E0,2.409988403E-1,9.062472153E0
5.151215832E-1,6.634952545E0,6.568041687E0,9.089099121E-1,9.380185718E0
5.251905833E-1,6.740183716E0,7.004683685E0,1.431323547E0,9.825698812E0
5.352595833E-1,6.867419128E0,7.521858215E0,1.617835693E0,1.031296218E1
5.453285833E-1,6.797065430E0,7.941286011E0,1.543290710E0,1.056626084E1
5.553985833E-1,6.464756470E0,8.050558777E0,1.374441833E0,1.041602915E1
5.654675832E-1,6.019582214E0,7.988587646E0,1.149160309E0,1.006843940E1
5.755365833E-1,5.675896912E0,7.894732819E0,8.165519714E-1,9.757528844E0
5.856055833E-1,5.604196014E0,7.802674255E0,3.427871704E-1,9.612816525E0
5.956745833E-1,5.716462555E0,7.756121063E0,-1.353186035E-1,9.636060876E0
6.057435833E-1,5.921536102E0,7.767946472E0,-4.824467468E-1,9.779485522E0
6.158125834E-1,6.168971558E0,7.803871765E0,-7.014413452E-1,9.972394124E0
6.258825833E-1,6.390660553E0,7.722141724E0,-8.578660583E-1,1.006021616E1
6.359515833E-1,6.533762970E0,7.588020630E0,-1.057700500E0,1.006910353E1
6.460205833E-1,6.714437256E0,7.541766815E0,-1.464404755E0,1.020325417E1
6.560895833E-1,6.981931000E0,7.652087402E0,-2.146236877E0,1.057866413E1
6.661582083E-1,7.370672607E0,7.950716400E0,-3.067570953E0,1.126724001E1
6.762272083E-1,7.738158417E0,8.413254547E0,-4.190236359E0,1.217456482E1
6.862962083E-1,7.822283478E0,8.873247986E0,-5.539380798E0,1.306167632E1
6.963662083E-1,7.336693268E0,8.929980011E0,-7.039561157E0,1.353244370E1
7.064352083E-1,6.340664520E0,8.547824707E0,-8.198900299E0,1.343470505E1
7.165042083E-1,5.050497437E0,7.793393555E0,-8.490344238E0,1.258294293E1
7.265732083E-1,3.956721954E0,6.570287018E0,-8.040529633E0,1.111190519E1
7.366422083E-1,3.260370026E0,4.632117462E0,-7.447762299E0,9.357119650E0
7.467112083E-1,2.874023438E0,2.719394989E0,-6.843319244E0,7.904817399E0
7.567802083E-1,2.294877777E0,1.487606506E0,-6.212830353E0,6.788129206E0
7.668502083E-1,1.368154907E0,8.848100281E-1,-5.602399750E0,5.834519654E0
7.769192084E-1,5.122348022E-1,5.535488892E-1,-5.308411102E0,5.361718875E0
7.869882083E-1,-2.215393066E-2,2.311193848E-1,-4.453987885E0,4.460035318E0
7.970572083E-1,5.134323120E-1,5.733078003E-2,-2.165995789E0,2.226754884E0
8.071262083E-1,2.486778717E0,4.540058899E-1,6.494993591E-1,2.609988343E0
8.171952083E-1,4.619693298E0,8.226892090E-1,3.109184418E0,5.628979610E0
8.272642083E-1,5.750142517E0,1.027613068E0,4.732558594E0,7.517794785E0
8.373342083E-1,5.725593567E0,1.485361176E0,5.535638580E0,8.101358775E0
8.474032083E-1,5.182971954E0,2.019300842E0,5.539829865E0,7.850508843E0
8.574722083E-1,5.173990631E0,3.970343628E0,4.501588898E0,7.924525865E0
8.675412083E-1,6.035598907E0,7.272327118E0,1.757046204E0,9.612617086E0
8.776102084E-1,7.708819427E0,9.992171173E0,-4.481231232E0,1.339219232E1
8.876792083E-1,9.106463013E0,1.279194901E1,-1.281769547E1,2.026955710E1
8.977482083E-1,1.008063721E1,1.566941528E1,-1.751178406E1,2.556975562E1
9.078182083E-1,1.083267334E1,1.781400558E1,-1.712184494E1,2.697856892E1
9.178872083E-1,1.057356216E1,1.751866974E1,-1.148337021E1,2.346426640E1
9.279562084E-1,1.021745270E1,1.524385025E1,-4.998854828E0,1.901998580E1
9.380252083E-1,9.614955597E0,1.352961502E1,-2.619702301E0,1.680359170E1
9.480942083E-1,7.846982117E0,1.279898438E1,-2.606080627E0,1.523747963E1
9.581632083E-1,6.359525299E0,1.270797363E1,-2.881507874E0,1.449962908E1
9.682322083E-1,6.601122894E0,1.304926392E1,-2.712958374E0,1.487340766E1
9.783022084E-1,8.148455200E0,1.361224319E1,-1.192420349E0,1.590950512E1
9.883712083E-1,1.007943970E1,1.467847595E1,-5.523513794E-2,1.780606110E1
9.984402083E-1,1.211805038E1,1.626697266E1,-7.026388550E-1,2.029668066E1
1.008509208E0,1.444196777E1,1.786280411E1,-2.614612885E0,2.311896201E1
1.018578208E0,1.683444260E1,1.932915482E1,-4.361180878E0,2.600066503E1
1.028647208E0,1.842353806E1,2.004810974E1,-3.087329865E0,2.740228210E1
1.038716208E0,1.900073776E1,2.015543655E1,-7.520361328E-1,2.770983971E1
1.048786208E0,1.940355011E1,2.047771637E1,5.435197449E-1,2.821577641E1
1.058855208E0,1.944950455E1,2.094279922E1,6.400689697E-1,2.858834998E1
1.068924208E0,1.940190353E1,2.095537308E1,-3.357518005E-1,2.856001139E1
1.078993208E0,1.757405457E1,1.991563522E1,-2.387385406E0,2.666794948E1
1.089062208E0,1.407747574E1,1.760758484E1,-4.893923035E0,2.306843839E1
1.099131208E0,1.028556107E1,1.525432846E1,-5.567372589E0,1.922193905E1
1.109200208E0,7.098089447E0,1.294597870E1,-4.406835938E0,1.540783701E1
1.119270208E0,4.582720184E0,1.040561142E1,-4.373904419E0,1.218232790E1
1.129339208E0,2.183659058E0,7.834557953E0,-5.595813446E0,9.872273969E0
1.139408208E0,3.875440979E-1,5.552852783E0,-6.552623749E0,8.597746359E0
1.149477208E0,-5.855822754E-1,3.688180389E0,-6.298751678E0,7.322557879E0
1.159546208E0,-7.366181946E-1,1.845661926E0,-5.635181580E0,5.975311351E0
1.169615208E0,-2.255809021E-1,-1.128652954E-1,-5.195545807E0,5.201665267E0
1.179684208E0,9.699829102E-1,-2.117796021E0,-5.081483002E0,5.589937059E0
1.189754208E0,2.625091095E0,-3.897744598E0,-6.154451752E0,7.743435450E0
1.199823208E0,5.015919342E0,-4.075125732E0,-7.165898438E0,9.649673414E0
1.209892208E0,6.845265198E0,-2.530787201E0,-6.979086914E0,1.009802920E1
1.219961208E0,5.394931183E0,-1.204694824E0,-4.269721069E0,6.984775594E0
1.230030208E0,2.286495209E0,-4.126918030E-1,-1.380130005E-1,2.327535704E0
1.240099208E0,9.324110413E-1,1.203197937E0,2.429447937E0,2.866930921E0
1.250168208E0,2.544708252E-2,2.488574982E0,3.817062378E0,4.556711335E0
1.260238208E0,-8.695417786E-1,2.386487274E0,4.665647736E0,5.312221118E0
1.270307208E0,-1.374741211E0,1.952090607E0,4.759502563E0,5.324794436E0
1.280376208E0,-1.670526123E0,1.492097168E0,4.412524109E0,4.948472542E0
1.290445208E0,-1.958676910E0,9.892927551E-1,3.940705261E0,4.510462654E0
1.300514208E0,-2.187251587E0,6.388714600E-1,3.569177856E0,4.234531476E0
1.310583208E0,-2.521955566E0,4.519102478E-1,3.331172791E0,4.202522446E0
1.320652208E0,-2.653831329E0,3.716770935E-1,3.202440491E0,4.175714272E0
1.330722208E0,-2.313588867E0,2.839595032E-1,2.912493439E0,3.730408084E0
1.340791208E0,-2.182760925E0,2.356100464E-1,2.494412842E0,3.322958437E0
1.350860208E0,-1.989363098E0,1.827699280E-1,2.030527496E0,2.848510540E0
1.360929208E0,-1.744622040E0,4.475692749E-2,1.659299469E0,2.408107965E0
1.370998208E0,-1.444645844E0,-1.508862305E-1,1.387315063E0,2.008584415E0
1.381067208E0,-1.168919220E0,-3.721261597E-1,1.201551361E0,1.717141722E0
1.391136208E0,-9.081614685E-1,-5.565426636E-1,1.089584198E0,1.523709524E0
1.401206208E0,-6.662644958E-1,-6.957531738E-1,9.692344666E-1,1.366527098E0
1.411275208E0,-4.474195862E-1,-8.274792480E-1,9.337582397E-1,1.325447337E0
1.421344208E0,-2.591111755E-1,-9.298663330E-1,9.993218994E-1,1.389400683E0
1.431413208E0,-1.137634277E-1,-9.363029480E-1,1.112037506E0,1.458160740E0
1.441482208E0,-7.244934082E-2,-8.858578491E-1,1.234183502E0,1.520921416E0
1.451551208E0,-1.097218323E-1,-8.509803772E-1,1.263522491E0,1.527316460E0
1.461620208E0,-9.280700684E-2,-8.408015442E-1,1.180594940E0,1.452365240E0
1.471690208E0,-7.544311523E-2,-7.917036438E-1,9.231303406E-1,1.218464587E0
1.481759208E0,-1.116677856E-1,-7.011419678E-1,5.516029358E-1,8.990748312E-1
1.491828208E0,-4.670288086E-2,-5.481600952E-1,6.945556641E-2,5.545130519E-1
1.501897208E0,7.074288940E-1,7.798782349E-1,8.527766418E-1,1.354951550E0
1.511966208E0,1.852996674E0,3.981570282E0,6.213578796E-1,4.435378698E0
1.522035208E0,-7.035369873E-2,1.529219971E0,-8.077203369E0,8.220990064E0
1.532104208E0,-1.256636810E0,2.409689026E0,-1.862067810E1,1.881795393E1
1.542174208E0,-7.834707642E-1,4.263434143E0,-2.105805954E1,2.149959462E1
1.552243208E0,6.715036011E-1,5.783074036E0,-1.842937592E1,1.932709908E1
1.562312208E0,1.783092041E0,8.676856384E0,-1.326421692E1,1.595013180E1
1.572381208E0,2.765050049E0,1.069091812E1,-5.230722656E0,1.221890713E1
1.582450208E0,2.697390747E0,1.016970200E1,2.998564453E0,1.094029910E1
1.592519208E0,4.642895050E0,1.328726898E1,7.231312408E0,1.582402827E1
1.602588208E0,1.116258728E1,1.888697433E1,8.039481812E0,2.336566759E1
1.612658208E0,2.210737747E1,2.665447174E1,-3.757037201E0,3.483263313E1
1.622727208E0,3.422467941E1,3.823005020E1,-3.232033951E1,6.064214512E1
1.632796208E0,4.355777115E1,4.021222824E1,-1.252864655E1,6.059100356E1
1.642865208E0,4.327336258E1,3.612392990E1,7.056326294E0,5.680945310E1
1.652934208E0,2.914334610E1,3.168790466E1,6.324348450E-1,4.305645013E1
1.663003333E0,1.591939545E1,2.274984146E1,6.822811890E-1,2.777495176E1
1.673073333E0,1.321586746E1,1.553170166E1,-3.252885590E0,2.065125115E1
1.683142333E0,1.349548599E1,1.228794708E1,-4.376449127E0,1.876899285E1
1.693211333E0,1.504326736E1,1.138472534E1,-2.329156494E-1,1.886706426E1
1.703280333E0,1.906211014E1,1.073402847E1,-2.776426392E0,2.205202833E1
1.713349333E0,2.197580109E1,1.121497833E1,-5.089566193E0,2.519157114E1
1.723418333E0,2.220617203E1,1.330478256E1,-4.472698975E0,2.627044635E1
1.733487333E0,2.270553360E1,1.526585449E1,-2.962639160E0,2.752026163E1
1.743557333E0,2.271690994E1,1.647144745E1,-1.932182007E0,2.812649828E1
1.753626333E0,2.192460754E1,1.695404388E1,-2.436483307E0,2.782201414E1
1.763695333E0,1.940340042E1,1.731614090E1,-4.375101929E0,2.637199652E1
1.773764333E0,1.659449158E1,1.758632904E1,-6.528374176E0,2.504547443E1
1.783833333E0,1.407463165E1,1.699984863E1,-6.823859711E0,2.310097771E1
1.793902333E0,1.092937225E1,1.567794754E1,-5.805826721E0,1.997390400E1
1.803971333E0,7.401508484E0,1.322005875E1,-5.486989746E0,1.611394854E1
1.814040333E0,4.116290131E0,1.005519012E1,-6.844217377E0,1.284110604E1
1.824110333E0,1.357077942E0,6.712491302E0,-9.647587738E0,1.183110938E1
1.834179333E0,-1.475930786E-1,4.428840179E0,-1.065454376E1,1.153931158E1
1.844248333E0,-3.885919189E-1,3.334316254E0,-7.832761688E0,8.521785272E0
1.854317333E0,-1.713935852E-1,2.571203156E0,-3.576811981E0,4.408406217E0
1.864386333E0,5.325924683E-1,1.313368835E0,-7.524851990E-1,1.604626564E0
1.874455333E0,7.767347717E-1,-3.409909058E-1,2.996768188E-1,8.996654374E-1
1.884524333E0,8.631051636E-1,-1.788181458E0,7.325765991E-1,2.116414875E0
1.894594333E0,9.255253601E-1,-2.327210541E0,1.667981415E0,3.009097555E0
1.904663333E0,6.875202942E-1,-1.757195892E0,3.118914185E0,3.645277390E0
1.914732333E0,3.902384949E-1,-6.231541443E-1,4.316723328E0,4.378893406E0
1.924801333E0,4.156855774E-1,3.164419556E-1,4.647385712E0,4.676657349E0
1.934870333E0,5.852828979E-1,5.951623535E-1,4.249662781E0,4.330866893E0
1.944939333E0,4.270619202E-1,3.710783386E-1,3.353476410E0,3.400865338E0
1.955009333E0,2.113604736E-1,5.014572144E-2,2.374212799E0,2.384129665E0
1.965078333E0,1.916015625E-2,-2.842588806E-1,1.523232422E0,1.549647455E0
1.975147333E0,-1.347198486E-1,-7.291337585E-1,9.157955933E-1,1.178332315E0
1.985216333E0,-2.615061951E-1,-1.130149841E0,5.984555054E-1,1.305286614E0
1.995285333E0,-3.791615295E-1,-1.465153198E0,6.155200195E-1,1.633799943E0
2.005354333E0,-4.608915710E-1,-1.709594879E0,9.952803040E-1,2.031186494E0
2.015423333E0,-3.875440979E-1,-1.755998383E0,1.494791565E0,2.338401713E0
2.025493333E0,-3.125500488E-1,-1.720971222E0,2.168091431E0,2.785686618E0
2.035562333E0,-2.013313293E-1,-1.779349823E0,2.850522308E0,3.366318097E0
2.045631333E0,-6.975494385E-2,-1.888472900E0,3.233725433E0,3.745420647E0
2.055700333E0,1.122665405E-1,-1.977837067E0,3.229534149E0,3.788711398E0
2.065769333E0,3.549119568E-1,-2.051783295E0,2.994971924E0,3.647688859E0
2.075838333E0,5.194198608E-1,-2.080673218E0,2.555186462E0,3.335862091E0
2.085907333E0,5.526507568E-1,-2.127525787E0,2.089953918E0,3.033100100E0
2.095977333E0,6.415658569E-1,-2.129920807E0,1.791474609E0,2.856142620E0
2.106046333E0,6.527925110E-1,-2.076332245E0,1.574425964E0,2.686281960E0
2.116115333E0,5.745053101E-1,-2.019151154E0,1.459465027E0,2.556768644E0
2.126184333E0,3.100053406E-1,-1.916764069E0,1.373394012E0,2.378297483E0
2.136253333E0,-1.496887207E-2,-1.665436707E0,1.311871948E0,2.120120633E0
2.146322333E0,-1.794767761E-1,-1.410067749E0,1.206341400E0,1.864339707E0
2.156391333E0,-2.960842896E-1,-1.188378754E0,9.735754395E-1,1.564531593E0
2.166461333E0,-1.664538574E-1,-8.035290527E-1,4.745132446E-1,9.479075084E-1
2.176530333E0,1.251397705E-1,-3.152444458E-1,1.496887207E-3,3.391773333E-1
2.186599333E0,3.760180664E-1,2.029779053E-1,-6.451583862E-2,4.321480183E-1
2.196668333E0,1.184636536E0,2.303110657E0,1.659898224E0,3.076189938E0
2.206737333E0,1.563049622E0,3.125650177E0,8.240364075E-1,3.590522128E0
2.216806333E0,1.539398804E0,2.201921082E0,-4.157005463E0,4.949636304E0
2.226875333E0,1.508263550E0,1.153052216E0,-1.743514343E1,1.753820444E1
2.236945333E0,3.960314484E0,7.604187012E-2,-2.279010773E1,2.313177216E1
2.247014333E0,8.216413879E0,2.330354004E0,-2.353241409E1,2.503426691E1
2.257083333E0,1.069376221E1,6.875053253E0,-2.935335938E1,3.198816365E1
2.267152333E0,9.945767670E0,7.650889893E0,-2.259371613E1,2.584434985E1
2.277221333E0,8.667575684E0,7.415878601E0,-1.250903732E1,1.692920962E1
2.287290333E0,8.832083588E0,9.328900452E0,-3.971241760E0,1.344636922E1
2.297359333E0,9.416168976E0,1.104433319E1,5.145549774E0,1.539864333E1
2.307429333E0,1.040067169E1,1.648911072E1,4.909790039E0,2.010399916E1
2.317498333E0,1.573213486E1,2.736938507E1,-4.084107056E0,3.183179600E1
2.327567333E0,2.403656570E1,2.773642181E1,-8.546327820E0,3.768428459E1
2.337636333E0,2.865700745E1,2.176429092E1,-5.749394073E0,3.644123993E1
2.347705333E0,2.774151123E1,2.021231827E1,-1.150492538E1,3.620072600E1
2.357774333E0,2.059851517E1,2.053863968E1,-2.400483170E1,3.771427438E1
2.367843333E0,1.349608475E1,1.642654083E1,-1.918620209E1,2.863714193E1
2.377913333E0,1.060379929E1,1.317410431E1,-6.933880920E0,1.827775392E1
2.387982333E0,8.325087891E0,1.206236618E1,-3.029699707E0,1.496619012E1
2.398051333E0,6.674769745E0,1.283835251E1,-2.679577789E0,1.471584124E1
2.408120333E0,5.810916138E0,1.423809174E1,-2.577789459E0,1.559278683E1
2.418189333E0,5.784870300E0,1.478460526E1,-2.509381714E0,1.607315381E1
2.428258333E0,8.513096924E0,1.488654327E1,-2.430795135E0,1.732024119E1
2.438327333E0,1.159818146E1,1.556837540E1,-3.406166840E0,1.971025363E1
2.448397333E0,1.376537476E1,1.665646271E1,-4.915478210E0,2.216044264E1
2.458466333E0,1.550565582E1,1.667517380E1,-5.785319366E0,2.349375883E1
2.468535333E0,1.644046188E1,1.534533920E1,-6.407575378E0,2.338429482E1
2.478604333E0,1.622700577E1,1.354802673E1,-6.547234955E0,2.212986738E1
2.488673333E0,1.538201294E1,1.190878555E1,-6.468199310E0,2.050031945E1
2.498742333E0,1.499596573E1,1.089509354E1,-6.181096344E0,1.953939619E1
2.508811333E0,1.496707581E1,1.064196991E1,-4.877756653E0,1.900151025E1
2.518881333E0,1.499491791E1,1.131182693E1,-3.246898041E0,1.906167198E1
2.528950333E0,1.508922180E1,1.268357437E1,-2.178419952E0,1.983187301E1
2.539019333E0,1.534818329E1,1.436068680E1,-1.873803406E0,2.110230307E1
2.549088333E0,1.545625854E1,1.605471405E1,-2.665956116E0,2.244453371E1
2.559157333E0,1.402718033E1,1.689641373E1,-4.106260986E0,2.234081386E1
2.569226333E0,1.176643158E1,1.655257874E1,-5.228776703E0,2.097085789E1
2.579295333E0,8.570727081E0,1.519969208E1,-5.918841705E0,1.842608719E1
2.589365333E0,5.841901703E0,1.296618668E1,-6.206992493E0,1.551697677E1
2.599434333E0,3.495980072E0,1.030726593E1,-6.261778564E0,1.255673040E1
2.609503333E0,1.914668427E0,7.449259186E0,-5.972879333E0,9.738208518E0
2.619572333E0,9.135502625E-1,4.669539642E0,-6.023474121E0,7.676028598E0
2.629641333E0,1.514849854E-1,2.163451080E0,-6.191574554E0,6.560416430E0
2.639710333E0,-1.216969299E-1,3.224295044E-1,-5.272934875E0,5.284185191E0
2.649779333E0,5.577401733E-1,-7.620652771E-1,-3.392245789E0,3.521242547E0
2.659849333E0,1.499581604E0,-1.327589264E0,-9.312135315E-1,2.208709325E0
2.669917958E0,2.245031433E0,-1.501826935E0,9.160949707E-1,2.852171151E0
2.679986958E0,3.247496796E0,-2.564616852E0,1.515598297E0,4.406873408E0
2.690055958E0,4.572840729E0,-4.150269470E0,1.787283325E0,6.428840540E0
2.700124958E0,5.798192596E0,-5.165458374E0,2.268532562E0,8.089946699E0
2.710193958E0,6.114185486E0,-4.636757812E0,1.922302551E0,7.910627931E0
2.720262958E0,4.696184235E0,-3.579506378E0,1.112187195E0,6.008658139E0
2.730332958E0,2.612966309E0,-2.736609192E0,9.475296021E-2,3.784917558E0
2.740401958E0,1.312321014E0,-1.726210327E0,-4.358935547E-1,2.211784738E0
2.750470958E0,5.471122742E-1,-9.776170349E-1,-2.278262329E-1,1.143228630E0
2.760539958E0,-1.511856079E-1,-6.500981140E-1,8.008346558E-2,6.722335958E-1
2.770608958E0,-6.393205261E-1,-2.836601257E-1,4.704716492E-1,8.429337902E-1
2.780677958E0,-1.009051666E0,6.825805664E-2,8.987310791E-1,1.352982624E0
2.790747958E0,-1.204395447E0,3.517684937E-1,1.366658020E0,1.855279927E0
2.800816958E0,-1.280736694E0,5.080435181E-1,1.741628265E0,2.220734948E0
2.810885958E0,-1.306632843E0,6.033952332E-1,1.956281891E0,2.428665072E0
2.820954958E0,-1.439257050E0,6.602769470E-1,1.975142670E0,2.531524258E0
2.831023958E0,-1.570983124E0,7.026388550E-1,1.754800873E0,2.457847725E0
2.841092958E0,-1.550176392E0,7.438032532E-1,1.422192535E0,2.231349756E0
2.851161958E0,-1.533111877E0,7.066804504E-1,1.096769257E0,2.013139859E0
2.861231958E0,-1.458267517E0,6.372248840E-1,9.131011963E-1,1.834762518E0
2.871300958E0,-1.358125763E0,5.414241028E-1,7.622149658E-1,1.648823005E0
2.881369958E0,-1.276844788E0,4.153862000E-1,5.731581116E-1,1.459927576E0
2.891438958E0,-1.159937897E0,2.853067017E-1,4.556524658E-1,1.278465881E0
2.901507958E0,-1.077908478E0,1.483415222E-1,3.876937866E-1,1.155075048E0
2.911576958E0,-1.016835480E0,7.080276489E-2,2.881507874E-1,1.059244212E0
2.921645958E0,-1.000220032E0,5.388793945E-2,2.589614868E-1,1.034603824E0
2.931715958E0,-9.940827942E-1,7.619155884E-2,2.698887634E-1,1.032882229E0
2.941784958E0,-9.867480469E-1,1.219963074E-1,2.742297363E-1,1.031385842E0
2.951853958E0,-1.018032990E0,1.981878662E-1,2.936892700E-1,1.077925315E0
2.961922958E0,-1.048120422E0,2.676434326E-1,3.290158081E-1,1.130681577E0
2.971991958E0,-8.807684326E-1,2.418969727E-1,4.164340210E-1,1.003834882E0
2.982060958E0,-2.200424194E-2,6.062393188E-1,9.009764099E-1,1.086171621E0
2.992129958E0,1.394949188E0,2.750979309E0,1.740430756E0,3.541591395E0
3.002199958E0,9.153465271E-1,3.024011536E0,2.414479065E-1,3.168722475E0
3.012268958E0,-6.765930176E-1,1.416803741E0,-5.893244934E0,6.098806999E0
3.022337958E0,-1.860181732E0,3.888014832E0,-2.081122284E1,2.125285702E1
3.032406958E0,-7.497908020E-1,4.806504822E0,-1.490016495E1,1.567416953E1
3.042475958E0,1.096619568E0,4.841232605E0,-8.676557007E0,9.996136709E0
3.052544958E0,6.267466736E-1,5.604345703E0,-2.643802185E0,6.228257553E0
3.062613958E0,-1.143621826E-1,6.488556976E0,6.694229279E0,9.323473386E0
3.072683958E0,5.812413025E-1,1.331361420E1,8.242609406E0,1.566942163E1
3.082752958E0,3.073558502E0,3.122940811E1,2.814597015E0,3.150626365E1
3.092821958E0,1.941462708E0,4.359115173E1,-3.110786087E1,5.358784186E1
3.102890958E0,6.820716248E0,4.810411697E1,-2.874038406E1,5.644942795E1
3.112959958E0,1.316901489E1,3.700469833E1,1.587688385E1,4.236562395E1
3.123028958E0,1.492680954E1,3.616314835E1,2.444416809E0,3.919895553E1
3.133097958E0,1.290705963E1,3.769401489E1,-2.539783493E1,4.724913720E1
3.143167958E0,5.213957520E0,3.237916718E1,-8.461903381E0,3.387033553E1
3.153236958E0,1.218166809E0,2.480312164E1,3.164718933E0,2.503386146E1
3.163305958E0,2.178869019E0,1.940938797E1,-7.425308990E0,2.089514358E1
3.173374958E0,3.651057587E0,1.705673035E1,-1.135793106E1,2.081501548E1
3.183443958E0,5.347629547E0,1.711106735E1,-6.620283051E0,1.911057078E1
3.193512958E0,7.325316925E0,1.868489456E1,-6.186335449E0,2.100134041E1
3.203581958E0,8.158634033E0,2.076302307E1,-7.485034790E0,2.353066472E1
3.213651958E0,7.867190094E0,2.225601837E1,-6.132746887E0,2.438921110E1
3.223720958E0,6.991660767E0,2.202385117E1,-4.813091125E0,2.360294869E1
3.233789958E0,5.645659790E0,2.099668716E1,-4.282294922E0,2.216015334E1
3.243858958E0,4.358935547E0,2.023013123E1,-3.879332886E0,2.105487478E1
3.253927958E0,3.873644714E0,2.005619293E1,-2.320324860E0,2.055820775E1
3.263996958E0,3.494932251E0,2.066886887E1,-7.123686218E-1,2.097436914E1
3.274065958E0,3.467688904E0,2.197026260E1,-1.281335449E-1,2.224261054E1
3.284135958E0,3.873345337E0,2.330234253E1,1.907034302E-1,2.362283512E1
3.294204958E0,4.057911530E0,2.328572708E1,3.408412170E-1,2.363911810E1
3.304273958E0,3.973337402E0,2.125145737E1,-3.378474426E-1,2.162234935E1
3.314342958E0,3.113375702E0,1.823448120E1,-1.031504974E0,1.852709949E1
3.324411958E0,1.467099152E0,1.476604385E1,-2.303559723E0,1.501648489E1
3.334480958E0,-7.394622803E-1,1.087563400E1,-5.146597595E0,1.205461265E1
3.344549958E0,-2.258054352E0,6.842870178E0,-8.738827515E0,1.132655235E1
3.354619958E0,-2.065854034E0,2.986888733E0,-1.122530685E1,1.179816813E1
3.364688958E0,2.574645996E-2,-2.944377136E-1,-1.216190918E1,1.216550004E1
3.374757958E0,3.867507477E0,-1.605710907E0,-1.027822632E1,1.109855206E1
3.384826958E0,7.803871765E0,-2.877017212E-1,-6.365961914E0,1.007515051E1
3.394895958E0,9.466165009E0,1.576371918E0,-3.372786255E0,1.017196714E1
3.404964958E0,9.170230408E0,2.604883118E0,-3.494183807E0,1.015321931E1
3.415033958E0,7.588769073E0,2.809058533E0,-2.930456085E0,8.606265088E0
3.425103958E0,4.321213989E0,2.146087189E0,1.265468445E0,4.987984658E0
3.435172958E0,1.596879272E0,2.390229492E0,4.817432098E0,5.609890592E0
3.445241958E0,5.879772949E-1,2.138153687E0,5.715414734E0,6.130528857E0
3.455310958E0,-2.556683350E-1,9.979747009E-1,5.801485748E0,5.892245471E0
3.465379958E0,-9.593550110E-1,-1.523831177E-1,5.083279266E0,5.175259486E0
3.475448958E0,-1.347797241E0,-9.157955933E-1,4.003574524E0,4.322481688E0
3.485517958E0,-1.433269501E0,-1.109193420E0,3.075055389E0,3.569388905E0
3.495587958E0,-1.414109344E0,-1.097667389E0,2.494412842E0,3.070288970E0
3.505656958E0,-1.375339966E0,-1.037642212E0,2.210303650E0,2.802446004E0
3.515725958E0,-1.422042847E0,-1.002615051E0,2.155816956E0,2.770377148E0
3.525794958E0,-1.499731293E0,-1.063688049E0,2.380799103E0,3.008127422E0
3.535863958E0,-1.434766388E0,-1.111289062E0,2.364483032E0,2.980653951E0
3.545932958E0,-1.221609650E0,-1.154249725E0,2.227517853E0,2.790422611E0
3.556001958E0,-8.509803772E-1,-1.164129181E0,2.211351471E0,2.639969636E0
3.566071958E0,-3.784130859E-1,-1.143172760E0,2.116897888E0,2.435425444E0
3.576140958E0,2.484832764E-2,-1.071022797E0,2.008822632E0,2.276636914E0
3.586209958E0,3.725752258E-1,-9.812095642E-1,1.884281616E0,2.156873134E0
3.596278958E0,6.463558960E-1,-9.160949707E-1,1.785936127E0,2.108690065E0
3.606347958E0,8.626560974E-1,-9.012757874E-1,1.648222504E0,2.067150456E0
3.616416958E0,1.011596375E0,-8.907975769E-1,1.425036621E0,1.961524132E0
3.626485958E0,1.056652679E0,-8.545729065E-1,1.234183502E0,1.835761056E0
3.636555958E0,1.041234741E0,-8.226892090E-1,1.067729645E0,1.703242178E0
3.646624958E0,9.991722107E-1,-8.080197144E-1,8.333171082E-1,1.531554233E0
3.656693958E0,9.261241150E-1,-8.036787415E-1,5.869294739E-1,1.359445329E0
3.666763375E0,8.217910767E-1,-8.258326721E-1,2.863545227E-1,1.199724589E0
3.676832375E0,6.950047302E-1,-8.481362915E-1,8.981323242E-4,1.096525217E0
3.686901375E0,5.412744141E-1,-8.270301819E-1,-2.122586060E-1,1.010945413E0
3.696970375E0,3.417393494E-1,-7.788304138E-1,-3.351530457E-1,9.141609051E-1
3.707040375E0,1.652563477E-1,-6.985972595E-1,-4.887336731E-1,8.684517227E-1
3.717109375E0,4.490661621E-2,-6.026467896E-1,-6.456074524E-1,8.843125803E-1
3.727178375E0,-1.799258423E-1,-3.203338623E-1,-1.821711731E-1,4.100895370E-1
3.737247375E0,-7.523355103E-1,9.077124023E-1,1.799258423E0,2.151111666E0
3.747316375E0,-1.345701599E-1,6.984475708E-1,1.089733887E0,1.301329351E0
3.757385375E0,5.536985779E-1,-1.076261902E-1,-9.157955933E-1,1.075568259E0
3.767455375E0,1.229692841E0,-6.236032104E-1,-2.958747253E0,3.264232032E0
3.777524375E0,1.705104218E0,-1.008901978E0,-4.109404449E0,4.562068448E0
3.787593375E0,1.323397980E0,-4.477189636E-1,-4.021088104E0,4.256874913E0
3.797662375E0,8.080197144E-1,7.015910339E-1,-5.963149567E0,6.058405615E0
3.807731375E0,-1.246607666E0,7.352859650E0,-3.963038818E1,4.032599959E1
3.817800375E0,-1.163530426E0,1.163964523E1,-4.850363617E1,4.989426686E1
3.827869375E0,-2.526745605E-1,5.763315125E0,-8.228688354E0,1.004942574E1
3.837939375E0,-1.338516541E0,3.995191956E0,2.729873199E0,5.020497284E0
3.848008375E0,-3.876937866E-1,1.144894180E1,1.712139587E0,1.158274565E1
3.858077375E0,-1.754351807E-1,2.574526245E1,6.672225037E0,2.659638891E1
3.868146375E0,2.022893372E0,3.840743134E1,1.467323685E1,4.116462995E1
3.878215375E0,6.804998932E0,5.335325134E1,8.940458221E0,5.452347414E1
3.888284375E0,4.196523285E0,6.848378723E1,-4.926974304E1,8.446980230E1
3.898353375E0,6.047424316E-1,5.586577652E1,-1.750310211E1,5.854664195E1
3.908423375E0,-1.578168182E0,3.493180893E1,2.249926254E1,4.158050871E1
3.918492375E0,-9.923913116E0,2.001472916E1,-4.181853790E0,2.272798574E1
3.928561375E0,-1.270797363E1,1.285317169E1,-1.026146118E1,2.078447021E1
3.938630375E0,-9.981842651E0,1.232806366E1,1.511407013E0,1.593432419E1
3.948699375E0,-8.749455414E0,1.301528458E1,1.478774872E0,1.575237689E1
3.958768375E0,-9.805808716E0,1.641561356E1,-3.432811432E0,1.942705452E1
3.968837375E0,-6.914870453E0,2.355366989E1,-8.644673309E0,2.602539482E1
3.978907375E0,-1.052311707E0,2.881537811E1,-5.342540131E0,2.932534929E1
3.988976375E0,1.935175781E0,2.900952438E1,-2.943928070E0,2.922266454E1
3.999045375E0,2.418370972E0,2.606903915E1,-6.385870514E0,2.694851875E1
4.009114375E0,1.224154358E0,2.248758682E1,-7.417225800E0,2.371086995E1
4.019183375E0,3.788621521E-1,1.952674393E1,-5.838608551E0,2.038446994E1
4.029252375E0,6.860234070E-1,1.745415390E1,-5.040168915E0,1.818024805E1
4.039321375E0,1.401685181E0,1.674103683E1,-4.613855438E0,1.742167322E1
4.049391375E0,1.617087250E0,1.788196426E1,-3.643124084E0,1.832080703E1
4.059460375E0,7.943980408E-1,1.938813217E1,-2.901266785E0,1.962009394E1
4.069529375E0,8.622070312E-2,2.063938019E1,-2.134710846E0,2.074966118E1
4.079598375E0,-2.544708252E-1,2.112571884E1,-1.732796631E0,2.119819181E1
4.089667375E0,-1.433568878E0,2.026261368E1,-1.349443817E0,2.035803604E1
4.099736375E0,-2.544558563E0,1.818268890E1,-9.515711975E-1,1.838451636E1
4.109805375E0,-2.867586823E0,1.581042206E1,-9.717791748E-1,1.609772824E1
4.119875375E0,-2.643353119E0,1.257310410E1,-2.003433838E0,1.300323073E1
4.129944375E0,-2.221979370E0,8.813821564E0,-4.009711761E0,9.934708415E0
4.140013375E0,-1.886826324E0,5.055736542E0,-6.180347900E0,8.204711191E0
4.150082375E0,-2.084265747E0,2.031126251E0,-6.919361115E0,7.506476922E0
4.160151375E0,-2.424957275E0,-2.544708252E-3,-5.854026489E0,6.336406742E0
4.170220375E0,-2.645598450E0,-9.568103027E-1,-4.083657990E0,4.958925255E0
4.180289375E0,-2.569406891E0,-1.110540619E0,-2.343526611E0,3.650653259E0
4.190359375E0,-2.192341003E0,-9.526190186E-1,-4.182302856E-1,2.426676460E0
4.200428375E0,-1.837878113E0,-7.328759766E-1,1.519789581E0,2.494927559E0
4.210497375E0,-1.622476044E0,-5.057981873E-1,2.794987793E0,3.271118628E0
4.220566375E0,-1.520088959E0,-2.094145203E-1,3.166215820E0,3.518443904E0
4.230635375E0,-1.304387512E0,-3.125500488E-1,3.030298462E0,3.313883384E0
4.240704375E0,-1.023870850E0,-3.730242920E-1,2.525997162E0,2.751021683E0
4.250773375E0,-6.623725891E-1,1.224453735E-1,1.819167023E0,1.939870865E0
4.260843375E0,-5.080435181E-1,4.945715332E-1,1.155596924E-1,7.183754312E-1
4.270912375E0,-3.833528137E-1,3.276686096E-1,-2.539918213E0,2.589500073E0
4.280981375E0,-4.400848389E-1,-2.203417969E-1,-4.238585815E0,4.267063966E0
4.291050375E0,-1.733395386E-1,-1.369801483E0,-3.814218292E0,4.056434873E0
4.301119375E0,1.718426514E-1,-1.684896240E0,-2.619402924E0,3.119243003E0
4.311188375E0,1.586700439E-1,-1.274449768E0,-1.541344757E0,2.006275668E0
4.321257375E0,4.355941772E-2,-1.033600616E0,-6.207591248E-1,1.206469870E0
4.331327375E0,-1.330732727E-1,-8.819659424E-1,-1.287322998E-2,8.920415570E-1
4.341396375E0,-2.589614868E-1,-7.722441101E-1,9.969268799E-2,8.205855527E-1
4.351465375E0,-2.851570129E-1,-6.668632507E-1,2.290237427E-2,7.256346436E-1
4.361534375E0,-4.314028931E-1,-6.448590088E-1,7.244934082E-2,7.792307132E-1
4.371603375E0,-5.846841431E-1,-5.542973328E-1,3.803590393E-1,8.909399974E-1
4.381672375E0,-5.565426636E-1,-4.309538269E-1,8.156538391E-1,1.077382069E0
4.391741375E0,-2.698887634E-1,-4.385879517E-1,1.457818451E0,1.546102834E0
4.401811375E0,9.654922485E-2,-4.210743713E-1,2.093546448E0,2.137653412E0
4.411880375E0,5.062472534E-1,-3.061134338E-1,2.590812378E0,2.657498917E0
4.421949375E0,9.160949707E-1,-1.853146362E-1,2.992127838E0,3.134708999E0
4.432018375E0,1.171763306E0,-4.340972900E-2,3.134781189E0,3.346904055E0
4.442087375E0,1.151555328E0,1.320254517E-1,2.916684723E0,3.138560206E0
4.452156375E0,1.079405365E0,2.426454163E-1,2.555036774E0,2.784278301E0
4.462225375E0,1.114282837E0,3.152444458E-1,2.158810730E0,2.449789597E0
4.472295375E0,1.175655212E0,4.092489624E-1,1.672621765E0,2.085021214E0
4.482364375E0,1.144370270E0,4.851411438E-1,1.216071167E0,1.738900321E0
4.492433375E0,1.046473846E0,5.701643372E-1,9.045689392E-1,1.496141654E0
4.502502375E0,9.288185120E-1,6.379733276E-1,7.003935242E-1,1.326749744E0
4.512571375E0,9.015751648E-1,6.899153137E-1,6.113287354E-1,1.289396658E0
4.522640375E0,9.713301086E-1,7.069798279E-1,5.626799011E-1,1.326616496E0
4.532709375E0,9.898915100E-1,6.544390869E-1,4.022135925E-1,1.252977052E0
4.542779375E0,9.889933777E-1,6.849755859E-1,2.249821472E-1,1.223893958E0
4.552848375E0,7.988887024E-1,1.861828308E0,1.106349335E0,2.308383993E0
4.562917375E0,1.582209778E-1,6.062243500E0,-1.576072540E0,6.265766895E0
4.572986375E0,-6.026467896E-1,1.462024704E1,-2.081167191E1,2.544092165E1
4.583055375E0,-1.493893433E-1,2.168196213E1,-3.499812103E1,4.117035675E1
4.593124375E0,2.567161560E-1,2.101450012E1,-1.379680939E1,2.514014852E1
4.603194375E0,-2.288890228E0,2.351085892E1,3.172652435E0,2.383411901E1
4.613263375E0,-3.840713196E0,2.947550537E1,1.003767654E1,3.137373814E1
4.623332375E0,-1.745520172E0,3.670981155E1,2.565964050E0,3.684075565E1
4.633401375E0,2.999163208E0,4.471950531E1,-3.859169815E1,5.914514605E1
4.643470375E0,2.876717834E0,4.315151596E1,-3.368490189E1,5.481789352E1
4.653539375E0,-7.966433716E-1,3.273647415E1,6.946005707E0,3.347474236E1
4.663607708E0,-2.956651611E0,2.542792236E1,5.323829041E0,2.614697268E1
4.673677708E0,-4.645888824E0,2.140114609E1,-6.513554993E0,2.284775121E1
4.683746708E0,-4.453987885E0,1.735431152E1,-1.004321503E1,2.053962766E1
4.693815708E0,-3.627556458E0,1.482591934E1,-5.970933380E0,1.638960328E1
4.703884708E0,-3.792064362E0,1.389575363E1,-5.933960266E0,1.557830561E1
4.713953708E0,-2.392624512E0,1.538635391E1,-4.467310181E0,1.619942589E1
4.724022708E0,-6.378236389E-1,1.814930832E1,-5.664221191E-1,1.816934356E1
4.734091708E0,2.496807861E-1,2.040781174E1,-3.691024475E0,2.074041422E1
4.744161708E0,8.158035278E-2,2.334814728E1,-1.048853897E1,2.559593887E1
4.754230708E0,-1.010398865E-1,2.589764557E1,-1.003677841E1,2.777472189E1
4.764299708E0,-4.225712585E-1,2.642589706E1,-5.124144287E0,2.692143118E1
4.774368708E0,-9.574090576E-1,2.516162613E1,-2.658321991E0,2.531976969E1
4.784437708E0,-1.102008362E0,2.395947601E1,-2.389630737E0,2.410355261E1
4.794506708E0,-1.366807709E0,2.270688080E1,-1.352886658E0,2.278817459E1
4.804575708E0,-1.856140137E0,2.131896698E1,1.718426514E-1,2.140030699E1
4.814645708E0,-2.267335052E0,1.986998016E1,8.735833740E-1,2.001799360E1
4.824714708E0,-1.960323486E0,1.845257767E1,-1.496887207E-3,1.855641380E1
4.834783708E0,-1.321601715E0,1.696871338E1,-1.138532410E0,1.705813943E1
4.844852708E0,-1.244362335E0,1.536644531E1,-1.555565186E0,1.549502702E1
4.854921708E0,-1.260528717E0,1.349847977E1,-1.111289062E0,1.360267812E1
4.864990708E0,-1.235530701E0,1.122605530E1,-8.253836060E-1,1.132396184E1
4.875059708E0,-1.212029572E0,8.585396576E0,-2.009421387E0,8.900327205E0
4.885129708E0,-1.242865448E0,5.613626404E0,-5.933361511E0,8.262099899E0
4.895198708E0,-1.412762146E0,1.764231262E0,-1.085587509E1,1.108866236E1
4.905267708E0,-1.048419800E0,-1.885628815E0,-1.100242035E1,1.121195940E1
4.915336708E0,1.284029846E0,-1.840123444E0,-6.944808197E0,7.298297598E0
4.925405708E0,3.333118744E0,1.180295563E0,-3.789369965E0,5.182866283E0
4.935474708E0,3.171604614E0,3.287164307E0,-1.877246246E0,4.938479369E0
4.945543708E0,3.389701080E0,4.309538269E0,-2.405497742E-1,5.488174350E0
4.955613708E0,4.528532867E0,4.858895874E0,1.116827545E0,6.735264123E0
4.965682708E0,5.078788605E0,4.597090302E0,2.245779877E0,7.209081785E0
4.975751708E0,3.766617279E0,3.608845367E0,2.472408600E0,5.772692171E0
4.985820708E0,2.175276489E0,2.705324249E0,2.048340454E0,4.030670628E0
4.995889708E0,1.263073425E0,2.003733215E0,1.902094574E0,3.037805959E0
5.005958708E0,5.312452698E-1,9.364526367E-1,1.797761536E0,2.095497940E0
5.016027708E0,-6.047424316E-2,-9.475296021E-2,1.702260132E0,1.705967413E0
5.026097708E0,-5.662724304E-1,-7.333250427E-1,1.671723633E0,1.911305833E0
5.036166708E0,-8.872050476E-1,-9.702822876E-1,1.826501770E0,2.250486443E0
5.046235708E0,-1.113235016E0,-1.047222290E0,2.032772827E0,2.543252267E0
5.056304708E0,-1.333277435E0,-1.119821320E0,2.171683960E0,2.783494158E0
5.066373708E0,-1.465751953E0,-1.156944122E0,2.141446838E0,2.841257301E0
5.076442708E0,-1.551822968E0,-1.161285095E0,2.117047577E0,2.870301036E0
5.086511708E0,-1.571881256E0,-1.170266418E0,2.024839325E0,2.817855295E0
5.096581708E0,-1.495240631E0,-1.182391205E0,2.016606445E0,2.774976588E0
5.106650708E0,-1.414408722E0,-1.199156342E0,2.094893646E0,2.797696794E0
5.116719708E0,-1.304088135E0,-1.191222839E0,2.118993530E0,2.758585017E0
5.126788708E0,-1.143023071E0,-1.185085602E0,2.117496643E0,2.682297832E0
5.136857708E0,-9.957293701E-1,-1.140328674E0,2.019600220E0,2.524007035E0
5.146926708E0,-8.566685486E-1,-1.077609100E0,1.742676086E0,2.220820190E0
5.156995708E0,-7.128176880E-1,-9.859996033E-1,1.534908142E0,1.958634034E0
5.167065708E0,-5.019062805E-1,-9.199868774E-1,1.469344482E0,1.804787793E0
5.177134708E0,-1.603166199E-1,-8.155041504E-1,1.462608490E0,1.682252072E0
5.187203708E0,3.535647583E-1,-5.725593567E-1,1.419647827E0,1.571060854E0
5.197272708E0,7.560777283E-1,-2.583627319E-1,1.498833160E0,1.698501008E0
5.207341708E0,1.099313965E0,8.008346558E-2,1.514700165E0,1.873291527E0
5.217410708E0,1.357676697E0,3.441343689E-1,1.482966156E0,2.039829183E0
5.227479708E0,1.515448608E0,4.974156189E-1,1.345102844E0,2.086458349E0
5.237549708E0,1.630409546E0,5.674699402E-1,1.131197662E0,2.063944178E0
5.247618708E0,1.634301453E0,5.908213806E-1,9.108558655E-1,1.962057479E0
5.257687708E0,1.604962463E0,6.087840271E-1,6.857240295E-1,1.848442573E0
5.267756708E0,1.554667053E0,6.475534058E-1,3.761677551E-1,1.725635315E0
5.277825708E0,1.324445801E0,1.016685791E0,6.749464417E-1,1.800932918E0
5.287894708E0,-1.947450256E-1,5.229225769E0,9.248667297E0,1.062640930E1
5.297963708E0,2.176024933E0,2.486778717E0,5.605543213E0,6.507016798E0
5.308033708E0,5.865253143E0,-2.266137543E0,-1.067310516E1,1.238756423E1
5.318102708E0,1.294972092E1,4.488565979E0,-4.381957672E1,4.591293718E1
5.328171708E0,1.169428162E1,8.197702789E0,-2.890234726E1,3.223824174E1
5.338240708E0,1.355610992E1,1.437026688E1,-2.319696167E1,3.046919292E1
5.348309708E0,1.907094177E1,2.041275146E1,-3.042647781E1,4.130559036E1
5.358378708E0,8.870403900E0,1.636531815E1,-1.067475174E1,2.145828577E1
5.368448708E0,6.572682037E0,1.452339844E1,3.136727142E0,1.624710154E1
5.378517708E0,7.504793701E0,2.443503708E1,-1.038480469E1,2.759052616E1
5.388586708E0,4.209097137E0,3.666924591E1,-1.268941223E1,3.903038915E1
5.398655708E0,4.393513641E0,3.510904037E1,5.338498535E0,3.578333753E1
5.408724708E0,-1.945953369E-3,2.831062775E1,2.613864441E0,2.843103822E1
5.418793708E0,-3.439846802E0,2.359498398E1,-8.826395416E0,2.542559873E1
5.428862708E0,-6.045178986E0,1.938349182E1,-2.014555710E1,2.860257707E1
5.438932708E0,-4.488565979E0,1.390668091E1,-1.265094223E1,1.932845927E1
5.449001708E0,-2.418969727E0,1.053015244E1,-3.559448090E0,1.137564045E1
5.459070708E0,-2.797233124E0,8.620573425E0,-4.202061768E0,9.989800920E0
5.469139708E0,-4.766687622E0,9.101373596E0,-8.568332062E0,1.337806513E1
5.479208708E0,-6.724765778E0,1.274479706E1,-1.313189209E1,1.949612568E1
5.489277708E0,-6.269412689E0,1.671708664E1,-1.250020569E1,2.179499171E1
5.499346708E0,-4.351900177E0,1.863429977E1,-7.002138977E0,2.037660702E1
5.509416708E0,-3.061134338E0,1.819406525E1,-4.993166656E0,1.911351006E1
5.519485708E0,-2.280208282E0,1.611803238E1,-6.944359131E0,1.769786545E1
5.529554708E0,-1.507964172E0,1.416219955E1,-6.697522430E0,1.573844525E1
5.539623708E0,-1.093176727E0,1.309925995E1,-4.413122864E0,1.386583211E1
5.549692708E0,-7.490423584E-1,1.256157806E1,-4.934788055E0,1.351689465E1
5.559761708E0,-1.624122620E-1,1.247415985E1,-6.940916290E0,1.427611154E1
5.569830708E0,7.036866760E-1,1.322799225E1,-6.971752167E0,1.496931134E1
5.579900708E0,1.429976349E0,1.456845474E1,-6.582411804E0,1.605032246E1
5.589969708E0,1.995350647E0,1.636112686E1,-7.058421936E0,1.793012037E1
5.600038708E0,2.340532837E0,1.802342010E1,-7.892637177E0,1.981452719E1
5.610107708E0,2.356250153E0,1.913306259E1,-7.532037048E0,2.069680123E1
5.620176708E0,2.388433228E0,1.989677444E1,-5.228177948E0,2.071038607E1
5.630245708E0,1.908231812E0,2.054193283E1,-3.774251404E0,2.097277585E1
5.640314708E0,1.227746887E0,2.102872055E1,-2.838846588E0,2.125496413E1
5.650384708E0,6.644682312E-1,2.106734024E1,-1.771416321E0,2.115212185E1
5.660453708E0,1.516346741E-1,2.058639038E1,-1.416204987E0,2.063560269E1
5.670523458E0,-3.459306335E-1,1.935355408E1,-2.109712830E0,1.947127658E1
5.680592458E0,-4.122427368E-1,1.731823654E1,-2.879861298E0,1.756089013E1
5.690661458E0,-1.324745178E-1,1.481544113E1,-2.807262268E0,1.507964081E1
5.700730458E0,4.296066284E-1,1.213765961E1,-2.194885712E0,1.234199602E1
5.710799458E0,1.079704742E0,9.675579529E0,-2.091151428E0,9.957686270E0
5.720869458E0,1.437011719E0,7.304061127E0,-2.837499390E0,7.966537165E0
5.730938458E0,1.590592346E0,4.772974548E0,-4.682113495E0,6.872660099E0
5.741007458E0,1.426234131E0,2.249073029E0,-7.192692719E0,7.669895816E0
5.751076458E0,8.451425171E-1,2.547702026E-1,-8.853489075E0,8.897384027E0
5.761145458E0,2.306703186E-1,-1.198407898E0,-9.421557770E0,9.500270580E0
5.771214458E0,-5.411247253E-1,-2.223625946E0,-9.491761780E0,9.763752865E0
5.781283458E0,-1.406774597E0,-2.023492126E0,-7.118746490E0,7.533265344E0
5.791353458E0,-1.615740051E0,-5.727090454E-1,-2.768792267E0,3.256504596E0
5.801422458E0,-1.269060974E0,1.444047089E0,8.411009216E-1,2.098389504E0
5.811491458E0,-6.563850403E-1,2.740351410E0,3.279081116E0,4.323510164E0
5.821560458E0,-4.162843323E-1,3.089425507E0,3.538940735E0,4.716136568E0
5.831629458E0,-1.574725342E-1,3.255130920E0,3.272794189E0,4.618642302E0
5.841698458E0,5.029541016E-2,3.247197418E0,3.344944153E0,4.662131711E0
5.851767458E0,4.837939453E-1,2.141446838E0,2.496508484E0,3.324515867E0
5.861837458E0,9.136999512E-1,5.704637146E-1,7.911048889E-1,1.336459276E0
5.871906458E0,7.505392456E-1,1.389111328E-1,-8.936416626E-2,7.684994575E-1
5.881975458E0,5.319937134E-1,-2.324665833E-1,-4.222718811E-1,7.178938396E-1
5.892044458E0,3.143463135E-1,-6.149212646E-1,-6.319857788E-1,9.361344941E-1
5.902113458E0,1.231938171E-1,-8.304730225E-1,-6.020480347E-1,1.033113737E0
5.912182458E0,1.661544800E-2,-8.373587036E-1,-5.370831299E-1,9.949391740E-1
5.922251458E0,-1.136137390E-1,-7.539820862E-1,-4.894821167E-1,9.060848804E-1
5.932321458E0,-2.411485291E-1,-6.969506836E-1,-4.087998962E-1,8.432142216E-1
5.942390458E0,-4.207749939E-1,-6.903643799E-1,-1.863624573E-1,8.296900252E-1
5.952459458E0,-5.590873718E-1,-6.575825500E-1,2.278262329E-1,8.926915995E-1
5.962528458E0,-7.307803345E-1,-6.851252747E-1,6.644682312E-1,1.202062631E0
5.972597458E0,-9.066645813E-1,-7.289840698E-1,1.021924896E0,1.548479554E0
5.982666458E0,-1.042731628E0,-7.638615417E-1,1.357527008E0,1.874474135E0
5.992735458E0,-1.110989685E0,-8.017327881E-1,1.619182892E0,2.121043795E0
6.002805458E0,-1.064137115E0,-8.610095215E-1,1.691183167E0,2.175735669E0
6.012874458E0,-9.873468018E-1,-9.228309631E-1,1.581760712E0,2.080489760E0
6.022943458E0,-8.578660583E-1,-9.505233765E-1,1.323397980E0,1.841415509E0
6.033012458E0,-7.220983887E-1,-9.108558655E-1,1.022673340E0,1.548207108E0
6.043081458E0,-5.439688110E-1,-8.258326721E-1,7.521858215E-1,1.242451279E0
6.053150458E0,-3.213816833E-1,-7.569758606E-1,5.412744141E-1,9.845184768E-1
6.063220458E0,4.490661621E-3,-5.258564758E-1,5.342390442E-1,7.496376162E-1
6.073289458E0,1.408570862E-1,3.341052246E-1,8.428971863E-1,9.175743493E-1
6.083358458E0,1.037342834E-1,7.006929016E-1,1.121318207E0,1.326305344E0
6.093427458E0,6.735992432E-2,8.244854736E-1,1.494941254E0,1.708555825E0
6.103496458E0,-1.880090332E-1,4.323609009E0,5.383704529E0,6.907475422E0
6.113565458E0,-3.799099731E-1,7.198380890E0,5.963598633E-1,7.233025930E0
6.123634458E0,-5.285508728E-1,6.957980804E0,-2.883828049E1,2.967051203E1
6.133704458E0,-1.626517639E0,1.306243652E1,-4.104494659E1,4.310406534E1
6.143773458E0,-3.343147888E0,1.996473312E1,-1.501153336E1,2.520145512E1
6.153842458E0,-3.777843933E0,2.567790253E1,2.197280731E0,2.604716540E1
6.163911458E0,-3.479214935E0,3.226555344E1,4.642445984E0,3.278297088E1
6.173980458E0,-1.042432251E0,4.408886673E1,-4.876708832E0,4.437000252E1
6.184049458E0,8.261320496E-1,4.934294083E1,-6.508615265E0,4.977720740E1
6.194118458E0,-1.251846771E0,4.087070892E1,-6.352190552E0,4.138033703E1
6.204188458E0,-5.775140533E0,2.823413681E1,-2.127675476E0,2.889715786E1
6.214257458E0,-4.856201477E0,1.885868317E1,3.225791931E-1,1.947656748E1
6.224326458E0,-4.310885468E0,1.170281387E1,-5.919440460E0,1.380504840E1
6.234395458E0,-3.884122925E0,7.063511353E0,-9.645941162E0,1.257075115E1
6.244464458E0,-3.372187500E0,5.659880219E0,-5.158273315E0,8.367417536E0
6.254533458E0,-3.620371399E0,7.835605774E0,-1.566043396E0,8.772473929E0
6.264602458E0,-2.546354828E0,1.361089600E1,-2.491718445E0,1.406943757E1
6.274672458E0,-6.288423157E-1,2.041514648E1,-7.534881134E0,2.177034870E1
6.284741458E0,2.326162720E-1,2.551294556E1,-7.594457245E0,2.662029831E1
6.294810458E0,5.673202515E-1,2.856180542E1,-3.517086182E0,2.878312833E1
6.304879458E0,1.181792450E0,2.950679031E1,-4.275259552E0,2.983831685E1
6.314948458E0,4.689747620E-1,2.788551178E1,-6.661597137E0,2.867400532E1
6.325017458E0,-1.050365753E0,2.532373901E1,-6.446943512E0,2.615259273E1
6.335086458E0,-2.426753540E0,2.315235443E1,-4.360731812E0,2.368410079E1
6.345156458E0,-2.882855072E0,2.159259796E1,-4.122577057E0,2.217085433E1
6.355225458E0,-2.434986420E0,2.131058441E1,-4.629872131E0,2.194324230E1
6.365294458E0,-2.646346893E0,2.146820663E1,-3.636537781E0,2.193425301E1
6.375363458E0,-4.012855225E0,2.184272781E1,-2.761457520E0,2.237930770E1
6.385432458E0,-3.652404785E0,2.138902130E1,-3.486699371E0,2.197697353E1
6.395501458E0,-1.617686005E0,1.987072861E1,-4.650529175E0,2.047169228E1
6.405570458E0,-5.773493958E-1,1.704819809E1,-4.826263733E0,1.772758337E1
6.415640458E0,-1.691781921E0,1.369457199E1,-5.322182465E0,1.478949135E1
6.425709458E0,-2.810106354E0,1.074390793E1,-6.824159088E0,1.303446978E1
6.435778458E0,-3.146456909E0,7.742349701E0,-7.115603027E0,1.097615490E1
6.445847458E0,-3.194956055E0,5.477110291E0,-4.033961334E0,7.515272808E0
6.455916458E0,-2.568209381E0,4.577780457E0,2.492317200E-1,5.254891986E0
6.465985458E0,-1.684147797E0,3.940705261E0,3.109932861E0,5.295015973E0
6.476054458E0,-8.827143860E-1,2.877166901E0,3.835324402E0,4.875139724E0
6.486124458E0,-9.116043091E-2,1.407073975E0,2.834804993E0,3.166115402E0
6.496193458E0,8.288264465E-1,-3.076103210E-1,1.528621216E0,1.765859623E0
6.506262458E0,1.391057281E0,-1.252146149E0,9.512718201E-1,2.099482892E0
6.516331458E0,1.141226807E0,-1.085991669E0,8.258326721E-1,1.778700686E0
6.526400458E0,8.759783936E-1,-9.189390564E-1,8.497828674E-1,1.527716615E0
6.536469458E0,8.699908447E-1,-9.641450500E-1,9.792636108E-1,1.626473783E0
6.546538458E0,8.595126343E-1,-9.985734558E-1,1.204994202E0,1.785475270E0
6.556608458E0,8.460406494E-1,-1.018032990E0,1.508263550E0,2.006747339E0
6.566677458E0,9.171427917E-1,-1.086740112E0,1.957180023E0,2.419237197E0
6.576746458E0,1.140777740E0,-1.277742920E0,2.773881683E0,3.260125828E0
6.586815458E0,1.378184052E0,-1.531315613E0,3.519181824E0,4.077862123E0
6.596884458E0,1.551972656E0,-1.773961029E0,3.971990204E0,4.618686289E0
6.606953458E0,1.694626007E0,-1.951641541E0,4.257745972E0,4.980869680E0
6.617022458E0,1.759291534E0,-2.047891388E0,4.272265778E0,5.053832280E0
6.627092458E0,1.764380951E0,-2.074835358E0,3.974534912E0,4.818185309E0
6.637161458E0,1.993105316E0,-2.146087189E0,3.496279449E0,4.560935103E0
6.647230458E0,2.333647156E0,-2.324216766E0,3.240461426E0,4.620441849E0
6.657299458E0,2.241887970E0,-2.315534821E0,3.166066132E0,4.517935139E0
6.667368083E0,1.876946869E0,-2.039508820E0,2.667453003E0,3.846794938E0
6.677437083E0,1.656156006E0,-1.335073700E0,2.184856567E0,3.049405306E0
6.687507083E0,1.671723633E0,-7.321275330E-1,1.895358582E0,2.631169850E0
6.697576083E0,1.733395386E0,-3.653901672E-1,1.606758728E0,2.391619357E0
6.707645083E0,1.678309937E0,-1.088237000E-1,1.361119537E0,2.163611156E0
6.717714083E0,1.531914368E0,8.547225952E-2,1.096020813E0,1.885557944E0
6.727783083E0,1.289568329E0,1.947450256E-1,8.077203369E-1,1.534054837E0
6.737852083E0,1.022074585E0,2.392025757E-1,6.021977234E-1,1.210163802E0
6.747921083E0,7.484436035E-1,2.534230042E-1,4.132905579E-1,8.917399463E-1
6.757990083E0,5.605842590E-1,2.749781799E-1,2.644999695E-1,6.781061457E-1
6.768060083E0,4.679269409E-1,2.423460388E-1,5.882766724E-2,5.302338343E-1
6.778129083E0,3.754193115E-1,2.043251038E-1,-4.550537109E-2,4.298361854E-1
6.788198083E0,3.796105957E-1,2.585124207E-1,5.373825073E-2,4.624074779E-1
6.798267083E0,5.510041809E-1,3.746708679E-1,4.242178345E-1,7.899016633E-1
6.808336083E0,3.402424622E-1,1.288370819E0,2.684667206E0,2.997182395E0
6.818405083E0,-8.494834900E-1,4.834197235E0,9.366622009E0,1.057471952E1
6.828475083E0,3.390599213E0,-4.719685364E-1,2.039957886E0,3.985015119E0
6.838544083E0,5.168302460E0,-2.231709137E0,-3.380719757E0,6.566669023E0
6.848613083E0,4.939727783E0,1.634301453E0,-5.316943359E0,7.439202813E0
6.858682083E0,7.663613434E0,1.085467758E1,-3.187202179E1,3.453086691E1
6.868751083E0,1.373423950E1,2.547642151E1,-5.862813217E1,6.538298914E1
6.878820083E0,1.267354523E1,2.808639404E1,-2.409000458E1,3.911256319E1
6.888889083E0,9.302255859E0,2.589016113E1,4.355792084E0,2.785328225E1
6.898959083E0,8.151898041E0,2.778701660E1,1.235815109E1,3.148484765E1
6.909028083E0,7.333100739E0,3.231001099E1,1.236398895E1,3.536353205E1
6.919097083E0,7.430548096E-1,3.648976913E1,-1.722468109E0,3.653795668E1
6.929166083E0,-6.615493011E0,3.204940292E1,-1.167931274E1,3.474673109E1
6.939235083E0,-5.009782104E0,2.253219406E1,-1.058179504E1,2.539236248E1
6.949304083E0,-1.768871613E0,1.603091354E1,-8.673413544E0,1.831248750E1
6.959373083E0,9.276210022E-1,1.135448822E1,-7.967182159E0,1.390182992E1
6.969443083E0,3.344794464E0,8.237519989E0,-1.039857605E1,1.368118304E1
6.979512083E0,5.570216675E0,6.899602203E0,-1.262774048E1,1.543021886E1
6.989581083E0,5.554649048E0,7.402705994E0,-7.251670074E0,1.175758908E1
6.999650083E0,5.153632965E0,8.535400543E0,-4.151916046E0,1.080052786E1
7.009719083E0,5.115013275E0,1.003363495E1,-5.723198547E0,1.263298036E1
7.019788083E0,2.893632660E0,1.270932083E1,-6.924001465E0,1.475946280E1
7.029857083E0,9.984237671E-2,1.557990143E1,-7.837102661E0,1.744028312E1
7.039927083E0,-2.282453613E0,1.814885925E1,-9.508227539E0,2.061545725E1
7.049996083E0,-3.393592987E0,1.975172607E1,-1.089120163E1,2.280932768E1
7.060065083E0,-2.252216492E0,1.939756256E1,-8.328979797E0,2.122992739E1
7.070134083E0,-2.600093079E-1,1.761671585E1,-5.241350555E0,1.838173109E1
7.080203083E0,1.160536652E0,1.553035446E1,-3.535647583E0,1.596995801E1
7.090272083E0,1.749262390E0,1.392673920E1,-2.010169830E0,1.417937821E1
7.100341083E0,2.391127625E0,1.309102707E1,-2.487377472E0,1.353807696E1
7.110411083E0,3.511098633E0,1.280272659E1,-3.667673035E0,1.377277922E1
7.120480083E0,4.325255585E0,1.333546875E1,-5.144501953E0,1.493346788E1
7.130549083E0,4.425247650E0,1.479223938E1,-6.896009674E0,1.691000036E1
7.140618083E0,3.998634796E0,1.709714630E1,-7.455995178E0,1.907598899E1
7.150687083E0,3.454366608E0,1.980935623E1,-6.198310547E0,2.104191761E1
7.160756083E0,2.998115387E0,2.214674561E1,-3.707340546E0,2.265416983E1
7.170825083E0,2.433190155E0,2.331820953E1,-1.549427948E0,2.349595789E1
7.180895083E0,1.510808258E0,2.337119934E1,-6.935078430E-1,2.343024655E1
7.190964083E0,6.020480347E-1,2.160023209E1,-9.743238831E-1,2.163057547E1
7.201033083E0,2.594105530E-1,1.833522171E1,-1.752705231E0,1.842063041E1
7.211102083E0,3.713777161E-1,1.531854492E1,-2.324815521E0,1.549840337E1
7.221171083E0,5.243595886E-1,1.266351608E1,-2.395169220E0,1.289869870E1
7.231240083E0,6.264472961E-1,1.020308258E1,-2.371967468E0,1.049388203E1
7.241309083E0,8.247848511E-1,7.851173401E0,-2.534080353E0,8.291125198E0
7.251379083E0,9.521699524E-1,5.672304382E0,-3.019969940E0,6.496297643E0
7.261448083E0,9.113049316E-1,3.714226227E0,-4.164639587E0,5.654217544E0
7.271517083E0,8.069718933E-1,1.849254456E0,-6.225853271E0,6.544630978E0
7.281586083E0,4.360432434E-1,-8.053253174E-2,-8.156239014E0,8.168283421E0
7.291655083E0,-1.263372803E-1,-1.796713715E0,-8.590485992E0,8.777276962E0
7.301724083E0,-6.366261292E-1,-2.884351959E0,-7.086563416E0,7.677510019E0
7.311793083E0,-7.406597900E-1,-3.070864105E0,-4.274211731E0,5.314853638E0
7.321863083E0,-4.589456177E-1,-2.734812927E0,-2.316882019E0,3.613554361E0
7.331932083E0,1.013392639E-1,-2.121538239E0,-8.496331787E-1,2.287590585E0
7.342001083E0,5.201683044E-1,-1.296004944E0,-6.062393188E-2,1.397812269E0
7.352070083E0,6.762936401E-1,-3.835025024E-1,2.170486450E-2,7.777649762E-1
7.362139083E0,9.539662170E-1,6.168672180E-1,-2.248324585E-1,1.158070094E0
7.372208083E0,1.397044830E0,1.400038605E0,-6.569837952E-1,2.084099340E0
7.382277083E0,1.947450256E0,1.789378967E0,-1.138532410E0,2.879356810E0
7.392347083E0,2.489772491E0,1.833088074E0,-1.515448608E0,3.443219922E0
7.402416083E0,2.895578613E0,1.650318146E0,-1.739682312E0,3.759577108E0
7.412485083E0,2.898422699E0,1.318458252E0,-1.695524139E0,3.607490598E0
7.422554083E0,2.476300507E0,9.635462952E-1,-1.345102844E0,2.978218817E0
7.432623083E0,1.943408661E0,6.024971008E-1,-1.127156067E0,2.326009626E0
7.442692083E0,1.505868530E0,2.972817993E-1,-1.001267853E0,1.832635755E0
7.452762083E0,1.144070892E0,7.933502197E-2,-9.601034546E-1,1.495657346E0
7.462831083E0,7.333250427E-1,-5.763015747E-2,-9.975256348E-1,1.239412863E0
7.472900083E0,3.231779480E-1,-1.577719116E-1,-9.505233765E-1,1.016282762E0
7.482969083E0,2.409988403E-2,-1.975891113E-1,-7.761360168E-1,8.012548770E-1
7.493038083E0,-1.749861145E-1,-1.935475159E-1,-4.899311829E-1,5.550795845E-1
7.503107083E0,-3.376977539E-1,-1.474433899E-1,-1.905537415E-1,4.148373833E-1
7.513176083E0,-3.830534363E-1,-9.340576172E-2,8.846603394E-2,4.040802031E-1
7.523245083E0,-3.869453430E-1,-6.990463257E-2,2.884501648E-1,4.876646939E-1
7.533315083E0,-3.885919189E-1,-5.179229736E-2,4.790039062E-1,6.189756568E-1
7.543384083E0,-4.248165894E-1,-8.577163696E-2,7.631130981E-1,8.775918806E-1
7.553453083E0,-4.861889648E-1,-7.185058594E-2,1.234632568E0,1.328856574E0
7.563522083E0,-4.421804810E-1,7.155120850E-2,1.727407837E0,1.784539433E0
7.573591083E0,-3.882925415E-1,3.107537842E-1,2.198777618E0,2.254320746E0
7.583660083E0,-3.210823059E-1,6.225553894E-1,2.681074677E0,2.771070277E0
7.593730083E0,-1.008901978E-1,1.015637970E0,3.062780914E0,3.228362781E0
7.603799083E0,1.685494995E-1,1.522034912E0,3.366349640E0,3.698284617E0
7.613868083E0,4.252656555E-1,2.201022949E0,3.475622406E0,4.135855898E0
7.623937083E0,8.285270691E-1,3.463048553E0,3.346740417E0,4.886699685E0
7.634006083E0,1.349892883E0,6.487209778E0,2.919079742E0,7.240657984E0
7.644075083E0,4.221221924E-2,1.526435760E1,-3.354823608E0,1.562873112E1
7.654144083E0,-9.925859070E-1,2.775648010E1,-2.032772827E1,3.441836648E1
7.664214083E0,2.035616913E0,4.238630722E1,-4.464196655E1,6.159259658E1
7.674283000E0,5.533992004E0,4.927258713E1,-4.752961166E1,6.868389109E1
7.684352000E0,3.178789673E0,4.039080688E1,-2.128094604E1,4.576462224E1
7.694421000E0,2.892584839E0,3.018802368E1,-1.106199646E0,3.034645776E1
7.704490000E0,5.482349396E0,2.123409348E1,-2.576292572E0,2.208121745E1
7.714559000E0,2.952610016E0,1.376986542E1,-6.569688263E0,1.553988106E1
7.724628000E0,-1.398990784E0,1.074690170E1,1.224453735E-1,1.083826851E1
7.734698000E0,-2.189646606E0,8.281977539E0,2.451152802E0,8.910322905E0
7.744767000E0,-2.190844116E0,6.327342224E0,3.869453430E-1,6.707069722E0
7.754836000E0,-2.779120789E0,5.204227753E0,-3.536096649E0,6.878333982E0
7.764905000E0,-3.831582184E0,5.541476440E0,-6.190227356E0,9.149202036E0
7.774974000E0,-4.338128815E0,7.752827911E0,-5.482499084E0,1.043951620E1
7.785043000E0,-4.318818970E0,1.116228790E1,-5.854924622E0,1.332400131E1
7.795112000E0,-3.033441925E0,1.537153473E1,-9.015003204E0,1.807639711E1
7.805182000E0,4.489164734E-1,1.913231415E1,-1.236279144E1,2.278344976E1
7.815251000E0,3.544778595E0,2.142000687E1,-1.263657211E1,2.512100922E1
7.825320000E0,5.255720673E0,2.200169724E1,-1.018212616E1,2.480671228E1
7.835389000E0,6.421197052E0,2.090747269E1,-8.915460205E0,2.361862859E1
7.845458000E0,6.797963562E0,1.807940369E1,-9.805060272E0,2.166140238E1
7.855527000E0,4.969216461E0,1.506033188E1,-1.011865814E1,1.881206929E1
7.865596000E0,1.634301453E0,1.323936859E1,-9.449549561E0,1.634765454E1
7.875666000E0,-1.147364044E0,1.295930099E1,-9.967023468E0,1.638906597E1
7.885735000E0,-2.675386505E0,1.389455612E1,-8.959169312E0,1.674762961E1
7.895804000E0,-3.487148438E0,1.556074127E1,-6.637197876E0,1.727278984E1
7.905873000E0,-3.833677826E0,1.793615158E1,-4.788841553E0,1.895614999E1
7.915942000E0,-2.582579498E0,2.083472397E1,-3.242856445E0,2.124315319E1
7.926011000E0,-3.905378723E-1,2.347523300E1,-2.077380066E0,2.357020560E1
7.936080000E0,1.431772614E0,2.479473907E1,-1.312171326E0,2.487068258E1
7.946150000E0,2.254761200E0,2.437261688E1,-8.352630615E-1,2.449093845E1
7.956219000E0,2.348765717E0,2.219494537E1,-1.029109955E0,2.234259089E1
7.966288000E0,2.067799988E0,1.904399780E1,-1.507964172E0,1.921519204E1
7.976357000E0,2.093546448E0,1.577793961E1,-1.793719940E0,1.601698305E1
7.986426000E0,2.280507660E0,1.305360489E1,-2.115101624E0,1.341905252E1
7.996495000E0,2.226919098E0,1.055200699E1,-2.800825653E0,1.114220106E1
8.006565000E0,2.005978546E0,7.994126129E0,-3.964206390E0,9.145760482E0
8.016634000E0,1.769769745E0,5.443580017E0,-5.721701660E0,8.093362604E0
8.026703000E0,1.348695374E0,2.990930328E0,-7.688611450E0,8.359389300E0
8.036772000E0,6.295907593E-1,1.218466187E0,-8.450077972E0,8.560657808E0
8.046841000E0,1.182540894E-1,3.577560425E-1,-7.250322876E0,7.260107108E0
8.056910000E0,-1.222956848E-1,7.424560547E-2,-4.680017853E0,4.682204155E0
8.066979000E0,-1.950444031E-1,3.474275208E-1,-2.179767151E0,2.215881999E0
8.077048000E0,-7.484436035E-2,9.210346985E-1,-6.982978821E-1,1.158242861E0
8.087118000E0,1.245410156E-1,1.037941589E0,4.016148376E-1,1.119878424E0
8.097187000E0,2.216889954E-1,8.219407654E-1,1.426234131E0,1.660986583E0
8.107256000E0,2.395019531E-3,3.350033569E-1,2.169288940E0,2.195005124E0
8.117325000E0,-3.942800903E-1,-1.462458801E-1,2.672991486E0,2.705869200E0
8.127394000E0,-6.734495544E-1,-4.945715332E-1,3.156935120E0,3.265635413E0
8.137463000E0,-5.152285767E-1,-7.876620483E-1,3.423680420E0,3.550698467E0
8.147533000E0,-7.574249268E-2,-9.380992126E-1,3.397335205E0,3.525287726E0
8.157602000E0,3.309617615E-1,-9.412426758E-1,3.103795624E0,3.260217897E0
8.167671000E0,5.424719238E-1,-9.096583557E-1,2.495310974E0,2.710780509E0
8.177740000E0,6.060896301E-1,-8.738827515E-1,1.678309937E0,1.986892032E0
8.187809000E0,6.351292419E-1,-8.020321655E-1,8.767268372E-1,1.347328726E0
8.197878000E0,7.551795959E-1,-7.182064819E-1,3.209326172E-1,1.090465276E0
8.207947000E0,9.602531433E-1,-6.360273743E-1,7.364685059E-2,1.154140710E0
8.218017000E0,1.460063782E0,-5.608836365E-1,-3.622467041E-2,1.564509165E0
8.228086000E0,2.745141449E0,-5.629792786E-1,-1.621128845E-1,2.806960604E0
8.238155000E0,3.757336578E0,-6.340814209E-1,-3.646417236E-1,3.827871602E0
8.248224000E0,3.935316467E0,-7.113208008E-1,-5.818400574E-1,4.041191759E0
8.258293000E0,3.040028229E0,-6.917115784E-1,-7.565267944E-1,3.208203443E0
8.268362000E0,1.726360016E0,-5.947132874E-1,-8.433462524E-1,2.011277132E0
8.278431000E0,7.963439941E-1,-4.647834778E-1,-9.122030640E-1,1.297035801E0
8.288501000E0,2.053729248E-1,-3.382965088E-1,-9.885443115E-1,1.064820371E0
8.298570000E0,-1.294807434E-1,-2.288740540E-1,-1.065484314E0,1.097454062E0
8.308639000E0,-2.827619934E-1,-1.368154907E-1,-1.149010620E0,1.191175146E0
8.318708000E0,-4.065545654E-1,-6.017486572E-2,-1.301842804E0,1.365174830E0
8.328777000E0,-4.980143738E-1,1.766326904E-2,-1.392554169E0,1.479032596E0
8.338846000E0,-5.149291992E-1,9.235794067E-2,-1.116528168E0,1.233011443E0
8.348915000E0,-3.710783386E-1,1.907034302E-1,-5.608836365E-1,6.990403317E-1
8.358985000E0,-2.957849121E-1,2.987786865E-1,-1.435514832E-1,4.442571846E-1
8.369054000E0,-4.113446045E-1,4.077520752E-1,2.731819153E-1,6.403862095E-1
8.379123000E0,-7.200027466E-1,6.156697083E-1,6.822811890E-1,1.167459107E0
8.389192000E0,-1.325343933E0,1.087189178E0,7.565267944E-1,1.873726138E0
8.399261000E0,-2.126028900E0,1.680106201E0,-5.519023132E-1,2.765384584E0
8.409330000E0,-3.000660095E0,2.071242828E0,-6.894961853E0,7.799647865E0
8.419399000E0,-3.672762451E0,3.442690887E0,-1.495150818E1,1.577621315E1
8.429469000E0,-3.190315704E0,5.946384430E0,-2.035317535E1,2.144269920E1
8.439538000E0,-2.064806213E0,7.327861633E0,-1.445993042E1,1.634168194E1
8.449607000E0,-3.282224579E0,1.099044525E1,-5.404361572E0,1.267951139E1
8.459676000E0,-4.002826080E0,2.169169189E1,-3.342100067E0,2.230967832E1
8.469745000E0,-4.675377502E0,2.854773468E1,4.858147430E0,2.933315371E1
8.479814000E0,-3.869303741E0,3.677402802E1,2.161954193E0,3.704017675E1
8.489883000E0,-1.770817566E0,4.601191772E1,-2.114981873E1,5.067096999E1
8.499953000E0,2.310146027E0,4.594919815E1,-3.507595917E1,5.785316324E1
8.510022000E0,5.562133484E0,3.337549530E1,-6.068380737E0,3.437566378E1
8.520091000E0,3.379073181E0,2.221650055E1,4.714895325E0,2.296129940E1
8.530160000E0,2.481838989E-1,1.652937698E1,-3.530109100E0,1.690395128E1
8.540229000E0,-1.100960541E0,1.227462479E1,-9.548493805E0,1.559013347E1
8.550298000E0,-1.113534393E0,9.009165344E0,-6.972051544E0,1.144615751E1
8.560368000E0,-1.218615875E0,5.867049408E0,-4.127516785E0,7.276241352E0
8.570437000E0,-1.053658905E0,2.392474823E0,-5.521567841E0,6.109160686E0
8.580506000E0,-1.317111053E0,-2.399510193E-1,-8.469238129E0,8.574400999E0
8.590575000E0,-2.314487000E0,-1.314716034E0,-1.147468826E1,1.177938025E1
8.600644000E0,-4.472249908E0,9.063652039E-1,-1.302231995E1,1.379867145E1
8.610713000E0,-5.352269897E0,6.670428772E0,-1.126257935E1,1.414167976E1
8.620782000E0,-4.973856812E0,1.200488571E1,-8.427474976E0,1.548802334E1
8.630851000E0,-3.957171021E0,1.627101425E1,-6.563251648E0,1.798558810E1
8.640921000E0,-2.853965149E0,1.995650024E1,-6.010002136E0,2.103632917E1
8.650990000E0,-2.414179688E0,2.179812057E1,-7.537126465E0,2.319039886E1
8.661059000E0,-3.139271851E0,1.970472382E1,-8.672515411E0,2.175646322E1
8.671128333E0,-3.805386658E0,1.503922577E1,-8.648265839E0,1.776096229E1
8.681197333E0,-3.279230804E0,1.173095535E1,-7.989635468E0,1.456718720E1
8.691266333E0,-2.867586823E0,1.004052063E1,-7.708370361E0,1.297898618E1
8.701335333E0,-2.230811005E0,9.504335632E0,-6.914421387E0,1.196319927E1
8.711405333E0,-1.469793549E0,9.818382568E0,-6.479126587E0,1.185495722E1
8.721474333E0,-1.382525024E0,1.062939606E1,-7.581733704E0,1.312928490E1
8.731543333E0,-1.725162506E0,1.203257812E1,-7.878117371E0,1.448529790E1
8.741612333E0,-1.646575928E0,1.398781219E1,-7.851173401E0,1.612485740E1
8.751681333E0,-1.154698792E0,1.644390472E1,-8.791517944E0,1.868224076E1
8.761750333E0,-1.697470093E-1,1.939726318E1,-9.511820068E0,2.160456790E1
8.771820333E0,1.495540009E0,2.209659988E1,-8.782536621E0,2.382497253E1
8.781889333E0,2.879561920E0,2.394510590E1,-6.920558624E0,2.509091678E1
8.791958333E0,3.147953796E0,2.465163666E1,-4.659959564E0,2.528493674E1
8.802027333E0,2.873724060E0,2.435869583E1,-3.256478119E0,2.474285760E1
8.812096333E0,2.262994080E0,2.330129471E1,-2.686164093E0,2.356452747E1
8.822165333E0,1.253493347E0,2.173899353E1,-1.731898499E0,2.184386774E1
8.832234333E0,4.629872131E-1,1.976729370E1,-9.539662170E-1,1.979571441E1
8.842304333E0,5.008584595E-1,1.755459503E1,-8.487350464E-1,1.758223584E1
8.852373333E0,1.048270111E0,1.508637772E1,-1.241518250E0,1.517362944E1
8.862442333E0,1.204994202E0,1.242386444E1,-1.520538025E0,1.257443655E1
8.872511333E0,6.265969849E-1,1.012883698E1,-1.785337372E0,1.030404735E1
8.882580333E0,8.367599487E-2,8.087531891E0,-3.038531342E0,8.639898522E0
8.892649333E0,-3.032693481E-1,6.019582214E0,-4.980143738E0,7.818514819E0
8.902718333E0,-7.668553162E-1,4.420008545E0,-6.321654053E0,7.751635477E0
8.912788333E0,-1.163530426E0,3.706592102E0,-5.768703918E0,6.954895611E0
8.922857333E0,-1.152902527E0,3.543431396E0,-3.596870270E0,5.179050689E0
8.932926333E0,-7.411088562E-1,3.741319885E0,-1.068178711E0,3.960772977E0
8.942995333E0,-2.064207458E-1,3.600612488E0,6.725514221E-1,3.668698029E0
8.953064333E0,1.995350647E-1,3.037034454E0,1.774410095E0,3.523056018E0
8.963133333E0,3.147953796E-1,2.035167847E0,2.282902679E0,3.074516050E0
8.973202333E0,1.450483704E-1,1.091679840E0,2.220482483E0,2.478577487E0
8.983272333E0,6.137237549E-2,1.360670471E-1,2.107766876E0,2.113045673E0
8.993341333E0,1.332229614E-1,-5.788462830E-1,2.144889679E0,2.225615221E0
9.003410333E0,2.769241333E-1,-1.081650696E0,2.653831329E0,2.879144999E0
9.013479333E0,5.252577209E-1,-1.615889740E0,2.859503632E0,3.326222534E0
9.023548333E0,6.622229004E-1,-1.884730682E0,2.034718781E0,2.851460929E0
9.033617333E0,6.131250000E-1,-1.722019043E0,9.833052063E-1,2.075610989E0
9.043686333E0,5.430706787E-1,-1.378034363E0,1.908531189E-1,1.493428733E0
9.053756333E0,4.950205994E-1,-1.119821320E0,-2.146536255E-1,1.243029107E0
9.063825333E0,4.972659302E-1,-9.728269958E-1,-2.838098145E-1,1.128810781E0
9.073894333E0,4.872367859E-1,-9.059161377E-1,-2.002835083E-1,1.047949053E0
9.083963333E0,4.188290405E-1,-8.720864868E-1,-1.128652954E-1,9.740077929E-1
9.094032333E0,3.126997375E-1,-7.494914246E-1,-2.844085693E-2,8.126053185E-1
9.104101333E0,1.758842468E-1,-6.277944946E-1,3.742218018E-3,6.519779137E-1
9.114170333E0,6.855743408E-2,-5.093907166E-1,-8.981323242E-4,5.139842707E-1
9.124240333E0,2.290237427E-2,-4.339476013E-1,-1.601669312E-2,4.348466096E-1
9.134309333E0,-2.604583740E-2,-3.978726196E-1,2.933898926E-2,3.998021803E-1
9.144378333E0,-5.748046875E-2,-3.628454590E-1,1.007405090E-1,3.809323845E-1
9.154447333E0,-5.493576050E-2,-3.357518005E-1,1.196012878E-1,3.606267841E-1
9.164516333E0,-5.313949585E-2,-3.303630066E-1,5.508544922E-2,3.391134454E-1
9.174585333E0,-1.047821045E-1,-3.689826965E-1,4.595443726E-2,3.863150658E-1
9.184655333E0,-1.471440125E-1,-3.656895447E-1,6.765930176E-2,3.999474773E-1
9.194724333E0,-1.960922241E-1,-3.556604004E-1,-4.430786133E-2,4.085457959E-1
9.204793333E0,-2.317181396E-1,-3.652404785E-1,-2.330653381E-1,4.913383307E-1
9.214862333E0,-2.824626160E-1,-3.944297791E-1,-5.255570984E-1,7.152413884E-1
9.224931333E0,-3.972738647E-1,-4.903802490E-1,-9.776170349E-1,1.163629829E0
9.235000333E0,-6.426136780E-1,-6.153703308E-1,-1.703008575E0,1.921424261E0
9.245069333E0,-8.773255920E-1,-6.156697083E-1,-1.943258972E0,2.219235187E0
9.255138333E0,-8.135581970E-1,-4.248165894E-1,-1.609902191E0,1.853140885E0
9.265208333E0,-4.123924255E-1,1.752854919E-1,-1.103654938E0,1.191153532E0
9.275277333E0,6.436614990E-2,9.128018188E-1,-1.514849854E0,1.769779715E0
9.285346333E0,9.325607300E-2,8.592132568E-1,-3.342998199E0,3.452909075E0
9.295415333E0,-5.357359314E-1,5.120851135E-1,-4.584666138E0,4.644179986E0
9.305484333E0,-9.502239990E-1,1.481618958E0,-5.081632690E0,5.377835176E0
9.315553333E0,-1.380279694E0,3.432811432E0,-1.352931564E1,1.402610952E1
9.325623333E0,-9.105564880E-1,6.123316498E0,-3.182936050E1,3.242579695E1
9.335692333E0,-3.152444458E-1,5.695955200E0,-1.795815582E1,1.884246919E1
9.345761333E0,-8.723858643E-1,4.862338715E0,2.083666992E-1,4.944371705E0
9.355830333E0,-1.287772064E0,6.247558136E0,6.734196167E0,9.275760754E0
9.365899333E0,-1.574575653E0,1.085153412E1,8.437504120E0,1.383569864E1
9.375968333E0,-2.499352570E0,2.980990997E1,1.253852600E1,3.243596970E1
9.386037333E0,4.572990417E-1,4.288357315E1,1.621952133E1,4.585065802E1
9.396107333E0,1.084360062E1,6.051061752E1,-2.136581955E1,6.508161609E1
9.406176333E0,2.091076584E1,6.230239151E1,-2.086555984E1,6.895084991E1
9.416245333E0,1.849269424E1,4.606595535E1,6.512806549E0,5.006464453E1
9.426314333E0,1.129820526E1,2.938883560E1,6.501729584E0,3.215004802E1
9.436383333E0,4.956792297E0,1.807236832E1,-7.050338745E-2,1.873993749E1
9.446452333E0,1.880090332E0,1.008976822E1,-7.861651611E0,1.292840781E1
9.456521333E0,3.058140564E-1,5.113067322E0,-8.067174225E0,9.555955193E0
9.466591333E0,-9.063652039E-1,1.880090332E0,-7.494315491E0,7.779524549E0
9.476660333E0,-2.622995453E0,7.080276489E-1,-9.023834839E0,9.423959014E0
9.486729333E0,-4.547393646E0,3.004851379E0,-1.039094193E1,1.173369485E1
9.496798333E0,-3.276237030E0,8.224497070E0,-8.217910767E0,1.207932691E1
9.506867333E0,4.385879517E-2,1.244691650E1,-2.705174561E0,1.273756741E1
9.516936333E0,1.607656860E0,1.456635910E1,1.629960480E0,1.474517376E1
9.527005333E0,1.337468719E0,1.567989349E1,1.561403046E0,1.581410326E1
9.537075333E0,1.109043732E0,1.676393921E1,-7.147187347E0,1.825765381E1
9.547144333E0,-4.399351501E-1,1.527558426E1,-6.540798340E0,1.662284754E1
9.557213333E0,-1.629212036E0,1.295301407E1,-3.553610229E0,1.353007949E1
9.567282333E0,-2.291135559E0,1.147588577E1,-2.923271027E0,1.206195548E1
9.577351333E0,-2.164349213E0,1.163979492E1,-4.230951691E0,1.257259661E1
9.587420333E0,-1.163680115E0,1.366104172E1,-6.822512512E0,1.531420547E1
9.597489333E0,-2.918930054E-1,1.601654343E1,-8.757388916E0,1.825668988E1
9.607559333E0,6.432124329E-1,1.715762054E1,-6.682403870E0,1.842422825E1
9.617628333E0,2.103874969E0,1.593511276E1,-3.816763000E0,1.652034468E1
9.627697333E0,3.249742126E0,1.283565811E1,-3.400179291E0,1.367026562E1
9.637766333E0,3.606749725E0,1.002210892E1,-3.530408478E0,1.122118954E1
9.647835333E0,3.634741516E0,8.120164032E0,-3.515289917E0,9.565859762E0
9.657904333E0,3.695664825E0,6.978039093E0,-3.452720032E0,8.618134584E0
9.667973333E0,3.683090973E0,6.610553284E0,-3.251089325E0,8.236149321E0
9.678042833E0,3.472778320E0,6.832691345E0,-2.865042114E0,8.182562349E0
9.688111833E0,3.145708466E0,7.213200073E0,-2.632874908E0,8.298058046E0
9.698180833E0,2.871927795E0,7.592511292E0,-2.556833038E0,8.510675188E0
9.708249833E0,2.645299072E0,7.854316864E0,-2.546504517E0,8.670212560E0
9.718318833E0,2.370769958E0,7.917784882E0,-2.545307007E0,8.648147512E0
9.728387833E0,2.036664734E0,7.752678223E0,-2.740052032E0,8.471122004E0
9.738457833E0,1.614991608E0,7.502398682E0,-3.165467377E0,8.301467797E0
9.748526833E0,1.330283661E0,7.233258362E0,-3.323838043E0,8.070785618E0
9.758595833E0,1.304537201E0,6.811585236E0,-3.158282318E0,7.620646818E0
9.768664833E0,1.372795258E0,6.270759888E0,-3.129991150E0,7.141697346E0
9.778733833E0,1.459914093E0,5.749992828E0,-3.048859863E0,6.670030971E0
9.788802833E0,1.597478027E0,5.304818573E0,-2.997217255E0,6.298916368E0
9.798871833E0,1.695823517E0,4.844076691E0,-3.400478668E0,6.156634759E0
9.808941833E0,1.616488495E0,4.435576172E0,-4.046834564E0,6.218057657E0
9.819010833E0,1.315763855E0,4.370910645E0,-4.243824921E0,6.232667514E0
9.829079833E0,7.523355103E-1,4.900958405E0,-3.768712921E0,6.228049380E0
9.839148833E0,4.041595459E-3,5.624104614E0,-3.569177856E0,6.661050939E0
9.849217833E0,-7.569758606E-1,6.066135406E0,-3.863765259E0,7.231852681E0
9.859286833E0,-1.297801208E0,6.244863739E0,-4.031416626E0,7.545523912E0
9.869355833E0,-1.636097717E0,6.334976349E0,-4.049978027E0,7.694872520E0
9.879425833E0,-1.900897064E0,6.536307678E0,-4.164190521E0,7.979800149E0
9.889494833E0,-2.042502594E0,6.818171539E0,-4.260590057E0,8.295294306E0
9.899563833E0,-1.995350647E0,6.994205475E0,-4.156556396E0,8.377188998E0
9.909632833E0,-1.836530914E0,6.998845825E0,-3.785178680E0,8.166043493E0
9.919701833E0,-1.783690796E0,6.713838501E0,-2.605032806E0,7.419122333E0
9.929770833E0,-2.000290375E0,6.153703308E0,-2.732717285E0,7.024028029E0
9.939839833E0,-2.263293457E0,6.308631134E0,-6.641688538E0,9.435748549E0
9.949909833E0,-2.031126251E0,5.650599518E0,-8.260572052E0,1.021233565E1
9.959978833E0,-1.796414337E0,4.929249573E0,-8.096064148E0,9.647324008E0
9.970047833E0,-1.234482880E0,4.558470612E0,-6.374943237E0,7.933694195E0
9.980116833E0,4.176315308E-2,4.422553253E0,-4.516258392E0,6.321179582E0
9.990185833E0,1.008303223E0,4.301455078E0,-3.507805481E0,5.641266743E0
1.000025483E1,1.447190552E0,4.525090027E0,-3.084635468E0,5.664430793E0
1.001032383E1,1.135239258E0,5.492977295E0,-2.886746979E0,6.308317989E0
1.002039383E1,6.328839111E-1,7.381599884E0,-2.423759766E0,7.795073463E0
1.003046283E1,4.086502075E-1,9.817334747E0,-2.790646820E0,1.021443910E1
1.004053183E1,8.291258240E-1,1.286589523E1,-5.259762268E0,1.392421664E1
1.005060083E1,1.981728973E0,1.624362122E1,-6.852450256E0,1.774087243E1
1.006066983E1,2.505789185E0,1.958931381E1,-6.431525574E0,2.076980299E1
1.007073883E1,2.829416199E0,2.282738022E1,-4.746180267E0,2.348661557E1
1.008080783E1,3.538042603E0,2.588432327E1,-2.314636688E0,2.622734222E1
1.009087783E1,3.832779694E0,2.843651596E1,-4.259542236E0,2.900809094E1
1.010094683E1,3.745810547E0,2.866389313E1,-4.827161865E0,2.930787194E1
1.011101583E1,3.341052246E0,2.628863251E1,-2.936443634E0,2.666228667E1
1.012108483E1,2.814297638E0,2.440614716E1,-2.756068726E0,2.472197818E1
1.013115383E1,2.836301880E0,2.381412827E1,-2.457888794E0,2.410805946E1
1.014122283E1,2.977308655E0,2.404689423E1,-1.076710968E0,2.425441806E1
1.015129283E1,2.972668304E0,2.462618958E1,-5.860313416E-1,2.481188027E1
1.016136183E1,3.470083923E0,2.524874496E1,-4.328997803E-1,2.548976279E1
1.017143083E1,4.487817535E0,2.556069626E1,-5.031037903E-1,2.595655626E1
1.018149983E1,5.323978729E0,2.494831970E1,-1.383273468E0,2.554754100E1
1.019156883E1,5.629343719E0,2.279819092E1,-2.853366394E0,2.365562765E1
1.020163783E1,5.464386749E0,1.954994568E1,-3.581003265E0,2.061270198E1
1.021170683E1,4.854854279E0,1.641127258E1,-2.991678772E0,1.737381995E1
1.022177683E1,3.986959076E0,1.381581985E1,-1.960772552E0,1.451266171E1
1.023184583E1,2.966680756E0,1.142229721E1,-1.312919769E0,1.187408214E1
1.024191483E1,2.285597076E0,8.950337677E0,-1.697021027E0,9.392144531E0
1.025198383E1,1.747466125E0,6.154601440E0,-2.873125305E0,7.013387610E0
1.026205283E1,1.395098877E0,3.648812256E0,-4.349654846E0,5.846334667E0
1.027212183E1,1.038839722E0,1.306932220E0,-5.409301300E0,5.661077667E0
1.028219083E1,5.635780334E-1,-5.740562439E-1,-5.548960876E0,5.606971337E0
1.029226083E1,1.498384094E-1,-1.489702148E0,-4.873116302E0,5.097933556E0
1.030232983E1,3.772155762E-2,-1.444496155E0,-3.080593872E0,3.402653474E0
1.031239883E1,1.975891113E-1,-1.286275177E0,-1.470691681E0,1.963792074E0
1.032246783E1,4.555027771E-1,-1.140628052E0,-4.391867065E-1,1.304377283E0
1.033253683E1,6.339317322E-1,-9.139993286E-1,4.842430115E-1,1.213159309E0
1.034260583E1,4.945715332E-1,-7.548802185E-1,1.030008087E0,1.369438500E0
1.035267583E1,5.192701721E-1,-8.387059021E-1,1.367406464E0,1.686081119E0
1.036274483E1,7.348219299E-1,-1.020428009E0,1.700463867E0,2.114902824E0
1.037281383E1,1.071621552E0,-1.264570312E0,1.932331696E0,2.545862645E0
1.038288283E1,1.474433899E0,-1.525777130E0,2.013313293E0,2.924958391E0
1.039295183E1,1.793869629E0,-1.710942078E0,1.862277374E0,3.100543187E0
1.040302083E1,1.942959595E0,-1.753303986E0,1.596729584E0,3.065731922E0
1.041308983E1,1.890718231E0,-1.692680054E0,1.237027588E0,2.823157531E0
1.042315983E1,1.958377533E0,-1.720222778E0,8.804690552E-1,2.751296917E0
1.043322883E1,2.060914307E0,-1.815275116E0,7.990383911E-1,2.860254163E0
1.044329783E1,1.845811615E0,-1.804497528E0,8.852590942E-1,2.728903720E0
1.045336683E1,1.343456268E0,-1.687291260E0,9.294172668E-1,2.348540610E0
1.046343583E1,7.779322815E-1,-1.474433899E0,9.800120544E-1,1.933793573E0
1.047350483E1,2.031275940E-1,-1.207239532E0,1.040037231E0,1.606351627E0
1.048357383E1,-2.372566223E-1,-9.348060608E-1,1.042731628E0,1.420366968E0
1.049364383E1,-5.051994324E-1,-6.996450806E-1,9.719288635E-1,1.299759755E0
1.050371283E1,-6.505471802E-1,-5.489085388E-1,8.798703003E-1,1.224207484E0
1.051378183E1,-7.252418518E-1,-4.541555786E-1,7.473957825E-1,1.136148533E0
1.052385083E1,-7.072792053E-1,-3.514691162E-1,5.730084229E-1,9.757628127E-1
1.053391983E1,-6.749464417E-1,-2.393522644E-1,2.528242493E-1,7.594486859E-1
1.054398883E1,-7.108717346E-1,-1.889071655E-1,-4.041595459E-3,7.355548074E-1
1.055405783E1,-7.027885437E-1,-1.284329224E-1,-1.757345581E-1,7.357237169E-1
1.056412783E1,-6.604266357E-1,-2.948867798E-2,-3.174897766E-1,7.333707668E-1
1.057419683E1,-6.147715759E-1,1.219963074E-1,-5.008584595E-1,8.023006830E-1
1.058426583E1,-5.438191223E-1,4.674778748E-1,-7.747888184E-1,1.055733164E0
1.059433483E1,-6.780899048E-1,3.583248596E0,-8.984317017E-1,3.755882845E0
1.060440383E1,-5.849835205E-1,4.184847565E0,-5.143005066E0,6.656249392E0
1.061447283E1,-4.694238281E-1,2.433040466E0,-1.011341904E1,1.041255441E1
1.062454183E1,-3.640429688E-1,4.319118347E0,-1.113594269E1,1.194975021E1
1.063461183E1,-1.384620667E-1,6.070626068E0,-1.074046509E1,1.233812234E1
1.064468083E1,-4.935237122E-1,5.708678741E0,-4.150419159E0,7.075207264E0
1.065474983E1,-1.081351318E0,5.323829041E0,3.623514862E0,6.530109975E0
1.066481883E1,2.273771667E-1,9.790690155E0,6.875652008E0,1.196594771E1
1.067488796E1,1.584455109E0,1.986668701E1,1.146211441E1,2.299077679E1
1.068495696E1,3.951632538E0,2.805256439E1,1.545580948E1,3.227140864E1
1.069502696E1,8.064330139E0,3.298061646E1,1.548275345E1,3.731581617E1
1.070509596E1,1.265363663E1,3.848646698E1,-1.510793289E1,4.323855105E1
1.071516496E1,1.725776230E1,4.807552643E1,-4.571239059E1,6.854713163E1
1.072523396E1,2.099144806E1,4.291156494E1,-2.193299011E1,5.256519145E1
1.073530296E1,1.426054504E1,2.753149796E1,-5.464087372E0,3.148337300E1
1.074537196E1,6.540498962E0,2.027937881E1,4.216132507E0,2.172112118E1
1.075544096E1,3.911515961E0,1.464823883E1,5.396577759E0,1.609328771E1
1.076551096E1,2.937491455E0,9.186247101E0,2.042502594E0,9.858387733E0
1.077557996E1,2.005679169E0,5.221741333E0,6.999444580E-1,5.637309085E0
1.078564896E1,1.352736969E0,2.163600769E0,-1.159937897E0,2.802948719E0
1.079571796E1,7.300318909E-1,-6.758445740E-1,-4.246818695E0,4.361786501E0
1.080578696E1,-8.116122437E-1,-1.471440125E-1,-6.949598236E0,6.998377057E0
1.081585596E1,-1.958377533E0,3.879033508E0,-9.808054047E0,1.072753782E1
1.082592496E1,-1.859283600E0,7.708819427E0,-1.233330276E1,1.466264606E1
1.083599496E1,2.680924988E-1,1.060709244E1,-1.101888611E1,1.529699757E1
1.084606396E1,2.838547211E0,1.198123489E1,-6.259832611E0,1.381277829E1
1.085613296E1,3.960015106E0,1.261875916E1,-2.674039307E0,1.349315710E1
1.086620196E1,2.169588318E0,1.227522354E1,-1.372046814E0,1.254076309E1
1.087627096E1,-1.104553070E0,1.115794693E1,-1.785337372E0,1.135373272E1
1.088633996E1,-3.426674194E0,1.100421661E1,-3.226989441E0,1.196863986E1
1.089640896E1,-4.790637817E0,1.230351471E1,-5.741759949E0,1.439772524E1
1.090647896E1,-5.076692963E0,1.432790497E1,-6.896458740E0,1.669199854E1
1.091654796E1,-3.667673035E0,1.682980225E1,-7.882308655E0,1.894267296E1
1.092661696E1,-7.864645386E-1,1.890763138E1,-7.334447937E0,2.029559502E1
1.093668596E1,2.379002838E0,1.980770966E1,-6.169420624E0,2.088221174E1
1.094675496E1,4.620292053E0,1.915147430E1,-6.201603699E0,2.065395737E1
1.095682396E1,5.009183350E0,1.735491028E1,-6.712191925E0,1.927014139E1
1.096689396E1,4.117487640E0,1.562241302E1,-6.196813660E0,1.730358323E1
1.097696296E1,3.464246063E0,1.467593124E1,-5.988297272E0,1.622478545E1
1.098703196E1,3.212619324E0,1.467742813E1,-6.705156555E0,1.645317428E1
1.099710096E1,3.204087067E0,1.552376816E1,-6.543941803E0,1.714866543E1
1.100716996E1,3.498674469E0,1.725431946E1,-5.803132324E0,1.853722222E1
1.101723896E1,4.119134216E0,1.945549210E1,-4.964127045E0,2.049697531E1
1.102730796E1,4.825814667E0,2.157957504E1,-4.374353485E0,2.254110722E1
1.103737796E1,5.050198059E0,2.276765442E1,-3.451372833E0,2.357504109E1
1.104744696E1,4.907095642E0,2.294758026E1,-2.148482208E0,2.356452850E1
1.105751596E1,4.688849487E0,2.227413071E1,-1.716929626E0,2.282695897E1
1.106758496E1,4.511618042E0,2.065883972E1,-1.848356323E0,2.122636985E1
1.107765396E1,4.883145447E0,1.843611191E1,-2.054926758E0,1.918223281E1
1.108772296E1,5.659730530E0,1.602627319E1,-1.832040253E0,1.709474637E1
1.109779196E1,6.127657471E0,1.347108673E1,-1.286724243E0,1.485510091E1
1.110786196E1,5.964646454E0,1.109896957E1,-9.668394470E-1,1.263720347E1
1.111793096E1,5.301824799E0,8.670270081E0,-1.271605682E0,1.024206573E1
1.112799996E1,4.622687073E0,6.058501282E0,-2.209405518E0,7.934490929E0
1.113806896E1,3.930825806E0,3.539389801E0,-3.285368042E0,6.226741913E0
1.114813796E1,3.368295593E0,1.532812500E0,-4.095483398E0,5.519774781E0
1.115820696E1,2.825524292E0,-5.239105225E-3,-4.481680298E0,5.298025412E0
1.116827596E1,2.318678284E0,-1.036744080E0,-4.168381805E0,4.881241046E0
1.117834596E1,1.768123169E0,-1.588945770E0,-3.317850494E0,4.081560989E0
1.118841496E1,1.261875916E0,-1.929936676E0,-2.557132416E0,3.443241582E0
1.119848396E1,7.092251587E-1,-1.890568542E0,-1.974543915E0,2.824194294E0
1.120855296E1,2.460882568E-1,-1.550326080E0,-1.346899109E0,2.068382845E0
1.121862196E1,-9.714797974E-2,-1.228645020E0,-6.231541443E-1,1.381060245E0
1.122869096E1,-4.131408691E-1,-9.443861389E-1,1.901046753E-2,1.030976215E0
1.123876096E1,-6.285429382E-1,-6.240522766E-1,4.269122314E-1,9.832403178E-1
1.124882996E1,-7.101232910E-1,-4.176315308E-1,7.467970276E-1,1.111933894E0
1.125889896E1,-7.417076111E-1,-2.396516418E-1,9.142987061E-1,1.201459618E0
1.126896796E1,-7.399113464E-1,-1.456471252E-1,8.786727905E-1,1.157906628E0
1.127903696E1,-7.387138367E-1,-1.261875916E-1,6.867718506E-1,1.016502344E0
1.128910596E1,-7.021897888E-1,-8.367599487E-2,3.463796997E-1,7.874332150E-1
1.129917496E1,-7.463479614E-1,-1.511856079E-2,3.293151855E-3,7.465083357E-1
1.130924496E1,-7.487429810E-1,5.433700562E-2,-1.016386414E-1,7.575612022E-1
1.131931396E1,-6.554869080E-1,1.481918335E-2,-8.202941895E-2,6.607658589E-1
1.132938296E1,-4.885839844E-1,-7.604187012E-2,-2.125579834E-2,4.949227058E-1
1.133945196E1,-2.841091919E-1,-1.246907043E-1,-0.000000000E0,3.102673116E-1
1.134952096E1,-1.612147522E-1,-1.899549866E-1,3.817062378E-2,2.520517601E-1
1.135958996E1,-1.317260742E-1,-2.441423035E-1,1.266366577E-1,3.049492844E-1
1.136965896E1,-1.886077881E-1,-3.167413330E-1,2.642005920E-1,4.535415335E-1
1.137972896E1,-2.513273621E-1,-3.474275208E-1,4.575984192E-1,6.271105471E-1
1.138979796E1,-3.483256531E-1,-3.718267822E-1,6.680607605E-1,8.401732537E-1
1.139986696E1,-4.245172119E-1,-3.583547974E-1,8.680448914E-1,1.030599320E0
1.140993596E1,-4.882846069E-1,-2.862048340E-1,1.046174469E0,1.189460417E0
1.142000496E1,-5.656736755E-1,-1.968406677E-1,1.163231049E0,1.308372817E0
1.143007396E1,-6.312373352E-1,-1.411564636E-1,1.126707001E0,1.299174502E0
1.144014296E1,-6.593788147E-1,-7.574249268E-2,8.913963318E-1,1.111352674E0
1.145021296E1,-6.818321228E-1,4.879852295E-2,4.936734009E-1,8.432020910E-1
1.146028196E1,-6.993457031E-1,4.809498596E-1,-4.430786133E-1,9.574527860E-1
1.147035096E1,-4.869374084E-1,1.264570312E0,-1.690135345E0,2.166287977E0
1.148041996E1,-3.194357300E-1,2.373015289E0,-3.213966522E0,4.007845001E0
1.149048896E1,-2.380050659E-1,3.870052185E0,-5.089416504E0,6.398133374E0
1.150055796E1,-1.761836243E-1,3.390000458E0,-4.053271179E0,5.286979386E0
1.151062796E1,4.520599365E-2,3.325334930E0,-8.797206116E-1,3.440029700E0
1.152069696E1,3.394940186E-1,4.284989319E0,3.354524231E-1,4.311486748E0
1.153076596E1,9.008267212E-1,6.012097778E0,1.462309113E0,6.252611968E0
1.154083496E1,1.561103668E0,9.086554413E0,3.390299835E0,9.823270776E0
1.155090396E1,2.436333618E0,1.387809036E1,6.190526733E0,1.539024804E1
1.156097296E1,3.727847900E0,1.948363358E1,8.408913574E0,2.154573403E1
1.157104196E1,5.277425537E0,2.895967804E1,-1.144879211E1,3.158463255E1
1.158111196E1,7.108417969E0,6.623261856E1,-7.299016617E1,9.881727442E1
1.159118096E1,1.191282715E1,6.606107529E1,-1.620365433E1,6.905461268E1
1.160124996E1,1.052536240E1,4.168501556E1,1.268851410E1,4.482657879E1
1.161131896E1,8.203989716E0,2.852737701E1,1.190594147E1,3.198230962E1
1.162138796E1,5.978567505E0,1.853984619E1,6.433920593E0,2.051498234E1
1.163145696E1,4.703219604E0,1.158575729E1,4.073179779E0,1.315069733E1
1.164152596E1,3.081791382E0,6.092031555E0,3.815266113E0,7.820904174E0
1.165159596E1,2.618504791E0,2.209106140E0,1.641785889E0,3.798970674E0
1.166166496E1,1.799557800E0,-6.349795532E-1,-1.259630585E0,2.286542481E0
1.167173371E1,1.801503754E0,-3.150199127E0,-3.972738647E0,5.380689796E0
1.168180271E1,2.808759155E0,-4.338877258E0,-4.932243347E0,7.144368992E0
1.169187171E1,2.555785217E0,-1.612297211E0,-3.772604828E0,4.833641232E0
1.170194071E1,1.417851562E0,2.561623077E0,4.733157349E-1,2.965846191E0
1.171201071E1,9.707313538E-1,6.469696198E0,-1.482217712E0,6.707924984E0
1.172207971E1,7.993377686E-1,9.847272491E0,-2.444566498E0,1.017760393E1
1.173214871E1,5.372328186E-1,1.359353210E1,-4.792434082E0,1.442359728E1
1.174221771E1,1.442999268E-1,1.748933075E1,-1.004575974E1,2.016965050E1
1.175228671E1,-6.328839111E-1,1.975052856E1,-1.461231354E1,2.457648526E1
1.176235571E1,4.697232056E-1,1.877725250E1,-1.262175293E1,2.262994694E1
1.177242471E1,2.655627594E0,1.676917831E1,-8.030201111E0,1.878142245E1
1.178249471E1,2.946323090E0,1.523007889E1,-6.457272034E0,1.680275230E1
1.179256371E1,2.661016388E0,1.348635498E1,-6.043382721E0,1.501616641E1
1.180263271E1,1.425785065E0,1.171433990E1,-4.784051514E0,1.273364721E1
1.181270171E1,-6.471043396E-1,1.034364029E1,-3.718417511E0,1.101073418E1
1.182277071E1,-2.467169495E0,9.371412048E0,-3.423680420E0,1.027773695E1
1.183283971E1,-3.954326935E0,8.821006622E0,-4.374952240E0,1.061070528E1
1.184290871E1,-5.094356232E0,9.069938965E0,-5.448968811E0,1.174340323E1
1.185297871E1,-5.816005554E0,1.004755600E1,-5.559738464E0,1.287206254E1
1.186304771E1,-5.719905396E0,1.138607254E1,-6.447093201E0,1.428023026E1
1.187311671E1,-3.793561249E0,1.256277557E1,-7.209158478E0,1.497285554E1
1.188318571E1,-1.228345642E0,1.305929306E1,-6.646029510E0,1.470454612E1
1.189325471E1,5.602848816E-1,1.298804123E1,-6.251300354E0,1.442504386E1
1.190332371E1,1.416803741E0,1.250694168E1,-6.202801208E0,1.403230793E1
1.191339271E1,1.883084106E0,1.181163757E1,-4.990771637E0,1.296026965E1
1.192346271E1,2.089205475E0,1.114282837E1,-4.145180054E0,1.207103646E1
1.193353171E1,2.031575317E0,1.082114731E1,-4.108057251E0,1.175162379E1
1.194360071E1,1.992057495E0,1.092518097E1,-3.987557831E0,1.179951227E1
1.195366971E1,1.953587494E0,1.163889679E1,-4.030219116E0,1.247088965E1
1.196373871E1,2.331102448E0,1.326017532E1,-2.918480988E0,1.377620483E1
1.197380771E1,3.411106567E0,1.550326080E1,-2.506687317E0,1.607078793E1
1.198387771E1,5.006039886E0,1.840901825E1,-2.775827637E0,1.927842336E1
1.199394671E1,6.870712280E0,2.154843979E1,-2.462529144E0,2.275095590E1
1.200401571E1,8.289911041E0,2.371084305E1,-1.583856354E0,2.516814066E1
1.201408471E1,8.816216583E0,2.483111343E1,-3.454815674E-1,2.635202510E1
1.202415371E1,8.810827789E0,2.438369385E1,1.057850189E0,2.594829973E1
1.203422271E1,7.926466827E0,2.221410553E1,1.561702423E0,2.363756069E1
1.204429171E1,6.936575317E0,1.932346664E1,9.189390564E-1,2.055132330E1
1.205436171E1,6.661297760E0,1.684342392E1,2.504292297E-1,1.811453924E1
1.206443071E1,6.294410706E0,1.467727844E1,-1.960922241E-1,1.597124168E1
1.207449971E1,5.488336945E0,1.237731125E1,-6.433621216E-1,1.355483644E1
1.208456871E1,4.302502899E0,1.019724472E1,-8.982820129E-1,1.110415425E1
1.209463771E1,3.241060181E0,8.250393219E0,-8.509803772E-1,8.904921502E0
1.210470671E1,2.340532837E0,6.450835419E0,-9.301657104E-1,6.925068939E0
1.211477571E1,1.515448608E0,4.447401581E0,-1.930236053E0,5.079544913E0
1.212484571E1,7.005432129E-1,2.069895630E0,-4.070485382E0,4.619965363E0
1.213491471E1,-3.532653809E-1,1.393601990E-1,-6.036347351E0,6.048281329E0
1.214498371E1,-1.234183502E0,-1.103205872E0,-6.673272858E0,6.875524907E0
1.215505271E1,-1.735041962E0,-1.710043945E0,-5.916895752E0,6.398771464E0
1.216512171E1,-1.820364532E0,-1.640139313E0,-4.874762878E0,5.455923122E0
1.217519071E1,-1.663640442E0,-1.390907593E0,-4.092639313E0,4.631632541E0
1.218526071E1,-1.426683197E0,-1.199605408E0,-3.572920074E0,4.029917609E0
1.219532971E1,-1.288370819E0,-9.916877747E-1,-3.144960022E0,3.540355568E0
1.220539871E1,-1.204245758E0,-9.113049316E-1,-2.853965149E0,3.228900989E0
1.221546771E1,-1.326092377E0,-8.749305725E-1,-3.284320221E0,3.648394690E0
1.222553671E1,-1.669627991E0,-7.246430969E-1,-4.354893951E0,4.719943493E0
1.223560571E1,-2.030527496E0,-3.450325012E-1,-5.002297668E0,5.409720076E0
1.224567471E1,-2.257305908E0,4.266128540E-2,-4.452341309E0,4.992052992E0
1.225574471E1,-1.990710297E0,2.465373230E-1,-2.690804443E0,3.356208678E0
1.226581371E1,-1.797911224E0,3.146456909E-1,-1.419198761E0,2.312057916E0
1.227588271E1,-1.824406128E0,3.071612549E-1,-8.029302979E-1,2.016805102E0
1.228595171E1,-1.873504028E0,3.695814514E-1,-6.004014587E-1,2.001771642E0
1.229602071E1,-1.797911224E0,6.204597473E-1,-7.180567932E-1,2.032993022E0
1.230608971E1,-1.335373077E0,9.927355957E-1,-8.042774963E-1,1.848136226E0
1.231615971E1,-6.508465576E-1,1.046024780E0,-6.240522766E-1,1.381017859E0
1.232622871E1,-3.351530457E-1,8.890013123E-1,-3.113525391E-2,9.505894494E-1
1.233629771E1,-3.854484558E-1,7.598199463E-1,8.083190918E-1,1.174426080E0
1.234636671E1,-5.047503662E-1,6.825805664E-1,1.297501831E0,1.550548343E0
1.235643571E1,-6.012995911E-1,6.468049622E-1,1.347946930E0,1.611483411E0
1.236650471E1,-6.786886597E-1,5.230123901E-1,1.333576813E0,1.585114309E0
1.237657371E1,-6.857240295E-1,4.739144897E-1,1.448238373E0,1.670989758E0
1.238664371E1,-6.174659729E-1,4.956193542E-1,1.643731842E0,1.824488186E0
1.239671271E1,-3.094065857E-1,5.590873718E-1,1.845961304E0,1.953428847E0
1.240678171E1,1.540296936E-1,6.342311096E-1,1.990410919E0,2.094686104E0
1.241685071E1,5.301974487E-1,6.876699829E-1,2.098336487E0,2.270906284E0
1.242691971E1,7.210505676E-1,7.527845764E-1,2.274819489E0,2.502279410E0
1.243698871E1,7.924520874E-1,8.726852417E-1,2.539169769E0,2.799454047E0
1.244705771E1,8.494834900E-1,1.107397156E0,2.769690399E0,3.101473129E0
1.245712771E1,1.035845947E0,2.219135284E0,3.045566711E0,3.908070474E0
1.246719671E1,1.496587830E0,6.932683411E0,3.909570007E0,8.098556170E0
1.247726571E1,2.210752716E0,1.422237442E1,6.207441559E0,1.567468317E1
1.248733471E1,3.597319336E0,2.344454681E1,9.104816437E0,2.540640006E1
1.249740371E1,5.748795319E0,3.581886429E1,1.003438339E1,3.763945452E1
1.250747271E1,8.617429962E0,4.733172318E1,1.577270050E0,4.813564063E1
1.251754171E1,1.598675537E1,5.425213211E1,-1.739113495E1,5.917196769E1
1.252761171E1,2.807711334E1,5.492019287E1,-2.608625336E0,6.173618716E1
1.253768071E1,3.687671448E1,5.233222458E1,1.702260132E0,6.404257560E1
1.254774971E1,3.335962830E1,3.894960388E1,-2.167941742E1,5.567704718E1
1.255781871E1,2.021426422E1,2.582399872E1,-2.070060287E1,3.878157226E1
1.256788771E1,1.524025772E1,2.146057251E1,-1.421429123E1,2.991433942E1
1.257795671E1,1.164338745E1,1.790441757E1,-3.462449799E0,2.163620111E1
1.258802671E1,9.756561127E0,1.472053848E1,3.034789124E0,1.791911502E1
1.259809571E1,8.304430847E0,1.187540497E1,4.645888824E0,1.521752601E1
1.260816471E1,6.684349823E0,9.295819244E0,4.386927338E0,1.226123646E1
1.261823371E1,4.584815826E0,7.148983612E0,4.070934448E0,9.418121369E0
1.262830271E1,2.672692108E0,5.887407074E0,3.571273499E0,7.386395573E0
1.263837171E1,1.404678955E0,5.027744751E0,3.513343964E0,6.292449925E0
1.264844071E1,6.608757019E-1,4.284091187E0,3.576961670E0,5.620039927E0
1.265851071E1,2.107617188E-1,3.474125519E0,3.427572327E0,4.884897202E0
1.266857971E1,-1.451980591E-2,2.434537354E0,3.013233948E0,3.873856189E0
1.267864962E1,-3.996688843E-2,1.479373627E0,2.496508484E0,2.902188534E0
1.268871862E1,-1.722917175E-1,6.424639893E-1,2.009122009E0,2.116368508E0
1.269878762E1,-3.688330078E-1,-3.996688843E-2,1.686243439E0,1.726572348E0
1.270885663E1,-6.698570251E-1,-4.691244507E-1,1.630110168E0,1.823744869E0
1.271892562E1,-8.237370300E-1,-6.086343384E-1,1.544637909E0,1.853344200E0
1.272899562E1,-8.430468750E-1,-6.231541443E-1,1.432221680E0,1.774910719E0
1.273906462E1,-8.201445007E-1,-6.703060913E-1,1.410516815E0,1.763945845E0
1.274913362E1,-7.915539551E-1,-7.273374939E-1,1.454375610E0,1.808531424E0
1.275920263E1,-7.448510742E-1,-7.929011536E-1,1.506167908E0,1.857965858E0
1.276927162E1,-6.785389709E-1,-8.355624390E-1,1.503473511E0,1.849057144E0
1.277934062E1,-7.282356262E-1,-9.375004578E-1,1.655257874E0,2.036937128E0
1.278941063E1,-8.256829834E-1,-1.072669373E0,1.905238037E0,2.337157237E0
1.279947962E1,-8.701405334E-1,-1.210532684E0,1.941762085E0,2.448055131E0
1.280954863E1,-8.638536072E-1,-2.451302490E0,2.499202881E0,3.605709638E0
1.281961762E1,-1.377884674E0,-5.169949036E0,3.822750549E0,6.575740336E0
1.282968662E1,-8.069718933E-1,-1.750459900E0,1.023421783E0,2.182362400E0
1.283975562E1,-4.237687683E-1,-7.044351196E-1,-2.764750671E-1,8.673218950E-1
1.284982462E1,-4.384382629E-1,-8.352630615E-1,-4.719685364E-1,1.054820739E0
1.285989463E1,-3.986210632E-1,-6.911128235E-1,-7.532336426E-1,1.097222223E0
1.286996362E1,-4.755610657E-1,-6.069877625E-1,-9.219328308E-1,1.201895426E0
1.288003262E1,-5.587879944E-1,-3.620970154E-1,-1.126557312E0,1.308621278E0
1.289010163E1,-4.465214539E-1,1.387614441E0,-1.295406189E0,1.950110879E0
1.290017062E1,4.140390015E-1,5.456752625E0,-8.227790222E0,9.881503400E0
1.291023963E1,1.187330933E0,4.973407745E0,-2.238415192E1,2.296072291E1
1.292030962E1,1.106648712E0,7.426057434E0,-3.173775101E1,3.261373697E1
1.293037862E1,-4.475692749E-2,8.925040283E0,-2.004571472E1,2.194285820E1
1.294044763E1,-8.825646973E-1,7.955356750E0,-3.130589905E0,8.594603808E0
1.295051662E1,-1.661544800E0,7.673043823E0,4.762646027E0,9.182544844E0
1.296058563E1,-1.773661652E0,7.701484680E0,4.891078949E0,9.294159199E0
1.297065462E1,-1.758393402E0,9.450747070E0,-2.198478241E0,9.861129455E0
1.298072362E1,-2.519261169E0,2.225766495E1,-1.066936295E1,2.481099819E1
1.299079363E1,9.753717041E-1,3.339510452E1,-8.318052521E0,3.442926595E1
1.300086262E1,4.896018677E0,3.573234421E1,7.576045532E0,3.685332939E1
1.301093162E1,7.547754364E0,4.097204819E1,6.717580719E0,4.219956421E1
1.302100062E1,1.203796692E1,4.733456726E1,-8.870254211E0,4.964025902E1
1.303106962E1,1.582763626E1,4.925432510E1,-7.025191040E0,5.220973013E1
1.304113863E1,1.368110001E1,4.463208710E1,1.732048187E0,4.671397743E1
1.305120862E1,5.461392975E0,3.545137848E1,-3.471131744E0,3.603714479E1
1.306127762E1,2.903212738E0,2.893961975E1,-2.111209717E0,2.916140329E1
1.307134662E1,3.880081329E0,2.508513519E1,5.707630920E-1,2.538985642E1
1.308141562E1,5.111570435E0,2.207369751E1,4.772076416E-1,2.266283304E1
1.309148463E1,6.017486572E0,1.962583786E1,4.830455017E-1,2.053331413E1
1.310155362E1,6.420897675E0,1.747091904E1,7.122189331E-1,1.862708229E1
1.311162262E1,6.340963898E0,1.534024979E1,7.725434875E-1,1.661709692E1
1.312169262E1,5.711822205E0,1.355191864E1,7.406597900E-1,1.472508026E1
1.313176162E1,4.650229797E0,1.237955658E1,5.658233643E-2,1.322426784E1
1.314183063E1,3.729793854E0,1.093670700E1,-1.241069183E0,1.162166834E1
1.315189962E1,2.696642303E0,8.647367706E0,-3.260220337E0,9.626935369E0
1.316196862E1,1.561702423E0,5.866450653E0,-5.596412201E0,8.256754038E0
1.317203762E1,3.998185730E-1,3.665278015E0,-5.865552521E0,6.928118373E0
1.318210662E1,-1.532812500E-1,2.745291138E0,-3.271297302E0,4.273348174E0
1.319217663E1,4.939727783E-3,2.499651947E0,-3.677851868E-1,2.526568859E0
1.320224562E1,2.347119141E-1,1.597777405E0,2.951861572E-1,1.641681207E0
1.321231462E1,3.092568970E-1,4.960684204E-1,3.676354980E-1,6.905646715E-1
1.322238362E1,3.453318787E-1,-8.108638000E-1,7.020401001E-2,8.841282778E-1
1.323245262E1,4.996609497E-1,-2.381248169E0,-1.890568542E0,3.081274626E0
1.324252163E1,1.192719727E0,-3.335663452E0,-5.566025391E0,6.597717004E0
1.325259162E1,9.815089417E-1,-3.071462860E0,-7.323670349E0,8.002086683E0
1.326266062E1,-7.851173401E-1,-2.030677185E0,-5.899232483E0,6.288163719E0
1.327272962E1,-1.094972992E0,-1.115180969E0,-3.671564941E0,3.990361333E0
1.328279862E1,-6.004014587E-1,-6.218069458E-1,-7.176077271E-1,1.123426295E0
1.329286763E1,-5.210664368E-1,-3.568579102E-1,1.628912659E0,1.747058742E0
1.330293662E1,-1.075812836E0,1.513352966E-1,2.831362152E0,3.032637015E0
1.331300562E1,-1.648222504E0,6.571334839E-1,3.502416687E0,3.926243050E0
1.332307562E1,-1.921254730E0,8.255332947E-1,3.686084747E0,4.237917616E0
1.333314462E1,-1.852098541E0,7.795788574E-1,3.485202484E0,4.023014859E0
1.334321363E1,-1.662143555E0,5.851332092E-1,3.181484070E0,3.636886437E0
1.335328262E1,-1.034798126E0,2.871029663E-1,2.970123596E0,3.158301672E0
1.336335162E1,-2.751278687E-1,1.182540894E-1,2.868784332E0,2.884372188E0
1.337342062E1,3.113525391E-1,-1.314266968E-1,2.814447327E0,2.834665260E0
1.338349062E1,5.884263611E-1,-5.063969421E-1,2.731519775E0,2.839697823E0
1.339355963E1,5.861810303E-1,-7.370672607E-1,2.630030823E0,2.793553020E0
1.340362862E1,5.993536377E-1,-8.322692871E-1,2.504891052E0,2.706727938E0
1.341369762E1,5.457650757E-1,-8.283773804E-1,2.323318634E0,2.526237930E0
1.342376662E1,4.685256958E-1,-7.852670288E-1,2.011367340E0,2.209470346E0
1.343383562E1,4.234693909E-1,-7.262896729E-1,1.620979156E0,1.826032979E0
1.344390463E1,4.147874451E-1,-6.514453125E-1,1.108894043E0,1.351323654E0
1.345397462E1,4.415817261E-1,-5.935157776E-1,6.207591248E-1,9.657107693E-1
1.346404362E1,4.649331665E-1,-5.025050354E-1,3.152444458E-1,7.536930546E-1
1.347411263E1,5.198689270E-1,-3.812571716E-1,8.232879639E-2,6.499221206E-1
1.348418162E1,6.164181519E-1,-2.508782959E-1,-1.887574768E-1,6.917663206E-1
1.349425063E1,6.587800598E-1,-1.056802368E-1,-3.894900513E-1,7.725684304E-1
1.350431962E1,5.873785400E-1,2.664459229E-2,-5.638774109E-1,8.146663232E-1
1.351438962E1,4.899311829E-1,1.670526123E-1,-9.407936096E-1,1.073793162E0
1.352445863E1,-2.737806702E-1,1.030307465E0,-3.990401917E0,4.130350685E0
1.353452762E1,-2.699636078E0,5.013374634E0,-1.094359268E1,1.233629527E1
1.354459663E1,1.230441284E0,7.118896179E0,-5.928571472E0,9.345620807E0
1.355466562E1,3.808679810E0,5.864953766E0,-6.474336548E0,9.529992566E0
1.356473462E1,2.525697784E0,7.428751831E0,-5.391937408E0,9.520424995E0
1.357480363E1,1.602866821E0,1.130958160E1,-4.402045898E0,1.224147974E1
1.358487362E1,6.266119537E0,1.930670151E1,-2.239343262E1,3.022381183E1
1.359494262E1,9.454788666E0,2.537119034E1,-1.707648926E1,3.201088586E1
1.360501162E1,9.885143738E0,2.712599121E1,-1.831441498E0,2.892904499E1
1.361508062E1,1.313922684E1,2.842933090E1,1.828896790E0,3.137213733E1
1.362514963E1,2.031305878E1,3.322236374E1,-7.275919647E0,3.961419968E1
1.363521862E1,2.611379608E1,3.888074707E1,-1.614482666E1,4.954087470E1
1.364528763E1,2.043146255E1,3.328283798E1,-1.189905579E1,4.082621088E1
1.365535762E1,1.009949799E1,2.122256744E1,-8.042475586E0,2.484106765E1
1.366542662E1,6.666237488E0,1.380369507E1,-3.864663391E0,1.580874261E1
1.367549571E1,6.005511475E0,8.942553864E0,-2.131417694E0,1.098081869E1
1.368556471E1,5.399870911E0,4.824617157E0,-3.971990204E0,8.259070332E0
1.369563371E1,4.093986511E0,2.211351471E0,-3.836222534E0,6.030539297E0
1.370570271E1,2.354453888E0,1.226549377E0,-2.778372345E0,3.842815293E0
1.371577271E1,4.718188477E-1,1.939367065E0,-5.313500519E0,5.676006114E0
1.372584171E1,1.043629761E0,5.892346802E0,-1.009051666E1,1.173147222E1
1.373591071E1,3.710783386E0,1.231638794E1,-1.120779327E1,1.706100687E1
1.374597971E1,6.390810242E0,1.892050461E1,-6.642287292E0,2.104632820E1
1.375604871E1,8.724158020E0,2.439072922E1,-1.999691620E0,2.598109643E1
1.376611771E1,1.038076309E1,2.777848434E1,-3.186872864E-1,2.965646635E1
1.377618671E1,1.032627640E1,2.767624695E1,-5.788462830E-1,2.954558668E1
1.378625671E1,7.897427216E0,2.479294281E1,-1.582658844E0,2.606845179E1
1.379632571E1,4.911436615E0,2.070853638E1,-3.717369690E0,2.160519673E1
1.380639471E1,4.170926514E0,1.761626678E1,-5.194048920E0,1.883368333E1
1.381646371E1,6.090684357E0,1.675495789E1,-4.513414307E0,1.839010490E1
1.382653271E1,8.489146729E0,1.717408630E1,-2.682571564E0,1.934453522E1
1.383660171E1,9.543703766E0,1.803524551E1,-1.001866608E0,2.042929512E1
1.384667171E1,9.456884308E0,1.852861954E1,-2.411485291E-1,2.080385915E1
1.385674071E1,8.997190247E0,1.836605759E1,-1.526824951E-2,2.045144828E1
1.386680971E1,8.398135986E0,1.733724701E1,-3.311114502E-1,1.926703030E1
1.387687871E1,7.097490692E0,1.551254150E1,-1.204844513E0,1.710160719E1
1.388694771E1,5.209616547E0,1.316527267E1,-3.196752319E0,1.451494866E1
1.389701671E1,3.183280334E0,1.058733353E1,-4.656067657E0,1.199599395E1
1.390708571E1,1.941013641E0,7.802524567E0,-4.859344940E0,9.394687691E0
1.391715571E1,1.088536377E0,5.105133820E0,-5.221142578E0,7.382928456E0
1.392722471E1,5.430706787E-1,2.764750671E0,-5.557493134E0,6.230931067E0
1.393729371E1,1.136137390E-1,7.764353943E-1,-5.207071838E0,5.265867178E0
1.394736271E1,1.475930786E-1,-4.197271729E-1,-3.590134277E0,3.617598478E0
1.395743171E1,6.939569092E-1,-5.327421570E-1,-1.587897949E0,1.812956231E0
1.396750071E1,1.235231323E0,3.577560425E-2,-8.173004150E-2,1.238449077E0
1.397757071E1,1.614392853E0,3.924838257E-1,9.586065674E-1,1.918133047E0
1.398763971E1,2.415676575E0,7.439529419E-2,1.299747162E0,2.744152084E0
1.399770871E1,3.664529572E0,-4.782554626E-1,1.546284485E0,4.006058035E0
1.400777771E1,4.727319489E0,-1.312620392E0,1.872306519E0,5.251290655E0
1.401784671E1,5.544470215E0,-2.155517578E0,1.930984497E0,6.254287099E0
1.402791571E1,5.651198273E0,-2.328707428E0,1.322799225E0,6.253696346E0
1.403798471E1,4.409380646E0,-1.756148071E0,5.026547241E-1,4.772772307E0
1.404805471E1,2.938838654E0,-1.196012878E0,2.589614868E-2,3.172993862E0
1.405812371E1,1.835333405E0,-8.147557068E-1,5.014572144E-2,2.008678710E0
1.406819271E1,8.722361755E-1,-5.361849976E-1,1.459465027E-1,1.034210172E0
1.407826171E1,9.909393311E-2,-3.858975220E-1,1.270857239E-1,4.181952729E-1
1.408833071E1,-3.685336304E-1,-3.489244080E-1,2.303709412E-1,5.573473331E-1
1.409839971E1,-5.703140259E-1,-2.835104370E-1,4.348457336E-1,7.711854952E-1
1.410846971E1,-7.723937988E-1,-1.727407837E-1,7.216493225E-1,1.071078570E0
1.411853871E1,-1.010249176E0,-7.679031372E-2,1.127156067E0,1.515579410E0
1.412860771E1,-1.255738678E0,-5.987548828E-2,1.575174408E0,2.015350867E0
1.413867671E1,-1.415456543E0,-3.113525391E-2,2.024090881E0,2.470107391E0
1.414874571E1,-1.607058105E0,4.490661621E-2,2.435136108E0,2.917968510E0
1.415881471E1,-1.729204102E0,1.460961914E-1,2.685265961E0,3.197208814E0
1.416888471E1,-1.749112701E0,2.752775574E-1,2.716999969E0,3.243032811E0
1.417895371E1,-1.797312469E0,4.062551880E-1,2.639311523E0,3.218903650E0
1.418902271E1,-1.807341614E0,4.996609497E-1,2.539020081E0,3.156385234E0
1.419909171E1,-1.661694489E0,5.830375671E-1,2.358794861E0,2.943649873E0
1.420916071E1,-1.565294952E0,6.722520447E-1,1.994901581E0,2.623300100E0
1.421922971E1,-1.525178375E0,6.786886597E-1,1.592388611E0,2.307051985E0
1.422929871E1,-1.335073700E0,6.661148071E-1,1.313368835E0,1.987729463E0
1.423936871E1,-9.493258667E-1,7.996371460E-1,1.115480347E0,1.668812623E0
1.424943771E1,-2.761756897E-1,2.230062561E0,2.491269379E0,3.354977668E0
1.425950671E1,4.790039063E-2,6.232289886E0,2.027533722E0,6.553977775E0
1.426957571E1,-1.976789246E0,2.686313782E0,-2.076736404E1,2.103348252E1
1.427964471E1,-2.218386841E-1,4.276307373E0,-3.327265915E1,3.354706938E1
1.428971371E1,2.350861359E0,3.836970978E0,-1.279194901E1,1.356034125E1
1.429978371E1,6.420149231E-1,4.010310516E0,-3.418591003E0,5.308628641E0
1.430985271E1,1.127904510E0,7.347321167E0,-6.050268402E0,9.584416761E0
1.431992171E1,8.021818542E-1,1.645288605E1,-2.130369873E0,1.660961862E1
1.432999071E1,-2.708168335E0,1.990171417E1,1.071636520E1,2.276516826E1
1.434005971E1,-2.647394714E0,2.371024429E1,5.829327850E0,2.455942683E1
1.435012871E1,9.252259827E-1,3.691323853E1,-2.791170731E1,4.628721882E1
1.436019771E1,3.386258240E0,4.686484406E1,-3.423246323E1,5.813468751E1
1.437026771E1,7.788154449E0,3.706846573E1,-1.093326416E0,3.789355966E1
1.438033671E1,1.000489471E1,2.515713547E1,8.495433655E0,2.837519650E1
1.439040571E1,8.859626312E0,2.044807800E1,-9.310189362E0,2.415153201E1
1.440047471E1,6.404431915E0,1.634870270E1,-1.268162842E1,2.165919037E1
1.441054371E1,5.808521118E0,1.390069336E1,-4.617597656E0,1.575723331E1
1.442061271E1,7.143445129E0,1.220546860E1,-5.536985779E0,1.518751077E1
1.443068271E1,9.271869049E0,1.449735260E1,-1.026759842E1,2.003907097E1
1.444075171E1,9.974807281E0,2.002490799E1,-1.036160294E1,2.465474672E1
1.445082071E1,1.063643143E1,2.414044968E1,-8.753347321E0,2.779417337E1
1.446088971E1,1.140777740E1,2.662797684E1,-7.214247894E0,2.985350747E1
1.447095871E1,1.078297668E1,2.808070587E1,-5.357658691E0,3.055328354E1
1.448102771E1,8.520431671E0,2.775154037E1,-3.286415863E0,2.921551434E1
1.449109671E1,5.840853882E0,2.595617386E1,-1.152154083E0,2.663017076E1
1.450116671E1,4.683311005E0,2.452320374E1,4.281097412E-2,2.496643259E1
1.451123571E1,5.103636932E0,2.371219025E1,3.466790771E-1,2.425768461E1
1.452130471E1,6.293811951E0,2.299143906E1,8.984317017E-1,2.385425577E1
1.453137371E1,7.837551727E0,2.184272781E1,5.712121582E-1,2.321332072E1
1.454144271E1,7.899672546E0,2.015378998E1,-5.941145325E-1,2.165486202E1
1.455151171E1,6.435417480E0,1.816637283E1,-1.818568268E0,1.935817374E1
1.456158171E1,4.687951355E0,1.589185272E1,-3.343447266E0,1.690285510E1
1.457165071E1,3.258723450E0,1.312575485E1,-4.307292938E0,1.419357219E1
1.458171971E1,2.085014191E0,1.006836273E1,-4.047732697E0,1.105003856E1
1.459178871E1,1.066831512E0,7.123237152E0,-3.114273834E0,7.847122945E0
1.460185771E1,-2.128573608E-1,4.312382355E0,-3.893553314E0,5.813923567E0
1.461192671E1,-1.232686615E0,1.899250488E0,-5.167554016E0,5.641833321E0
1.462199671E1,-9.990225220E-1,1.945953369E-1,-2.491568756E0,2.691436087E0
1.463206571E1,-3.403921509E-1,-6.146218872E-1,9.954299927E-2,7.096024868E-1
1.464213471E1,-3.367996216E-2,-9.864486694E-1,7.340734863E-1,1.230072844E0
1.465220371E1,2.508782959E-1,-1.650767212E0,6.991960144E-1,1.810206445E0
1.466227271E1,9.345066833E-1,-2.208208008E0,-2.980302429E-1,2.416258962E0
1.467234171E1,1.719923401E0,-2.394271088E0,-1.673819275E0,3.390035621E0
1.468241000E1,2.437980194E0,-2.513273621E0,-2.585872650E0,4.352818522E0
1.469248000E1,3.506308594E0,-2.681673431E0,-3.717968445E0,5.771382998E0
1.470254900E1,4.396806793E0,-2.893333282E0,-4.198618927E0,6.732881133E0
1.471261800E1,4.700225830E0,-3.022514648E0,-3.517834625E0,6.603247542E0
1.472268700E1,3.758384399E0,-2.752476196E0,-2.231858826E0,5.165536983E0
1.473275600E1,1.997146912E0,-1.888323212E0,-1.009800110E0,2.928149006E0
1.474282500E1,6.658154297E-1,-1.135538635E0,-1.760339355E-1,1.328061040E0
1.475289500E1,-2.086660767E-1,-6.942562866E-1,3.498225403E-1,8.049280295E-1
1.476296400E1,-7.057823181E-1,-5.149291992E-1,9.111552429E-1,1.262333014E0
1.477303300E1,-1.175206146E0,-4.775070190E-1,1.638941803E0,2.072499137E0
1.478310200E1,-1.611249390E0,-4.646337891E-1,2.368075562E0,2.901687616E0
1.479317100E1,-1.885628815E0,-5.014572144E-1,2.940335541E0,3.528828199E0
1.480324000E1,-2.048041077E0,-5.662724304E-1,3.227737885E0,3.864379454E0
1.481330900E1,-2.002086639E0,-6.237528992E-1,3.197800140E0,3.824048160E0
1.482337900E1,-1.803599396E0,-5.804928589E-1,2.975662079E0,3.527677359E0
1.483344800E1,-1.591041412E0,-4.899311829E-1,2.418370972E0,2.935977435E0
1.484351700E1,-1.391057281E0,-4.430786133E-1,1.831142120E0,2.341888230E0
1.485358600E1,-1.117575989E0,-3.962260437E-1,1.346599731E0,1.794241345E0
1.486365500E1,-8.686436462E-1,-3.463796997E-1,9.125024414E-1,1.306591515E0
1.487372400E1,-6.854246521E-1,-2.835104370E-1,4.948709106E-1,8.916738977E-1
1.488379400E1,-5.849835205E-1,-2.528242493E-1,8.397537231E-2,6.427889883E-1
1.489386300E1,-5.123844910E-1,-2.625540161E-1,-2.839595032E-1,6.419544200E-1
1.490393200E1,-3.908372498E-1,-2.797682190E-1,-5.239105225E-1,7.109896256E-1
1.491400100E1,-2.444416809E-1,-2.644999695E-1,-6.483018494E-1,7.416247414E-1
1.492407000E1,-1.122665405E-2,-1.251397705E-1,-7.105723572E-1,7.215948134E-1
1.493413900E1,1.567240906E-1,9.999206543E-2,-7.340734863E-1,7.572481344E-1
1.494420900E1,1.302291870E-1,2.546205139E-1,-6.997947693E-1,7.559788134E-1
1.495427800E1,1.249900818E-1,2.621049500E-1,-6.375242615E-1,7.005417256E-1
1.496434700E1,1.592687988E-1,2.604583740E-1,-7.093748474E-1,7.722809003E-1
1.497441600E1,2.251318359E-1,2.927911377E-1,-8.216413879E-1,9.008360363E-1
1.498448500E1,2.576142883E-1,4.086502075E-1,-9.357041931E-1,1.053044373E0
1.499455400E1,6.381230164E-1,3.291056213E0,8.351133728E-1,3.454803371E0
1.500462300E1,2.395019531E-1,5.452411652E0,-3.405268707E0,6.432884965E0
1.501469300E1,-5.248086548E-1,3.021766205E0,-1.520717651E1,1.551337206E1
1.502476200E1,-4.893324280E-1,6.045927429E0,-2.599105133E1,2.668946298E1
1.503483100E1,-8.885522461E-1,9.091045074E0,-2.516132675E1,2.676805913E1
1.504490000E1,-3.338058472E-2,1.505015305E1,-1.596041016E1,2.193724945E1
1.505496900E1,2.614612885E0,2.473516296E1,-1.555864563E0,2.492158105E1
1.506503800E1,3.622017975E0,3.202964401E1,5.280718689E0,3.266348266E1
1.507510800E1,6.349196777E0,5.155953140E1,-1.848640732E1,5.514022881E1
1.508517700E1,9.272767181E0,6.297284729E1,-1.104208786E1,6.460256505E1
1.509524600E1,9.982890472E0,4.904775467E1,1.476140350E1,5.218466608E1
1.510531500E1,5.524112549E0,3.154555069E1,-9.056167603E-1,3.203837901E1
1.511538400E1,2.210453339E0,2.379721344E1,-1.028601013E1,2.601913672E1
1.512545300E1,6.481521606E-1,1.989318192E1,-2.381248169E0,2.004567611E1
1.513552300E1,-3.231779480E-1,1.660721512E1,-7.259154510E0,1.812730984E1
1.514559200E1,2.394121399E0,1.960697708E1,-1.034917877E1,2.229957105E1
1.515566100E1,7.392976227E0,2.640284500E1,-8.717122650E0,2.877072382E1
1.516573000E1,1.054107971E1,3.058649506E1,-9.010063477E0,3.358316967E1
1.517579900E1,1.049692154E1,3.109947830E1,-6.609804840E0,3.348212109E1
1.518586800E1,1.002136047E1,2.934871902E1,-3.938609619E0,3.126159976E1
1.519593700E1,1.007524841E1,2.616199585E1,-2.872975616E0,2.818181411E1
1.520600700E1,9.902208252E0,2.266900955E1,-1.285975800E0,2.477077827E1
1.521607600E1,9.479487305E0,1.989527756E1,6.881190491E-1,2.204895137E1
1.522614500E1,8.697363739E0,1.780382675E1,1.894610138E0,1.990502275E1
1.523621400E1,7.850724335E0,1.632340530E1,2.584226074E0,1.829660235E1
1.524628300E1,7.038812714E0,1.518487289E1,2.282902679E0,1.689191800E1
1.525635200E1,6.164780273E0,1.413031586E1,8.843609619E-1,1.544190520E1
1.526642200E1,5.273982697E0,1.248359024E1,-8.372090149E-1,1.357776998E1
1.527649100E1,4.140988770E0,1.017658768E1,-2.357747040E0,1.123697895E1
1.528656000E1,2.694097595E0,7.846682739E0,-3.781286774E0,9.117385674E0
1.529662900E1,1.520088959E0,5.835764465E0,-4.714745636E0,7.654779144E0
1.530669800E1,4.942721558E-1,4.195026398E0,-5.401816864E0,6.857271824E0
1.531676700E1,-1.279838562E-1,3.160827026E0,-4.429289246E0,5.442959726E0
1.532683700E1,1.990859985E-2,2.749781799E0,-1.474733276E0,3.120342054E0
1.533690600E1,4.462220764E-1,2.069596252E0,6.713539124E-1,2.221049046E0
1.534697500E1,8.433462524E-1,1.273551636E0,1.300046539E0,2.005813470E0
1.535704400E1,7.264393616E-1,4.866380310E-1,1.706750793E0,1.917688450E0
1.536711300E1,3.838018799E-1,-5.273533630E-1,2.211950226E0,2.306106948E0
1.537718200E1,3.986210632E-1,-1.534908142E0,2.511627045E0,2.970372396E0
1.538725200E1,1.259331207E0,-2.297123108E0,1.890269165E0,3.230449996E0
1.539732100E1,2.477048950E0,-3.018473053E0,4.378395081E-1,3.929205328E0
1.540739000E1,3.785328369E0,-3.746409302E0,-2.028581543E0,5.699073310E0
1.541745900E1,4.534819794E0,-4.107458496E0,-3.648812256E0,7.123877928E0
1.542752800E1,4.146227875E0,-3.913012848E0,-3.506009216E0,6.692904882E0
1.543759700E1,3.150797882E0,-3.231629791E0,-2.632276154E0,5.224924511E0
1.544766600E1,2.108665009E0,-2.331850891E0,-1.749112701E0,3.597692585E0
1.545773600E1,1.206940155E0,-1.639241180E0,-8.485853577E-1,2.205428143E0
1.546780500E1,3.781137085E-1,-1.200204163E0,-8.981323242E-3,1.258388125E0
1.547787400E1,-2.974314880E-1,-9.418414307E-1,6.706054688E-1,1.193835192E0
1.548794300E1,-7.453001404E-1,-8.222401428E-1,1.267115021E0,1.684378707E0
1.549801200E1,-1.096020813E0,-7.448510742E-1,1.660496979E0,2.124456392E0
1.550808100E1,-1.427132263E0,-6.994953918E-1,1.891017609E0,2.470212116E0
1.551815100E1,-1.649569702E0,-6.545887756E-1,2.021097107E0,2.689684030E0
1.552822000E1,-1.698966980E0,-6.264472961E-1,1.892664185E0,2.619370674E0
1.553828900E1,-1.588646393E0,-5.647755432E-1,1.531614990E0,2.277852773E0
1.554835800E1,-1.393452301E0,-4.837939453E-1,1.201102295E0,1.902212559E0
1.555842700E1,-1.295256500E0,-4.171824646E-1,9.449848938E-1,1.656721781E0
1.556849600E1,-1.206042023E0,-3.568579102E-1,7.069798279E-1,1.442811632E0
1.557856500E1,-1.111738129E0,-3.023712158E-1,3.550616455E-1,1.205594787E0
1.558863500E1,-1.050365753E0,-2.683918762E-1,-7.948471069E-2,1.087023566E0
1.559870400E1,-1.026565247E0,-2.285746765E-1,-5.740562439E-1,1.198174929E0
1.560877300E1,-1.125659180E0,-1.972897339E-1,-1.229243774E0,1.678413562E0
1.561884200E1,-1.309925995E0,-1.318757629E-1,-1.962718506E0,2.363379204E0
1.562891100E1,-1.494641876E0,-4.790039062E-3,-2.293979645E0,2.737940813E0
1.563898000E1,-1.354383545E0,1.886077881E-1,-1.495240631E0,2.026245846E0
1.564905000E1,-1.026116180E0,3.861968994E-1,-3.811074829E-1,1.160734842E0
1.565911900E1,-7.309300232E-1,6.367758179E-1,3.103047180E-1,1.017856158E0
1.566918800E1,-4.529580688E-1,9.593550110E-1,7.714956665E-1,1.311769268E0
1.567925771E1,-1.254391479E-1,1.772913208E0,1.379231873E0,2.249719267E0
1.568932671E1,3.306623840E-1,3.208577728E0,2.219135284E0,3.915210092E0
1.569939571E1,3.118016052E-1,3.301684113E0,9.011260986E-1,3.436621374E0
1.570946571E1,2.344125366E-1,2.848726044E0,-5.822741547E0,6.486486601E0
1.571953471E1,1.481020203E0,5.641767883E0,-2.182132233E1,2.258745390E1
1.572960371E1,3.270548859E0,1.076291840E1,-4.294030518E1,4.438926346E1
1.573967271E1,1.751956787E0,1.129116989E1,-2.091106522E1,2.382923663E1
1.574974171E1,-1.048120422E0,9.657018127E0,7.564519501E0,1.231172250E1
1.575981071E1,-2.846780090E0,9.804461517E0,1.438688232E1,1.764125862E1
1.576988071E1,-3.834126892E0,1.693054276E1,1.276485535E1,2.154728148E1
1.577994971E1,-4.091591492E0,3.784654770E1,2.847229156E0,3.817340707E1
1.579001871E1,-2.075284424E0,5.874189560E1,-4.218916718E1,7.235221442E1
1.580008771E1,3.833528137E0,5.945591080E1,-7.202721863E0,6.001316913E1
1.581015671E1,4.669090576E0,5.054958160E1,1.497920059E1,5.292860340E1
1.582022571E1,-2.980152740E0,4.596925644E1,-1.859103973E1,4.967575471E1
1.583029471E1,-2.095342712E0,3.557487167E1,-1.348036743E1,3.810094831E1
1.584036471E1,8.207432556E-1,2.804957062E1,-4.216431885E0,2.837658065E1
1.585043371E1,1.807491302E0,2.695893860E1,-1.276500504E1,2.988305120E1
1.586050271E1,4.521647186E0,2.810330887E1,-8.425529022E0,2.968553186E1
1.587057171E1,6.499484253E0,2.725172974E1,-4.332440643E0,2.834907602E1
1.588064071E1,7.217840424E0,2.538271637E1,-4.047283630E0,2.669756572E1
1.589070971E1,7.676786041E0,2.307376785E1,-1.846560059E0,2.438732439E1
1.590077971E1,7.878117371E0,2.089280319E1,2.703378296E-1,2.233040620E1
1.591084871E1,7.708070984E0,1.960218704E1,1.513203278E0,2.111752541E1
1.592091771E1,7.134463806E0,1.901121597E1,2.254461823E0,2.043060216E1
1.593098671E1,6.259982300E0,1.830139206E1,2.276915131E0,1.947595112E1
1.594105571E1,5.226830750E0,1.711540833E1,1.732048187E0,1.797934795E1
1.595112471E1,4.518803101E0,1.568782700E1,7.030879211E-1,1.634080261E1
1.596119471E1,3.761677551E0,1.379127090E1,-5.953120422E-1,1.430747244E1
1.597126371E1,2.693498840E0,1.169143753E1,-1.883383484E0,1.214461942E1
1.598133271E1,1.839375000E0,9.560319214E0,-2.937491455E0,1.016916220E1
1.599140171E1,1.104702759E0,7.280110931E0,-3.481609955E0,8.145059314E0
1.600147071E1,8.307723999E-2,5.068460083E0,-4.858147430E0,7.021238203E0
1.601153971E1,-7.366181946E-1,3.430865479E0,-4.987179108E0,6.097983253E0
1.602160971E1,-3.873944092E-1,2.650388489E0,-1.332379303E0,2.991633028E0
1.603167871E1,4.273612976E-1,1.510359192E0,7.943980408E-1,1.759230177E0
1.604174771E1,6.533912659E-1,-8.705895996E-1,3.688330078E-1,1.149297257E0
1.605181671E1,1.918560333E0,-1.921105042E0,-3.383414154E0,4.338088251E0
1.606188571E1,3.626808014E0,-1.349144440E0,-8.876241760E0,9.683057104E0
1.607195471E1,3.556753693E0,-8.827143860E-1,-7.338788910E0,8.202896085E0
1.608202371E1,2.332599335E0,-6.107299805E-1,-3.182382202E0,3.992689225E0
1.609209371E1,1.354533234E0,-6.420149231E-1,-4.249662781E-1,1.558056411E0
1.610216271E1,9.812095642E-1,-8.683442688E-1,1.075513458E0,1.695146948E0
1.611223171E1,5.963598633E-1,-1.174607391E0,2.117197266E0,2.493566095E0
1.612230071E1,1.178050232E-1,-1.336121521E0,2.784509583E0,3.090726833E0
1.613236971E1,-4.965174866E-1,-1.269060974E0,3.056044922E0,3.346110568E0
1.614243871E1,-9.795629883E-1,-1.099313965E0,2.956202545E0,3.302600238E0
1.615250871E1,-1.331032104E0,-8.506809998E-1,2.807411957E0,3.221314409E0
1.616257771E1,-1.499581604E0,-6.204597473E-1,2.832709351E0,3.264652746E0
1.617264671E1,-1.521436157E0,-4.962181091E-1,3.084635468E0,3.475050555E0
1.618271571E1,-1.433568878E0,-4.790039062E-1,3.226540375E0,3.563022209E0
1.619278471E1,-1.232686615E0,-4.790039062E-1,2.941083984E0,3.224738135E0
1.620285371E1,-1.024768982E0,-4.496649170E-1,2.144440613E0,2.418878985E0
1.621292371E1,-8.783734131E-1,-4.022135925E-1,1.262923737E0,1.590060373E0
1.622299271E1,-7.473957825E-1,-3.424877930E-1,6.976991272E-1,1.078277523E0
1.623306171E1,-6.500981140E-1,-2.860551453E-1,3.073109436E-1,7.738831437E-1
1.624313071E1,-6.012995911E-1,-2.665956116E-1,6.885681152E-2,6.613438431E-1
1.625319971E1,-5.851332092E-1,-2.618055725E-1,-1.273851013E-1,6.535671307E-1
1.626326871E1,-5.975573730E-1,-2.594105530E-1,-2.480342102E-1,6.970578301E-1
1.627333871E1,-5.843847656E-1,-2.459385681E-1,-3.344046021E-1,7.168108338E-1
1.628340771E1,-5.822891235E-1,-2.417472839E-1,-3.992198181E-1,7.462431479E-1
1.629347671E1,-5.938151550E-1,-2.492317200E-1,-4.870870972E-1,8.074569517E-1
1.630354571E1,-6.020480347E-1,-2.531236267E-1,-5.402265930E-1,8.475719310E-1
1.631361471E1,-6.430627441E-1,-2.415975952E-1,-6.071374512E-1,9.167960381E-1
1.632368371E1,-7.123686218E-1,-1.945953369E-1,-7.141648865E-1,1.027310997E0
1.633375371E1,-7.848179626E-1,-1.420545959E-1,-8.574169922E-1,1.171017780E0
1.634382271E1,-8.406518555E-1,-1.351689148E-1,-1.052760773E0,1.353983538E0
1.635389171E1,-9.086105347E-1,-1.821711731E-1,-1.260977783E0,1.564872011E0
1.636396071E1,-9.617500305E-1,-2.791694641E-1,-1.644629974E0,1.925540564E0
1.637402971E1,-1.072070618E0,-5.333409119E-1,-2.298619995E0,2.591802813E0
1.638409871E1,-1.616638184E0,-6.930587769E-1,-3.404220886E0,3.831784092E0
1.639416771E1,-1.256487122E0,1.070873108E0,-5.085524597E0,5.346783101E0
1.640423771E1,-8.277786255E-2,2.887944489E0,-9.900112610E0,1.031306478E1
1.641430671E1,-3.499722290E-1,3.790268097E0,-1.976340179E1,2.012661579E1
1.642437571E1,-8.638536072E-1,5.675298157E0,-2.462858459E1,2.528878074E1
1.643444471E1,-5.134323120E-1,5.406756592E0,-7.497608643E0,9.258010852E0
1.644451371E1,1.085392914E0,5.108726349E0,4.001478882E0,6.579437356E0
1.645458271E1,2.183509369E0,6.827452240E0,-4.999303894E0,8.739270947E0
1.646465271E1,7.985893250E-1,1.282368301E1,-6.052813110E0,1.420285667E1
1.647472171E1,-4.793032837E-1,2.622112289E1,1.223944794E1,2.894099347E1
1.648479071E1,5.486091614E-1,4.039410004E1,1.367556152E1,4.264979804E1
1.649485971E1,4.082759857E0,5.933406418E1,-1.227896576E1,6.072868433E1
1.650492871E1,1.046294220E1,5.546491013E1,-3.010270111E1,6.396875823E1
1.651499771E1,6.998995514E0,3.456671814E1,-3.129991150E0,3.540679011E1
1.652506771E1,-8.831634521E-2,2.135384445E1,9.102122040E0,2.321299417E1
1.653513671E1,-4.567901001E0,1.475017685E1,-8.272247772E0,1.751752037E1
1.654520571E1,-8.261021118E0,1.254870483E1,-1.570818466E1,2.173618017E1
1.655527471E1,-1.007719437E1,1.478685059E1,-8.248896332E0,1.970393583E1
1.656534371E1,-1.129116989E1,2.072664871E1,-3.632795563E0,2.388057135E1
1.657541271E1,-7.767796783E0,2.859129410E1,-7.789052582E0,3.063445944E1
1.658548271E1,-3.010988617E0,3.397544769E1,-7.300468597E0,3.488114018E1
1.659555171E1,-1.402882690E0,3.492881516E1,-5.602250061E0,3.540304244E1
1.660562071E1,3.772155762E-2,2.978970200E1,-6.499783630E0,3.049057158E1
1.661568971E1,1.352736969E0,2.412578018E1,-6.418802032E0,2.500168367E1
1.662575871E1,1.902393951E0,2.089534790E1,-6.953490143E0,2.210397457E1
1.663582771E1,1.943408661E0,1.914668427E1,-7.077731781E0,2.050528329E1
1.664589771E1,2.019600220E0,1.842623245E1,-4.949756927E0,1.918606059E1
1.665596671E1,2.642904053E0,1.859178818E1,-1.832339630E0,1.886788271E1
1.666603571E1,3.773802338E0,1.916868851E1,6.735992432E-1,1.954824645E1
1.667610425E1,4.956043854E0,1.949860245E1,2.055375824E0,2.022331422E1
1.668617325E1,5.657036133E0,1.959604980E1,2.644999695E0,2.056704279E1
