"Time (s)","Acceleration x (m/s^2)","Acceleration y (m/s^2)","Acceleration z (m/s^2)","Absolute acceleration (m/s^2)"
-1.589708263E-3,-1.771715698E0,-2.267784119E0,2.226470032E0,3.638542308E0
8.479291690E-3,-1.274150391E0,-1.503473511E0,3.185375977E0,3.745732495E0
1.854729163E-2,-1.206640778E0,-1.088985443E0,3.269051971E0,3.650831693E0
2.861629170E-2,-8.610095215E-1,-1.183139648E0,2.706970825E0,3.077149309E0
3.868529166E-2,-2.460882568E-1,-1.524280243E0,1.577270050E0,2.207208758E0
4.875329172E-2,2.363584900E-1,-1.905088348E0,-2.499801636E-2,1.919857248E0
5.882229167E-2,8.002359009E-1,-2.262694702E0,-1.215173035E0,2.690132026E0
6.889129174E-2,1.063238983E0,-2.432142334E0,-1.722468109E0,3.164283466E0
7.896029169E-2,1.016386414E0,-2.260748749E0,-1.758243713E0,3.038987858E0
8.902829164E-2,5.400769043E-1,-1.919757843E0,-1.374890900E0,2.422287808E0
9.909729171E-2,3.502716064E-2,-1.569935303E0,-7.948471069E-1,1.760030023E0
1.091662917E-1,-4.879852295E-2,-1.371597748E0,-4.893324280E-1,1.457088845E0
1.192342917E-1,-1.945953369E-3,-1.409019928E0,-4.920268250E-1,1.492458154E0
1.293032917E-1,9.145980835E-2,-1.353784790E0,-4.781057739E-1,1.438639387E0
1.393722917E-1,1.999841309E-1,-1.220412140E0,-4.447251892E-1,1.314222180E0
1.494412917E-1,1.387614441E-1,-1.500479736E0,-8.288264465E-1,1.719781223E0
1.595092916E-1,-1.019380188E-1,-1.981130219E0,-1.228046265E0,2.333102212E0
1.695782917E-1,-2.152523804E-1,-2.273921356E0,-1.194815369E0,2.577719086E0
1.796472917E-1,-1.483415222E-1,-2.609373779E0,-1.103954315E0,2.837173216E0
1.897162917E-1,-2.206411743E-1,-3.045716400E0,-1.009650421E0,3.216281221E0
1.997842917E-1,-2.137554932E-1,-3.214565277E0,-3.541635132E-1,3.241072836E0
2.098532917E-1,-1.284329224E-1,-3.207380219E0,3.897894287E-1,3.233530374E0
2.199222917E-1,2.604583740E-2,-3.212769012E0,7.770341492E-1,3.305502259E0
2.299902916E-1,6.526428223E-2,-3.180885315E0,1.054257660E0,3.351678688E0
2.400592917E-1,1.160087585E-1,-2.945275269E0,1.309476929E0,3.225342504E0
2.501282917E-1,1.827699280E-1,-2.625989227E0,1.357826385E0,2.961910998E0
2.601972917E-1,2.279759216E-1,-2.448608093E0,1.339414673E0,2.800301105E0
2.702652917E-1,3.092568970E-1,-2.316582642E0,1.379980316E0,2.714137181E0
2.803342917E-1,3.674858093E-1,-2.352657623E0,1.322948914E0,2.724011296E0
2.904032917E-1,3.501219177E-1,-2.480940857E0,1.199006653E0,2.777637458E0
3.004712916E-1,3.403921509E-1,-2.491868134E0,1.047072601E0,2.724267726E0
3.105402917E-1,2.041754150E-1,-2.543510742E0,7.550299072E-1,2.661053298E0
3.206092917E-1,-8.113128662E-2,-2.635419617E0,2.948867798E-1,2.653107057E0
3.306782917E-1,-4.249662781E-1,-2.752476196E0,1.661544800E-2,2.785138708E0
3.407462917E-1,-8.279283142E-1,-3.003055115E0,-9.325607300E-2,3.116488731E0
3.508152917E-1,-1.258283386E0,-3.667074280E0,-3.098556519E-2,3.877069893E0
3.608842917E-1,-1.725162506E0,-4.884043579E0,3.408412170E-1,5.190976795E0
3.709532917E-1,-2.110161896E0,-6.521638184E0,7.629634094E-1,6.896858777E0
3.810212917E-1,-2.091001740E0,-8.357720032E0,1.100062408E0,8.685269697E0
3.910902917E-1,-1.643881531E0,-1.033959869E1,1.790277100E0,1.062142833E1
4.011592917E-1,-1.291663971E0,-1.205113953E1,2.477348328E0,1.237075642E1
4.112272917E-1,-1.093775482E0,-1.325478653E1,3.035387878E0,1.364182137E1
4.212962916E-1,-9.566606140E-1,-1.410427002E1,3.448678436E0,1.455125477E1
4.313652917E-1,-7.556286621E-1,-1.462922836E1,3.136727142E0,1.498079952E1
4.414342917E-1,-1.324745178E-1,-1.506736725E1,2.352208557E0,1.525044230E1
4.515022917E-1,3.394940186E-1,-1.560774353E1,1.516047363E0,1.568487532E1
4.615712917E-1,1.507365417E-1,-1.614228195E1,9.169931030E-1,1.616900938E1
4.716402917E-1,-7.568261719E-1,-1.637250320E1,1.035097504E0,1.642263907E1
4.817082917E-1,-1.703457642E0,-1.641007507E1,1.733545074E0,1.658907804E1
4.917772916E-1,-2.277813263E0,-1.640333908E1,2.417622528E0,1.673627393E1
5.018462917E-1,-2.444117432E0,-1.619317612E1,2.688559113E0,1.659581311E1
5.119152917E-1,-2.389481049E0,-1.677157333E1,2.431992645E0,1.711461013E1
5.219832917E-1,-1.703307953E0,-1.713546661E1,1.776206360E0,1.731127907E1
5.320522917E-1,-8.240364075E-1,-1.690225159E1,1.107397156E0,1.695852214E1
5.421212917E-1,-3.737727356E-1,-1.729623230E1,4.297563171E-1,1.730560742E1
5.521902917E-1,-1.799258423E-1,-1.758333527E1,1.166075134E-1,1.758464244E1
5.622582916E-1,-1.284329224E-1,-1.756267822E1,1.115180969E-1,1.756350186E1
5.723272917E-1,-4.812492371E-1,-1.753498581E1,7.319778442E-2,1.754174125E1
5.823962917E-1,-1.031804352E0,-1.745116013E1,2.794688416E-1,1.748387007E1
5.924642917E-1,-1.372196503E0,-1.757585083E1,1.971400452E-1,1.763043731E1
6.025332917E-1,-1.276695099E0,-1.816248093E1,-7.768844604E-2,1.820746274E1
6.126022917E-1,-8.204438782E-1,-1.890583511E1,-1.773811340E-1,1.892446019E1
6.226712917E-1,-2.574645996E-2,-1.960233673E1,-4.662803650E-1,1.960789855E1
6.327392916E-1,6.342311096E-1,-2.046349594E1,-2.236349487E-1,2.047454341E1
6.428082917E-1,1.026864624E0,-2.130803970E1,5.806425476E-1,2.134066898E1
6.528772917E-1,1.335522766E0,-2.179348022E1,1.313817902E0,2.187385469E1
6.629452917E-1,9.964778137E-1,-2.214494934E1,1.891915741E0,2.224794585E1
6.730142917E-1,4.161346436E-1,-2.242681320E1,2.121538239E0,2.253077990E1
6.830832917E-1,-3.941304016E-1,-2.255853928E1,2.091001740E0,2.265866989E1
6.931522917E-1,-1.289867706E0,-2.247022293E1,2.200424194E0,2.261452064E1
7.032202916E-1,-2.090702362E0,-2.211231720E1,2.555186462E0,2.235742799E1
7.132892917E-1,-2.446961517E0,-2.164394119E1,3.739074554E0,2.210041831E1
7.233582917E-1,-2.424657898E0,-2.133618118E1,5.694757690E0,2.221580200E1
7.334272917E-1,-2.165995789E0,-2.084370529E1,7.075636139E0,2.211823263E1
7.434952917E-1,-1.653461609E0,-1.997491196E1,7.275320892E0,2.132278915E1
7.535642918E-1,-9.828561401E-1,-1.887709488E1,6.397546234E0,1.995593433E1
7.636332917E-1,-2.356100464E-1,-1.771895325E1,4.977599030E0,1.840633881E1
7.737012916E-1,1.779798889E-1,-1.670675812E1,3.666475525E0,1.710527657E1
7.837702917E-1,3.469784546E-1,-1.586490875E1,2.792293396E0,1.611249907E1
7.938392917E-1,5.146298218E-1,-1.531315613E1,2.145039368E0,1.547122453E1
8.039082917E-1,7.708969116E-1,-1.497530869E1,1.634900208E0,1.508399983E1
8.139762917E-1,9.452842712E-1,-1.469284607E1,1.730251923E0,1.482454248E1
8.240452916E-1,8.756790161E-1,-1.382989059E1,2.665357361E0,1.411158451E1
8.341142917E-1,5.926176453E-1,-1.274389893E1,3.643423462E0,1.326773116E1
8.441822917E-1,2.538720703E-1,-1.170820267E1,3.920946350E0,1.234991016E1
8.542512917E-1,-2.345622253E-1,-1.029364426E1,3.280727692E0,1.080635488E1
8.643202917E-1,-3.673361206E-1,-8.630303192E0,2.426304474E0,8.972403380E0
8.743892917E-1,-2.998265076E-1,-7.125632172E0,1.937421112E0,7.390407996E0
8.844572917E-1,-1.594184875E-1,-5.522915039E0,2.267784119E0,5.972507814E0
8.945262916E-1,-1.806742859E-1,-3.831731873E0,3.336860962E0,5.084235775E0
9.045952917E-1,-4.637356567E-1,-2.336640930E0,3.674109650E0,4.378815287E0
9.146642917E-1,-9.485774231E-1,-1.371597748E0,3.062631226E0,3.487232360E0
9.247322917E-1,-1.255888367E0,-9.168434143E-1,2.307451630E0,2.782479193E0
9.348012917E-1,-1.337618408E0,-6.304888916E-1,1.542392578E0,2.136753171E0
9.448702917E-1,-1.136885834E0,-3.980223083E-1,1.253493347E0,1.738440890E0
9.549382917E-1,-9.214837646E-1,-3.969744873E-1,1.438658295E0,1.753983683E0
9.650072916E-1,-1.018032990E0,-4.616400146E-1,1.433868256E0,1.818098140E0
9.750757084E-1,-9.608518982E-1,-2.571652222E-1,1.225351868E0,1.578245076E0
9.851447083E-1,-9.412426758E-1,5.343887329E-2,8.116122437E-1,1.243988715E0
9.952127084E-1,-9.286688232E-1,2.754272461E-1,1.707948303E-1,9.835938314E-1
1.005281708E0,-6.083349609E-1,2.758763123E-1,-6.210585022E-1,9.120815904E-1
1.015350708E0,-1.302291870E-2,-4.565505981E-2,-1.907782745E0,1.908373387E0
1.025418708E0,5.019062805E-1,-1.138382721E0,-3.548670502E0,3.760437137E0
1.035487708E0,1.023272095E0,-2.329605560E0,-4.504732361E0,5.173660357E0
1.045556708E0,1.326391754E0,-2.899320831E0,-4.670288086E0,5.654818050E0
1.055625708E0,8.388555908E-1,-3.239263916E0,-4.277504883E0,5.430797128E0
1.065693708E0,3.330574036E-1,-3.491938477E0,-3.308569794E0,4.821949361E0
1.075762708E0,-7.185058594E-3,-3.610791321E0,-2.736459503E0,4.530571288E0
1.085831708E0,-4.775070190E-1,-3.450025635E0,-2.231409760E0,4.136408992E0
1.095899708E0,-6.620732117E-1,-3.291804657E0,-1.755399628E0,3.788897820E0
1.105968708E0,-7.447013855E-1,-3.028053131E0,-1.746118927E0,3.573879856E0
1.116037708E0,-5.087919617E-1,-2.760110321E0,-1.879790955E0,3.377971622E0
1.126106708E0,-2.297721863E-1,-2.645299072E0,-1.926643524E0,3.280603254E0
1.136174708E0,-8.158035278E-2,-2.564018097E0,-1.833686829E0,3.153292175E0
1.146243708E0,1.225950623E-1,-2.521057434E0,-1.504371643E0,2.938348886E0
1.156312708E0,3.056643677E-1,-2.430645447E0,-1.166823578E0,2.713474757E0
1.166380708E0,1.944456482E-1,-2.396965485E0,-9.288185120E-1,2.577975266E0
1.176449708E0,-2.311193848E-1,-2.131717072E0,-9.538165283E-1,2.346784995E0
1.186518708E0,-5.179229736E-1,-1.632205811E0,-8.873547363E-1,1.928662345E0
1.196587708E0,-1.297801208E0,-1.502276001E0,-6.087840271E-1,2.076472767E0
1.206655708E0,-1.839225311E0,-1.075663147E0,-5.343887329E-1,2.196673000E0
1.216724708E0,-2.178419952E0,-3.165916443E-1,-1.713935852E-1,2.207967282E0
1.226793708E0,-2.350561981E0,3.746708679E-1,-1.297801208E-1,2.383770703E0
1.236862708E0,-2.408790894E0,4.558021545E-1,-9.859996033E-1,2.642389901E0
1.246930708E0,-2.124082947E0,1.312770081E-1,-1.499431915E0,2.603316747E0
1.256999708E0,-1.671873322E0,-5.830375671E-1,-1.546583862E0,2.350960410E0
1.267068708E0,-1.353335724E0,-1.260379028E0,-1.265917511E0,2.241120260E0
1.277136708E0,-1.049617310E0,-1.796863403E0,-5.504054260E-1,2.152524267E0
1.287205708E0,-6.968009949E-1,-2.026485901E0,8.637039185E-2,2.144676334E0
1.297274708E0,-7.749385071E-1,-3.318000183E0,4.432283020E-1,3.436001489E0
1.307343708E0,-1.586700439E-2,-3.219804382E0,1.345402222E0,3.489627367E0
1.317411708E0,-3.052153015E-1,-3.553460541E0,1.077908478E0,3.725872365E0
1.327480708E0,-4.983137512E-1,-4.356390839E0,1.013542328E0,4.500413957E0
1.337549708E0,-1.136586456E0,-5.487139435E0,1.789678345E0,5.882471974E0
1.347617708E0,-1.519340515E0,-7.296127625E0,2.116448822E0,7.747336932E0
1.357686708E0,-1.218915253E0,-9.810299377E0,2.870281219E0,1.029399060E1
1.367755708E0,-1.000369720E0,-1.249915787E1,2.086511078E0,1.271153867E1
1.377824708E0,-8.987310791E-1,-1.420051987E1,9.220825195E-2,1.422922993E1
1.387892708E0,-1.301543427E0,-1.452474564E1,-3.245251465E-1,1.458655434E1
1.397961708E0,-2.325563965E0,-1.455348587E1,1.391955414E0,1.480370692E1
1.408030708E0,-2.235601044E0,-1.542587173E1,2.868784332E0,1.584882817E1
1.418098708E0,-3.045117645E0,-1.629331787E1,3.172203369E0,1.687625026E1
1.428167708E0,-3.700754242E0,-1.698622696E1,3.414399719E0,1.771681726E1
1.438236708E0,-3.703448639E0,-1.759261597E1,3.456911316E0,1.830753681E1
1.448305708E0,-3.564986572E0,-1.778915726E1,3.481759644E0,1.847392474E1
1.458373708E0,-3.284320221E0,-1.801758224E1,3.585793304E0,1.866220627E1
1.468442708E0,-3.132236481E0,-1.824840225E1,3.120860138E0,1.877644424E1
1.478511708E0,-3.679049377E0,-1.884386398E1,2.213297424E0,1.932680262E1
1.488580708E0,-4.402045898E0,-1.952075638E1,9.497749329E-1,2.003347224E1
1.498648708E0,-5.571563873E0,-1.998119888E1,7.484436035E-3,2.074344930E1
1.508717708E0,-6.254144440E0,-2.039523788E1,1.594184875E-1,2.133320101E1
1.518786708E0,-5.932912445E0,-2.079954712E1,1.556613007E0,2.168510213E1
1.528854708E0,-5.349425812E0,-2.088771378E1,2.203567657E0,2.167414713E1
1.538923708E0,-4.676575012E0,-2.051798264E1,2.128274231E0,2.115153698E1
1.548992708E0,-4.148772583E0,-1.965652405E1,1.725312195E0,2.016353029E1
1.559061708E0,-3.561843109E0,-1.865136429E1,1.759141846E0,1.906973246E1
1.569129708E0,-2.966980133E0,-1.772359360E1,2.221530304E0,1.810701350E1
1.579198708E0,-2.475402374E0,-1.736149658E1,1.813927917E0,1.763064137E1
1.589267708E0,-2.353555756E0,-1.760563889E1,1.113085327E0,1.779709820E1
1.599335708E0,-2.612068176E0,-1.824585754E1,7.864645386E-1,1.844865155E1
1.609404708E0,-3.294648743E0,-1.883877457E1,5.788462830E-1,1.913345762E1
1.619473708E0,-4.013304291E0,-1.965832031E1,2.246827698E-1,2.006506046E1
1.629542708E0,-4.519401855E0,-2.045331711E1,3.875440979E-1,2.095025929E1
1.639610708E0,-4.553530884E0,-2.073203751E1,1.732646942E0,2.129680934E1
1.649679708E0,-4.273762665E0,-2.067515579E1,2.491419067E0,2.125874604E1
1.659748708E0,-3.938459930E0,-2.031455566E1,3.066373444E0,2.091877828E1
1.669816708E0,-3.578009491E0,-1.977597565E1,3.207230530E0,2.035135603E1
1.679885708E0,-3.062032471E0,-1.896361496E1,3.114423523E0,1.946007115E1
1.689954708E0,-2.875520325E0,-1.813059723E1,3.097059631E0,1.861663104E1
1.700023708E0,-2.558479614E0,-1.707095078E1,2.817590790E0,1.749005421E1
1.710091708E0,-2.239942017E0,-1.620485184E1,2.460882568E0,1.654298964E1
1.720160708E0,-1.991009674E0,-1.559666656E1,2.160457306E0,1.587097046E1
1.730229708E0,-1.551822968E0,-1.512335083E1,2.068099365E0,1.534278103E1
1.740298708E0,-1.259181519E0,-1.461830109E1,1.956581268E0,1.480231316E1
1.750366708E0,-1.411564636E0,-1.384815262E1,1.995350647E0,1.406219293E1
1.760435708E0,-1.491797791E0,-1.311153442E1,2.405797119E0,1.341363692E1
1.770504708E0,-8.189469910E-1,-1.309267365E1,2.629881134E0,1.337927697E1
1.780572708E0,-5.882766724E-1,-1.338576416E1,2.051633606E0,1.355484976E1
1.790641708E0,3.201841736E-1,-1.340597214E1,2.768642578E0,1.369262534E1
1.800710708E0,-6.872209167E-1,-1.281245636E1,3.049308929E0,1.318823701E1
1.810779708E0,-4.562512207E-1,-8.596323853E0,2.994073792E0,9.114243075E0
1.820847708E0,1.877096558E-1,-5.469476166E0,4.149371338E0,6.867873539E0
1.830916708E0,1.465602264E0,-5.731581116E0,4.727169800E0,7.572657816E0
1.840985708E0,2.501148834E0,-6.518045654E0,3.939058685E0,8.016036924E0
1.851053708E0,2.366878052E0,-6.535259857E0,1.744472351E0,7.166234499E0
1.861122708E0,8.598120117E-1,-5.217999115E0,6.494993591E-1,5.328099180E0
1.871191708E0,-4.434678040E0,-5.833369446E0,3.233276367E0,8.009284891E0
1.881260708E0,-5.771997070E0,-9.383237457E0,4.450395355E0,1.188137678E1
1.891328708E0,2.461032257E0,-4.889731750E0,1.779499512E0,5.756107615E0
1.901397708E0,1.062041473E0,-1.298849030E0,3.020269318E0,3.454991700E0
1.911466708E0,-1.434916077E0,-4.692292328E0,3.939208374E0,6.292372689E0
1.921534708E0,3.493734741E-1,-8.120014343E0,3.600013733E0,8.889139083E0
1.931603708E0,6.435118103E-1,-8.988807678E0,2.710713043E0,9.410671396E0
1.941672708E0,1.850152588E-1,-8.627758484E0,4.601431274E-1,8.642000856E0
1.951741708E0,-3.809577942E-1,-7.961493988E0,-5.423222351E-1,7.989031779E0
1.961809708E0,-2.037562866E0,-5.338199158E0,-1.096469879E0,5.818099250E0
1.971878708E0,-2.082170105E0,-3.779789886E0,-1.677860870E0,4.630060586E0
1.981947958E0,-1.341809692E0,-3.126997375E0,-2.688110046E0,4.336415739E0
1.992015958E0,-7.584727478E-1,-2.430495758E0,-2.781066742E0,3.770533485E0
2.002084958E0,-3.746708679E-1,-1.651365967E0,-1.997895355E0,2.618964235E0
2.012153958E0,-3.460803223E-1,-1.078806610E0,-1.488055573E0,1.870268611E0
2.022222958E0,-3.510200500E-1,-9.418414307E-1,-1.083147583E0,1.477663373E0
2.032290958E0,-3.682342529E-1,-1.009800110E0,-1.194515991E-1,1.081462626E0
2.042359958E0,-6.004014587E-1,-1.212628326E0,7.683522034E-1,1.556057351E0
2.052428958E0,-7.861651611E-1,-1.070573730E0,1.175505524E0,1.773695862E0
2.062496958E0,-5.234614563E-1,-6.177653503E-1,8.539741516E-1,1.176825295E0
2.072565958E0,-4.161346436E-1,-4.592449951E-1,4.951702881E-1,7.932639039E-1
2.082634958E0,-2.454895020E-1,-5.032534790E-1,5.096900940E-1,7.571744526E-1
2.092703958E0,-1.916015625E-1,-3.644920349E-1,6.200106812E-1,7.442975527E-1
2.102771958E0,-2.430944824E-1,-5.643264771E-2,6.643185425E-1,7.096468819E-1
2.112840958E0,8.113128662E-2,2.854563904E-1,8.286767578E-1,8.802117958E-1
2.122909958E0,1.501377869E-1,3.992198181E-1,1.109642487E0,1.188791094E0
2.132977958E0,-6.750961304E-2,3.370989990E-1,1.528022461E0,1.566220267E0
2.143046958E0,1.733395386E-1,6.113287354E-1,2.085313568E0,2.179977545E0
2.153115958E0,5.508544922E-2,8.942404175E-1,2.611020355E0,2.760457865E0
2.163184958E0,-3.258723450E-1,4.508624268E-1,2.943029938E0,2.995145226E0
2.173252958E0,-1.850152588E-1,-1.392105103E-1,2.671195221E0,2.681211316E0
2.183321958E0,-4.129911804E-1,2.773731995E-1,1.890568542E0,1.954928904E0
2.193390958E0,-1.131497040E0,3.896397400E-1,1.291963348E0,1.761043433E0
2.203459958E0,-5.429209900E-1,-6.004014587E-1,-1.199156342E0,1.446796822E0
2.213527958E0,-7.346722412E-1,-1.149609375E-1,-1.580114136E0,1.746344754E0
2.223596958E0,-6.900650024E-1,8.346643066E-1,-1.633403320E0,1.959811373E0
2.233665958E0,-8.702902222E-1,-3.144960022E-1,-2.590063934E0,2.750407968E0
2.243733958E0,-1.493444366E0,-2.207010498E0,-5.162614288E0,5.809807028E0
2.253802958E0,-1.437311096E0,-2.580184479E0,-3.157982941E0,4.323895395E0
2.263871958E0,-1.662742310E0,-3.124901733E0,-1.797761536E-1,3.544297151E0
2.273940958E0,-1.323996735E0,-4.415667572E0,1.336570587E0,4.799740451E0
2.284008958E0,-1.324745178E0,-6.089935913E0,2.452649689E0,6.697593576E0
2.294077958E0,-1.465751953E0,-8.158035278E0,3.234773254E0,8.897512371E0
2.304146958E0,-9.635462952E-1,-1.129985184E1,2.800077209E0,1.168141710E1
2.314214958E0,-1.318607941E0,-1.291409500E1,1.787582703E0,1.310374101E1
2.324283958E0,-2.117496643E0,-1.249781067E1,2.478994904E0,1.291605510E1
2.334352958E0,-1.340911560E0,-1.352961502E1,3.337609406E0,1.399957724E1
2.344421958E0,-1.405277710E0,-1.507814484E1,2.968177643E0,1.543163425E1
2.354489958E0,-1.516496429E0,-1.586700439E1,3.340902557E0,1.628567529E1
2.364558958E0,-1.534608765E0,-1.634481079E1,4.578678589E0,1.704324387E1
2.374627958E0,-1.385818176E0,-1.650617523E1,6.662644958E0,1.785399537E1
2.384695958E0,-6.167175293E-1,-1.613509689E1,9.935439148E0,1.895876165E1
2.394764958E0,-3.442840576E-1,-1.597073868E1,1.182810333E1,1.987679687E1
2.404833958E0,-1.239721985E0,-1.636202499E1,9.388326874E0,1.890485266E1
2.414902958E0,-2.607577515E0,-1.490809845E1,3.538192291E0,1.554251153E1
2.424970958E0,-1.464704132E0,-1.307051971E1,3.691024475E0,1.366043577E1
2.435039958E0,-8.502319336E-1,-1.202419556E1,3.545976105E0,1.256495602E1
2.445108958E0,-1.137334900E0,-1.203617065E1,2.154619446E0,1.228028174E1
2.455176958E0,-1.134640503E0,-1.301902679E1,1.518292694E0,1.315627913E1
2.465245958E0,-1.042282562E0,-1.364936600E1,1.247356110E0,1.374581545E1
2.475314958E0,-1.202000427E0,-1.429946411E1,1.299597473E0,1.440862355E1
2.485383958E0,-1.476978607E0,-1.507515106E1,2.265688477E0,1.531584113E1
2.495451958E0,-1.656006317E0,-1.573647583E1,3.586242371E0,1.622467759E1
2.505520958E0,-1.729353790E0,-1.630484390E1,4.668641510E0,1.704801492E1
2.515589958E0,-2.396965485E0,-1.617027374E1,5.059927826E0,1.711216135E1
2.525657958E0,-3.089275818E0,-1.550101547E1,5.042414246E0,1.659069158E1
2.535726958E0,-3.290008392E0,-1.487337067E1,4.805157623E0,1.597281597E1
2.545795958E0,-3.283272400E0,-1.456531128E1,4.336631927E0,1.554781486E1
2.555864958E0,-2.940634918E0,-1.491273880E1,4.125121765E0,1.574972196E1
2.565932958E0,-2.603236542E0,-1.540386749E1,4.064797211E0,1.614244562E1
2.576001958E0,-2.004331970E0,-1.638238266E1,4.060755615E0,1.699675100E1
2.586070958E0,-1.648970947E0,-1.789094559E1,4.103716278E0,1.842947440E1
2.596138958E0,-1.399589539E0,-1.913560730E1,4.415517883E0,1.968824816E1
2.606207958E0,-1.182241516E0,-2.040152481E1,5.139262848E0,2.107206521E1
2.616276958E0,-1.334624634E0,-2.173450287E1,5.828579407E0,2.254200913E1
2.626345958E0,-1.490600281E0,-2.271661057E1,6.205345917E0,2.359602938E1
2.636413958E0,-1.484762421E0,-2.250435196E1,6.457721100E0,2.345959374E1
2.646482958E0,-1.390159149E0,-2.177836166E1,6.730004883E0,2.283686811E1
2.656551958E0,-1.024319916E0,-2.111134872E1,6.670728149E0,2.216386452E1
2.666619958E0,-3.965254211E-1,-2.010094986E1,6.184838562E0,2.103467722E1
2.676688958E0,2.878514099E-1,-1.933574112E1,6.305787048E0,2.034002688E1
2.686757958E0,1.073567505E0,-1.861693588E1,6.751260681E0,1.983235663E1
2.696826958E0,1.430724792E0,-1.782238815E1,6.710994415E0,1.909769460E1
2.706894958E0,1.555265808E0,-1.724488907E1,6.076912994E0,1.835031123E1
2.716963958E0,1.003812561E0,-1.678564407E1,4.995561676E0,1.754198173E1
2.727032958E0,1.661544800E-2,-1.596160767E1,4.274062042E0,1.652394631E1
2.737101958E0,-1.072070618E0,-1.484927078E1,4.407584381E0,1.552665380E1
2.747169958E0,-2.345771942E0,-1.388138351E1,4.546645203E0,1.479416902E1
2.757238958E0,-2.841091919E0,-1.339773926E1,5.235662384E0,1.466231159E1
2.767307958E0,-2.762205963E0,-1.333516937E1,5.281317444E0,1.460646562E1
2.777375958E0,-2.229613495E0,-1.313772995E1,4.086053009E0,1.393796806E1
2.787444958E0,-1.270707550E0,-1.294657745E1,2.843786316E0,1.331599362E1
2.797513958E0,-4.595443726E-1,-1.287442749E1,3.462898865E0,1.333993001E1
2.807582958E0,4.610412598E-2,-1.268417313E1,5.138215027E0,1.368545312E1
2.817650958E0,6.792874146E-1,-1.267983215E1,6.707102509E0,1.436052920E1
2.827719958E0,1.486259308E0,-1.288086411E1,7.217840424E0,1.483990725E1
2.837788958E0,1.912273407E0,-1.255574020E1,6.426885223E0,1.423405267E1
2.847856958E0,1.725910950E0,-1.162003601E1,4.869972839E0,1.271694307E1
2.857925958E0,1.396745453E0,-1.040815613E1,3.998036041E0,1.123676573E1
2.867994958E0,8.764274597E-1,-8.987161102E0,3.855682068E0,9.818527078E0
2.878063958E0,5.041516113E-1,-7.270680542E0,4.070934448E0,8.348022022E0
2.888131958E0,-2.375559998E-1,-5.564827881E0,3.788771210E0,6.736358770E0
2.898200958E0,-7.554789734E-1,-4.272565155E0,3.598516846E0,5.636921586E0
2.908269958E0,-4.514611816E-1,-3.675756226E0,3.366499329E0,5.004829543E0
2.918337958E0,-1.612147522E-1,-3.528612213E0,2.924917603E0,4.586091727E0
2.928406958E0,1.227447510E-2,-3.319946136E0,2.885399780E0,4.398604882E0
2.938475958E0,1.142124939E-1,-2.910697174E0,1.857337646E0,3.454693281E0
2.948544958E0,1.624122620E-1,-2.108515320E0,-8.894503784E-1,2.294196280E0
2.958612958E0,-6.376739502E-1,-9.982740784E-1,-3.564088440E0,3.755782956E0
2.968681958E0,-3.933819580E-1,5.043013000E-1,-4.554878082E0,4.599563404E0
2.978750792E0,1.660047913E0,7.343728638E-1,-1.046174469E0,2.095123766E0
2.988818792E0,1.017434235E0,1.935774536E0,-1.612446899E0,2.717053640E0
2.998887792E0,7.102729797E-1,3.511697388E0,-3.632496185E0,5.102110817E0
3.008956792E0,4.056564331E-1,4.280648346E0,-4.674030304E0,6.350989426E0
3.019025792E0,-4.644841003E-1,3.895948334E0,-4.619244232E0,6.060658065E0
3.029093792E0,-1.493294678E0,2.822231140E0,-2.364033966E0,3.972854666E0
3.039162792E0,-3.000061340E0,2.190844116E0,-7.032376099E-1,3.780834448E0
3.049231792E0,-3.522474976E0,2.072739716E0,-1.415306854E0,4.325178999E0
3.059299792E0,-2.680326233E0,1.788181458E0,-1.800156555E0,3.690840726E0
3.069368792E0,-1.869462433E0,1.428329773E0,-1.272354126E0,2.674677691E0
3.079437792E0,-1.268611908E0,1.020877075E0,-9.785151672E-1,1.899752118E0
3.089506792E0,-1.031055908E0,9.443861389E-1,-1.002615051E0,1.720516901E0
3.099574792E0,-6.737489319E-1,1.086440735E0,-9.954299927E-1,1.620238243E0
3.109643792E0,-4.709207153E-1,1.178798676E0,-9.761201477E-1,1.601294220E0
3.119712792E0,-4.704716492E-1,1.165027313E0,-9.114546204E-1,1.552218328E0
3.129780792E0,-5.237608337E-1,1.101559296E0,-7.090754700E-1,1.410867221E0
3.139849792E0,-4.090992737E-1,9.671388245E-1,-3.628454590E-1,1.111024999E0
3.149918792E0,-3.222798157E-1,8.669970703E-1,7.738906860E-2,9.281903186E-1
3.159987792E0,-3.724255371E-1,7.012916565E-1,5.025050354E-1,9.396925448E-1
3.170055792E0,-4.297563171E-1,3.534150696E-1,8.357121277E-1,1.003995749E0
3.180124792E0,-3.814068604E-1,-1.901046753E-2,9.988728333E-1,1.069382779E0
3.190193792E0,-3.784130859E-1,-2.297721863E-1,9.741741943E-1,1.070050037E0
3.200261792E0,-4.302053833E-1,-4.944218445E-1,9.883946228E-1,1.185939949E0
3.210330792E0,-5.355862427E-1,-8.449928284E-1,1.076561279E0,1.469642709E0
3.220399792E0,-6.033952332E-1,-1.069525909E0,1.054557037E0,1.618660565E0
3.230468792E0,-3.662882996E-1,-1.412163391E0,1.019380188E0,1.779749569E0
3.240536792E0,3.637435913E-2,-1.875449982E0,9.433383179E-1,2.099648282E0
3.250605792E0,3.406915283E-1,-2.331102448E0,9.740245056E-1,2.549280894E0
3.260674792E0,4.822970581E-1,-2.774031372E0,1.087488556E0,3.018359134E0
3.270742792E0,5.284011841E-1,-3.386557617E0,1.057700500E0,3.587019745E0
3.280811792E0,2.827619934E-1,-4.300257568E0,1.438209229E0,4.543194392E0
3.290880792E0,-2.228865051E-1,-5.419180756E0,2.065554657E0,5.803767268E0
3.300949792E0,-6.589297485E-1,-6.679859161E0,2.162253571E0,7.051953441E0
3.311017792E0,-7.470964050E-1,-7.995473328E0,1.927391968E0,8.258364643E0
3.321086792E0,-5.872288513E-1,-9.728419647E0,1.764081573E0,9.904492433E0
3.331155792E0,-6.466552734E-2,-1.185160446E1,1.470392303E0,1.194264474E1
3.341223792E0,2.866539001E-1,-1.373947861E1,1.307231598E0,1.380450279E1
3.351292792E0,6.653663635E-1,-1.501018616E1,1.701511688E0,1.512096369E1
3.361361792E0,1.155746613E0,-1.603106323E1,2.426454163E0,1.625479678E1
3.371430792E0,1.609004059E0,-1.715447708E1,3.517984314E0,1.758525495E1
3.381498792E0,1.939067688E0,-1.789229279E1,4.885390778E0,1.864835563E1
3.391567792E0,2.020648041E0,-1.803659271E1,6.028563538E0,1.912446793E1
3.401636792E0,1.907034302E0,-1.784618866E1,6.689738617E0,1.915400304E1
3.411704792E0,1.694176941E0,-1.711091766E1,6.451883240E0,1.836519905E1
3.421773792E0,1.111139374E0,-1.639286087E1,5.497018890E0,1.732563808E1
3.431842792E0,8.102650452E-1,-1.614587448E1,4.308340759E0,1.673043909E1
3.441911792E0,8.152047729E-1,-1.657248734E1,3.247197418E0,1.690728205E1
3.451979792E0,6.665638733E-1,-1.775308228E1,3.147205353E0,1.804220439E1
3.462048792E0,9.885443115E-1,-1.886586823E1,3.339255981E0,1.918459888E1
3.472117792E0,1.228794708E0,-1.953078552E1,3.197051697E0,1.982883403E1
3.482185792E0,1.018931122E0,-1.960083984E1,3.329825592E0,1.990775933E1
3.492254792E0,8.421487427E-1,-1.926838120E1,3.696862335E0,1.963788480E1
3.502323792E0,8.704399109E-1,-1.891137360E1,3.991150360E0,1.934753209E1
3.512392792E0,7.758366394E-1,-1.857202927E1,4.087699585E0,1.903237982E1
3.522460792E0,5.001100159E-1,-1.821696762E1,3.996239777E0,1.865684731E1
3.532529792E0,-1.137634277E-2,-1.803599396E1,3.718417511E0,1.841531526E1
3.542598792E0,-6.738986206E-1,-1.815484680E1,3.138523407E0,1.843645657E1
3.552666792E0,-9.442364502E-1,-1.867785919E1,2.970722351E0,1.893618752E1
3.562735792E0,-6.634204102E-1,-1.975906082E1,3.273093567E0,2.003930519E1
3.572804792E0,1.742376709E-1,-2.116074600E1,3.437900848E0,2.143890604E1
3.582872792E0,1.007704468E0,-2.226769409E1,3.462449799E0,2.255779748E1
3.592941792E0,1.592687988E0,-2.265074753E1,3.677851868E0,2.300260013E1
3.603010792E0,2.002535706E0,-2.247965332E1,4.068988495E0,2.293254521E1
3.613079792E0,2.004631348E0,-2.163555862E1,4.254303131E0,2.214080032E1
3.623147792E0,1.506916351E0,-2.036604858E1,4.407734070E0,2.089198055E1
3.633216792E0,8.872050476E-1,-1.899115768E1,4.509672089E0,1.953940494E1
3.643285792E0,2.880010986E-1,-1.771625885E1,4.714296570E0,1.833503107E1
3.653354792E0,-1.484912109E-1,-1.675944855E1,5.076094208E0,1.751193586E1
3.663422792E0,-1.308279419E-1,-1.587314163E1,5.244943085E0,1.671775012E1
3.673491792E0,-7.439529419E-2,-1.510404099E1,5.168003082E0,1.596389190E1
3.683560792E0,-1.859133911E-1,-1.455573120E1,4.910688171E0,1.536290119E1
3.693628792E0,-2.802172852E-1,-1.392105103E1,4.589156799E0,1.466064608E1
3.703697792E0,-6.309379578E-1,-1.321736435E1,4.114044800E0,1.385720634E1
3.713766792E0,-1.239123230E0,-1.288131317E1,3.941154327E0,1.352761445E1
3.723835792E0,-1.760938110E0,-1.297352142E1,3.761527863E0,1.362212366E1
3.733903792E0,-2.095193024E0,-1.331600922E1,3.217559052E0,1.385852162E1
3.743972792E0,-2.324216766E0,-1.359487930E1,2.217638397E0,1.396927510E1
3.754041792E0,-2.559677124E0,-1.381162857E1,9.825567627E-1,1.408113804E1
3.764109792E0,-2.114203491E0,-1.344399307E1,3.094065857E-1,1.361273443E1
3.774178792E0,-8.180488586E-1,-1.295031967E1,1.030307465E0,1.301697035E1
3.784247792E0,3.589535522E-1,-1.227237946E1,2.037862244E0,1.244560274E1
3.794316792E0,1.415606232E0,-1.160117523E1,3.105292511E0,1.209272713E1
3.804384792E0,2.539618835E0,-1.098879868E1,4.611909485E0,1.218495258E1
3.814453792E0,3.043171692E0,-1.021535706E1,5.150190125E0,1.183802653E1
3.824522792E0,3.037483521E0,-9.255103912E0,5.182522888E0,1.103366657E1
3.834590792E0,2.690954132E0,-8.581055603E0,5.320835266E0,1.044926013E1
3.844659792E0,1.813927917E0,-7.282056885E0,5.262606354E0,9.165899443E0
3.854728792E0,1.086291046E0,-5.737418976E0,5.360353088E0,7.926625384E0
3.864797792E0,1.142873383E0,-4.800517273E0,5.632487183E0,7.488393521E0
3.874865792E0,1.500180359E0,-3.896098022E0,4.955145721E0,6.479474518E0
3.884934792E0,9.303153992E-1,-2.579735413E0,2.432741089E0,3.665890171E0
3.895003792E0,1.504371643E-1,-1.953737183E0,4.650828552E-1,2.013956897E0
3.905071792E0,-4.460723877E-1,-1.903591461E0,-8.722361755E-1,2.140896301E0
3.915140792E0,-7.268884277E-1,-1.855391693E0,-2.617756348E0,3.289907813E0
3.925209792E0,-2.790197754E-1,-1.048719177E0,-2.488125916E0,2.714486051E0
3.935278792E0,9.779164124E-1,-4.635859680E-1,-1.713786163E0,2.026893059E0
3.945346792E0,2.551294556E0,-4.005670166E-1,-9.827064514E-1,2.763199199E0
3.955415792E0,3.703748016E0,-3.263214111E-1,-1.827699280E-1,3.722585107E0
3.965484792E0,4.067940674E0,-4.718188477E-1,2.418969727E-1,4.102349144E0
3.975552792E0,3.686683502E0,-5.855822754E-1,2.345622253E-1,3.740262195E0
3.985621458E0,2.724783783E0,-4.957690430E-1,2.439926147E-2,2.769626136E0
3.995690458E0,1.091679840E0,-4.079017639E-1,-1.408570862E-1,1.173877950E0
4.005758458E0,-1.413211212E0,-4.872367859E-1,-9.475296021E-2,1.497846367E0
4.015827458E0,-3.335813141E0,-7.173083496E-1,-1.981878662E-1,3.417814947E0
4.025896458E0,-3.680396576E0,-1.204096069E0,-1.096469879E0,4.024600911E0
4.035965458E0,-3.118165741E0,-1.951192474E0,-1.766326904E0,4.080443651E0
4.046033458E0,-2.647095337E0,-2.842139740E0,-1.547182617E0,4.180747071E0
4.056102458E0,-2.409988403E0,-3.635639648E0,-1.489552460E0,4.609195840E0
4.066171458E0,-2.035616913E0,-3.970343628E0,-2.282303925E0,5.011614106E0
4.076239458E0,-1.528022461E0,-3.848347321E0,-3.073857880E0,5.156862613E0
4.086308458E0,-7.309300232E-1,-3.579506378E0,-2.959196320E0,4.701485666E0
4.096377458E0,5.553451538E-2,-3.293451233E0,-2.382295990E0,4.065124757E0
4.106446458E0,5.472619629E-1,-2.834056549E0,-1.572180634E0,3.286810631E0
4.116514458E0,8.202941895E-1,-2.287093964E0,-5.321434021E-1,2.487339534E0
4.126583458E0,5.783972168E-1,-1.838925934E0,3.426374817E-1,1.957956173E0
4.136652458E0,-1.204994202E-1,-1.490300903E0,9.410929871E-1,1.766684155E0
4.146720458E0,-9.454339600E-1,-1.379531250E0,1.385818176E0,2.171967739E0
4.156789458E0,-1.516496429E0,-1.374142456E0,1.584305420E0,2.588059616E0
4.166858458E0,-1.674418030E0,-1.385668488E0,1.337468719E0,2.551974818E0
4.176927458E0,-1.598974915E0,-1.290466461E0,8.681945801E-1,2.230647057E0
4.186995458E0,-1.463955688E0,-1.058748322E0,5.119354248E-1,1.877815791E0
4.197064458E0,-1.240320740E0,-1.010548553E0,3.808081055E-1,1.644572507E0
4.207133458E0,-7.418572998E-1,-1.442550201E0,3.945794678E-1,1.669429931E0
4.217201458E0,-2.082170105E-1,-2.029629364E0,1.459465027E-1,2.045495065E0
4.227270458E0,-4.041595459E-2,-2.617756348E0,-1.815724182E-1,2.624357119E0
4.237339458E0,-1.058299255E-1,-3.261567535E0,-3.132984924E-1,3.278288991E0
4.247408458E0,-9.729766846E-2,-4.153113556E0,-3.830534363E-1,4.171875954E0
4.257476458E0,-1.068777466E-1,-5.084776154E0,-5.489085388E-1,5.115434680E0
4.267545458E0,-3.999682617E-1,-5.706283722E0,-8.848100281E-1,5.788310402E0
4.277614458E0,-6.616241455E-1,-6.118825836E0,-1.490001526E0,6.332288739E0
4.287682458E0,-7.990383911E-1,-6.650220795E0,-2.076781311E0,7.012625727E0
4.297751458E0,-1.068627777E0,-7.389683075E0,-2.042502594E0,7.740878382E0
4.307820458E0,-1.143621826E0,-8.480165405E0,-8.898994446E-1,8.603080681E0
4.317889458E0,-8.261320496E-1,-1.027268784E1,1.422042847E0,1.040350015E1
4.327957458E0,-5.685177612E-1,-1.272114624E1,3.813469849E0,1.329260420E1
4.338026458E0,-4.200265503E-1,-1.524714340E1,5.042713623E0,1.606489231E1
4.348095458E0,-1.968406677E-1,-1.645453262E1,4.837191010E0,1.715193304E1
4.358163458E0,3.150947571E-1,-1.687575668E1,4.053420868E0,1.735859064E1
4.368232458E0,1.984872437E-1,-1.637190445E1,3.191513214E0,1.668125922E1
4.378301458E0,-8.996292114E-2,-1.522992920E1,2.666854248E0,1.546191930E1
4.388370458E0,2.421963501E-1,-1.508503052E1,2.602787476E0,1.530984348E1
4.398438458E0,3.502716064E-2,-1.478071335E1,2.725831604E0,1.502999907E1
4.408507458E0,-1.781295776E-2,-1.433359314E1,2.752176819E0,1.459543377E1
4.418576458E0,6.899153137E-1,-1.431997147E1,2.443368988E0,1.454330148E1
4.428644458E0,1.223705292E0,-1.465916611E1,1.750459900E0,1.481393653E1
4.438713458E0,1.567540283E0,-1.519819519E1,1.099164276E0,1.531830544E1
4.448782458E0,1.811083832E0,-1.608330460E1,1.077908478E0,1.622080756E1
4.458851458E0,1.753902740E0,-1.682321594E1,1.230590973E0,1.695910150E1
4.468919458E0,1.485510864E0,-1.698368225E1,1.051862640E0,1.708094319E1
4.478988458E0,1.089584198E0,-1.661963928E1,7.902067566E-1,1.667405261E1
4.489057458E0,5.254074097E-1,-1.625125534E1,8.719367981E-1,1.628310864E1
4.499125458E0,1.082249451E-1,-1.584485046E1,9.943821716E-1,1.587639111E1
4.509194458E0,-4.698728943E-1,-1.514086441E1,1.289418640E0,1.520293248E1
4.519263458E0,-9.731263733E-1,-1.465557358E1,1.797162781E0,1.479738510E1
4.529332458E0,-1.338217163E0,-1.477906677E1,2.159559174E0,1.499584395E1
4.539400458E0,-1.365310822E0,-1.528905624E1,2.178869019E0,1.550376679E1
4.549469458E0,-1.179547119E0,-1.601010681E1,1.946701813E0,1.617110075E1
4.559538458E0,-9.319619751E-1,-1.715088455E1,1.773811340E0,1.726753603E1
4.569606458E0,-4.610412598E-1,-1.868549332E1,1.755249939E0,1.877341530E1
4.579675458E0,-1.489402771E-1,-2.048415298E1,1.908980255E0,2.057345164E1
4.589744458E0,-6.092330933E-2,-2.227532822E1,1.996697845E0,2.236472135E1
4.599813458E0,2.709365845E-2,-2.382056488E1,2.286046143E0,2.393002408E1
4.609881458E0,-6.646179199E-2,-2.472827728E1,2.960693207E0,2.490497578E1
4.619950458E0,-3.122506714E-1,-2.502046967E1,3.662583618E0,2.528904746E1
4.630019458E0,-7.063810730E-1,-2.491508881E1,4.290378113E0,2.529165809E1
4.640087458E0,-9.156459045E-1,-2.443473770E1,4.932393036E0,2.494440448E1
4.650156458E0,-1.136586456E0,-2.270957520E1,4.847220154E0,2.324891777E1
4.660225458E0,-1.410367126E0,-2.037098831E1,4.129762115E0,2.083317631E1
4.670293458E0,-7.030879211E-1,-1.954725128E1,3.537144470E0,1.987714155E1
4.680362458E0,3.248245239E-2,-1.913905014E1,2.765050049E0,1.933778160E1
4.690431458E0,3.357518005E-1,-1.822175766E1,1.988464966E0,1.833300778E1
4.700500458E0,5.059478760E-2,-1.640199188E1,1.344204712E0,1.645705878E1
4.710568458E0,-6.451583862E-1,-1.563588501E1,1.670825500E0,1.573813163E1
4.720637458E0,-1.311722260E0,-1.559576843E1,1.781744843E0,1.575192760E1
4.730706458E0,-1.212328949E0,-1.564636322E1,2.082170105E0,1.583078823E1
4.740774458E0,-4.802014160E-1,-1.599379074E1,2.117796021E0,1.614053889E1
4.750843458E0,3.832031250E-1,-1.645183823E1,3.332969055E0,1.679042907E1
4.760912458E0,2.071991272E0,-1.670301590E1,3.518583069E0,1.719489211E1
4.770981458E0,2.849175110E0,-1.517634064E1,3.850892029E0,1.591441118E1
4.781049458E0,3.746708679E-1,-1.148411865E1,2.307601318E0,1.171965799E1
4.791118458E0,-1.146615601E-1,-1.119506973E1,4.969665527E-1,1.120668146E1
4.801187458E0,-5.343887329E-1,-1.172272247E1,1.957928467E-1,1.173652965E1
4.811255458E0,-1.567540283E0,-1.137349869E1,-7.496411133E-1,1.150546030E1
4.821324458E0,-1.760039978E0,-1.067819458E1,-1.754202118E0,1.096352157E1
4.831393458E0,-1.727557526E0,-1.006491989E1,-1.409918060E0,1.030897358E1
4.841462458E0,-1.268462219E0,-9.386680298E0,-1.376836853E0,9.571543404E0
4.851530458E0,-6.991960144E-1,-8.708141327E0,-1.433269501E0,8.852957805E0
4.861599458E0,-4.016148376E-1,-8.112679596E0,-8.044271851E-1,8.162350630E0
4.871668458E0,-3.498225403E-1,-7.375911713E0,-3.165916443E-1,7.390986380E0
4.881736458E0,-1.251397705E-1,-6.616091766E0,-3.866459656E-1,6.628561332E0
4.891805458E0,2.200424194E-1,-5.931415558E0,-7.780819702E-1,5.986277703E0
4.901874458E0,5.514532471E-1,-5.389841766E0,-1.524130554E0,5.628274060E0
4.911943458E0,6.885681152E-1,-5.019362183E0,-2.375859375E0,5.595786856E0
4.922011458E0,5.519023132E-1,-4.705914001E0,-2.943778381E0,5.578176576E0
4.932080458E0,-8.681945801E-3,-4.215833130E0,-3.005300446E0,5.177369518E0
4.942149458E0,-8.419990540E-1,-3.408262482E0,-2.644251251E0,4.395142800E0
4.952217458E0,-1.616488495E0,-1.927092590E0,-1.992955627E0,3.209142103E0
4.962286458E0,-1.821861420E0,-9.449848938E-1,-1.223854980E0,2.389559896E0
4.972355458E0,-2.020348663E0,-1.153052216E0,-6.629713440E-1,2.418856990E0
4.982425042E0,-2.541265411E0,-8.530760193E-1,-4.857398987E-1,2.724281893E0
4.992493042E0,-2.239792328E0,-5.703140259E-1,-6.191125488E-1,2.392744890E0
5.002562042E0,-8.562194824E-1,-3.472778320E-2,-1.101708984E0,1.395736547E0
5.012631042E0,7.520361328E-1,5.966592407E-1,-1.749412079E0,1.995495732E0
5.022699042E0,1.465751953E0,8.403524780E-1,-2.153571625E0,2.737241644E0
5.032768042E0,1.173858948E0,6.289920044E-1,-1.655257874E0,2.124489209E0
5.042837042E0,7.964936829E-1,4.197271729E-1,-8.102650452E-1,1.211240079E0
5.052905042E0,8.746311951E-1,5.908213806E-1,-2.225871277E-1,1.078700450E0
5.062974042E0,9.889933777E-1,8.180488586E-1,1.646575928E-1,1.293995347E0
5.073043042E0,7.340734863E-1,6.932084656E-1,5.682183838E-1,1.158565489E0
5.083112042E0,1.570234680E-1,5.914201355E-1,1.019978943E0,1.189449953E0
5.093180042E0,-4.553530884E-1,6.768923950E-1,1.433718567E0,1.649569240E0
5.103249042E0,-7.632627869E-1,7.048841858E-1,1.592987366E0,1.901851872E0
5.113318042E0,-8.958869934E-1,5.599855042E-1,1.482517090E0,1.820454391E0
5.123387042E0,-9.557624817E-1,3.799099731E-1,1.323248291E0,1.675947359E0
5.133455042E0,-9.610015869E-1,3.333567810E-1,9.479786682E-1,1.390436748E0
5.143524042E0,-8.339158630E-1,3.129991150E-1,3.787124634E-1,9.678880320E-1
5.153593042E0,-5.547463989E-1,1.869612122E-1,-1.767823792E-1,6.115145718E-1
5.163661042E0,-3.844006348E-1,2.621049500E-1,-5.599855042E-1,7.280430054E-1
5.173730042E0,-2.404000854E-1,5.435197449E-1,-6.602769470E-1,8.883532861E-1
5.183799042E0,-1.706451416E-2,6.816824341E-1,-5.935157776E-1,9.040149981E-1
5.193867042E0,9.924362183E-2,5.448669434E-1,-2.742297363E-1,6.180058501E-1
5.203936042E0,2.673440552E-1,5.516029358E-1,2.806663513E-1,6.741752319E-1
5.214005042E0,5.230123901E-1,6.878196716E-1,6.201603699E-1,1.063596138E0
5.224074042E0,7.393125916E-1,6.969506836E-1,7.544311523E-1,1.265499793E0
5.234142042E0,9.330097961E-1,5.400769043E-1,1.032552795E0,1.492767771E0
5.244211042E0,1.057700500E0,-4.041595459E-2,1.529519348E0,1.860051944E0
5.254280042E0,6.273454285E-1,-8.376580811E-1,1.493294678E0,1.823502767E0
5.264348042E0,3.001258850E-1,-1.829794922E0,1.213676147E0,2.216130590E0
5.274417042E0,2.993774414E-4,-3.124752045E0,1.113534393E0,3.317232925E0
5.284486042E0,-4.137396240E-1,-4.327351227E0,8.268804932E-1,4.425028866E0
5.294555042E0,-5.833369446E-1,-5.576503601E0,6.731501770E-1,5.647194486E0
5.304623042E0,-4.903802490E-1,-7.276518402E0,6.744973755E-1,7.324147702E0
5.314692042E0,-4.969665527E-2,-9.131461029E0,6.616241455E-2,9.131835946E0
5.324761042E0,-3.068618774E-2,-1.065334625E1,-1.761686554E0,1.079806777E1
5.334829042E0,-4.122427368E-1,-1.203991287E1,-3.519780579E0,1.255062952E1
5.344898042E0,-1.091230774E-1,-1.404678955E1,-2.336191864E0,1.424015439E1
5.354967042E0,7.271878052E-1,-1.657128983E1,8.434959412E-1,1.660867045E1
5.365035042E0,1.061293030E0,-1.887050858E1,3.442690887E0,1.921131326E1
5.375104042E0,8.047265625E-1,-2.028446823E1,4.122577057E0,2.071479852E1
5.385173042E0,1.930984497E-1,-2.045421524E1,3.635340271E0,2.077565660E1
5.395242042E0,-2.853067017E-1,-1.962748444E1,3.265609131E0,1.989934040E1
5.405310042E0,-8.446934509E-1,-1.860675705E1,3.195554810E0,1.889805507E1
5.415379042E0,-1.425785065E0,-1.767299881E1,2.904110870E0,1.796668055E1
5.425448042E0,-1.624122620E0,-1.680046326E1,2.165097656E0,1.701707930E1
5.435516042E0,-1.440604248E0,-1.588496704E1,1.422940979E0,1.601350304E1
5.445585042E0,-1.215322723E0,-1.535985901E1,1.146914978E0,1.545049164E1
5.455654042E0,-8.277786255E-1,-1.522334290E1,1.337019653E0,1.530434605E1
5.465723042E0,-1.712438965E-1,-1.518622009E1,1.665736084E0,1.527826174E1
5.475791042E0,1.532812500E-1,-1.532108963E1,1.956431580E0,1.544625868E1
5.485860042E0,3.098556519E-2,-1.528441589E1,2.137255554E0,1.543315232E1
5.495929042E0,-1.818717957E-1,-1.484702545E1,1.854493561E0,1.496350188E1
5.505997042E0,-5.249583435E-1,-1.428105240E1,1.454076233E0,1.436448316E1
5.516066042E0,-1.101708984E0,-1.393003235E1,1.086440735E0,1.401570253E1
5.526135042E0,-1.597627716E0,-1.354608078E1,9.306147766E-1,1.367167739E1
5.536204042E0,-1.744322662E0,-1.351464615E1,1.052461395E0,1.366733321E1
5.546272042E0,-1.846709747E0,-1.348800156E1,1.410516815E0,1.368671182E1
5.556341042E0,-1.652114410E0,-1.325748093E1,1.971101074E0,1.350464816E1
5.566410042E0,-1.399439850E0,-1.301618271E1,2.561323700E0,1.333940866E1
5.576478042E0,-1.172960815E0,-1.266456390E1,2.969075775E0,1.306072077E1
5.586547042E0,-9.666897583E-1,-1.221010895E1,2.927013245E0,1.259319880E1
5.596616042E0,-4.628375244E-1,-1.190294769E1,2.504741364E0,1.217243245E1
5.606684042E0,-3.053649902E-2,-1.149789001E1,2.003733215E0,1.167121905E1
5.616753042E0,1.472937012E-1,-1.080617844E1,2.008972321E0,1.099232267E1
5.626822042E0,2.752775574E-1,-1.031879196E1,2.267335052E0,1.056854075E1
5.636891042E0,5.361849976E-1,-1.011776001E1,2.118993530E0,1.035116880E1
5.646959042E0,6.679110718E-1,-9.679471436E0,1.793270874E0,9.866817770E0
5.657028042E0,4.120930481E-1,-9.079069977E0,1.759291534E0,9.257129092E0
5.667097042E0,7.185058594E-2,-8.698860626E0,1.966760101E0,8.918715378E0
5.677165042E0,-9.624984741E-2,-8.473579102E0,2.204465790E0,8.756167897E0
5.687234042E0,-1.416055298E-1,-8.410560150E0,2.257156219E0,8.709324220E0
5.697303042E0,-8.666976929E-2,-8.325536957E0,1.915267181E0,8.543437578E0
5.707372042E0,-1.523831177E-1,-8.101153564E0,1.673220520E0,8.273546797E0
5.717440042E0,-3.164419556E-1,-8.006250916E0,1.887724457E0,8.231870556E0
5.727509042E0,-4.008663940E-1,-8.223449249E0,2.052831116E0,8.485277073E0
5.737578042E0,-3.808081055E-1,-8.439450073E0,1.896556091E0,8.658305686E0
5.747646042E0,-4.339476013E-1,-8.592282257E0,1.841470642E0,8.798104286E0
5.757715042E0,-4.099974060E-1,-8.942553864E0,1.810784454E0,9.133252861E0
5.767784042E0,-4.644841003E-1,-9.186546478E0,1.656605072E0,9.346267813E0
5.777853042E0,-5.198689270E-1,-9.125323792E0,1.526375885E0,9.266694197E0
5.787921042E0,-4.242178345E-1,-9.180858307E0,1.561103668E0,9.322293960E0
5.797990042E0,-2.426454163E-1,-9.339079285E0,1.718276825E0,9.498934358E0
5.808059042E0,-2.484832764E-2,-9.393565979E0,1.778751068E0,9.560525854E0
5.818127042E0,-1.245410156E-1,-9.157207489E0,1.735341339E0,9.321017596E0
5.828196042E0,-5.598358154E-1,-9.035959625E0,1.718576202E0,9.214959938E0
5.838265042E0,-1.043180695E0,-9.195078735E0,1.529669037E0,9.379636788E0
5.848333042E0,-1.430126038E0,-9.510023804E0,1.398841095E0,9.718156700E0
5.858402042E0,-1.738335114E0,-9.987381134E0,1.470691681E0,1.024365779E1
5.868471042E0,-1.976340179E0,-1.058239380E1,1.580263824E0,1.088072667E1
5.878540042E0,-1.909129944E0,-1.112980545E1,1.486109619E0,1.138972644E1
5.888608042E0,-1.574575653E0,-1.143786484E1,1.367705841E0,1.162646377E1
5.898677042E0,-1.168170776E0,-1.164233963E1,1.400787048E0,1.178434976E1
5.908746042E0,-7.767347717E-1,-1.205383392E1,1.568588104E0,1.218025853E1
5.918814042E0,-5.111869812E-1,-1.240665024E1,1.678309937E0,1.253008406E1
5.928883042E0,-4.408332825E-1,-1.263776962E1,1.856289825E0,1.278097676E1
5.938952042E0,-6.286926270E-1,-1.297965866E1,2.073637848E0,1.315928445E1
5.949021042E0,-9.306147766E-1,-1.338112381E1,2.361638947E0,1.361975979E1
5.959089042E0,-1.089135132E0,-1.372735382E1,2.663860474E0,1.402578379E1
5.969158042E0,-1.094972992E0,-1.414109344E1,2.954555969E0,1.448788772E1
5.979227042E0,-1.075962524E0,-1.474897934E1,3.332969055E0,1.515911507E1
5.989295042E0,-1.298250275E0,-1.552541473E1,3.584146729E0,1.598655886E1
5.999364042E0,-1.510359192E0,-1.642040359E1,3.682192841E0,1.689583923E1
6.009433042E0,-1.444496155E0,-1.742137207E1,3.554208984E0,1.783881093E1
6.019502042E0,-1.068478088E0,-1.820783661E1,3.241209869E0,1.852491298E1
6.029570042E0,-5.719606018E-1,-1.869866592E1,3.092568970E0,1.896130874E1
6.039639042E0,-3.400927734E-1,-1.903786057E1,3.226540375E0,1.931233701E1
6.049708042E0,-2.689906311E-1,-1.923185715E1,3.277733917E0,1.951102829E1
6.059776042E0,-4.724176025E-1,-1.905178162E1,3.107986908E0,1.930940558E1
6.069845042E0,-1.000369720E0,-1.860705643E1,3.048560486E0,1.888165802E1
6.079914042E0,-1.734592896E0,-1.813224380E1,3.133733368E0,1.848262326E1
6.089982042E0,-2.175575867E0,-1.759276566E1,3.066074066E0,1.798997899E1
6.100051042E0,-2.323468323E0,-1.686722443E1,2.821632385E0,1.725871879E1
6.110120042E0,-2.251767426E0,-1.626143417E1,2.586920471E0,1.661917132E1
6.120189042E0,-1.726809082E0,-1.586131622E1,2.395318909E0,1.613383943E1
6.130257042E0,-9.889933777E-1,-1.558663742E1,2.001487885E0,1.574570823E1
6.140326042E0,-3.323089600E-1,-1.523352173E1,1.643731842E0,1.532554951E1
6.150395042E0,-2.155517578E-2,-1.490944565E1,1.474583588E0,1.498220381E1
6.160463042E0,-4.580474854E-2,-1.478086304E1,1.557960205E0,1.486281434E1
6.170532042E0,-1.823208618E-1,-1.481229767E1,1.823957062E0,1.492528802E1
6.180601042E0,-6.463558960E-1,-1.483295471E1,2.241887970E0,1.501533826E1
6.190670042E0,-1.194665680E0,-1.498324219E1,2.757116547E0,1.528157270E1
6.200738042E0,-1.828896790E0,-1.521810379E1,3.004252625E0,1.561925351E1
6.210807042E0,-2.434687042E0,-1.558349396E1,3.349734192E0,1.612432027E1
6.220876042E0,-2.577490082E0,-1.568348602E1,3.223097534E0,1.621738409E1
6.230944042E0,-2.550097046E0,-1.569426361E1,2.801125031E0,1.614494369E1
6.241013042E0,-1.807491302E0,-1.641202103E1,2.810705109E0,1.674877674E1
6.251082042E0,-7.280859375E-1,-1.612192429E1,2.731819153E0,1.636793780E1
6.261150042E0,-1.257984009E0,-1.518816605E1,3.098706207E0,1.555200604E1
6.271219042E0,-2.250569916E0,-1.477307922E1,4.098926239E0,1.549548744E1
6.281288042E0,-2.353256378E0,-1.528666122E1,5.680088196E0,1.647674813E1
6.291357042E0,-1.784888306E0,-1.642474457E1,5.566175079E0,1.743388555E1
6.301425042E0,-1.075363770E0,-1.656111099E1,3.150049438E0,1.689229457E1
6.311494042E0,8.189469910E-1,-1.524549683E1,9.113049316E-1,1.529465019E1
6.321563042E0,2.683170319E0,-1.365280884E1,-8.774752808E-1,1.394161235E1
6.331631042E0,4.042044525E0,-1.203362595E1,-2.109263763E0,1.286838261E1
6.341700042E0,4.472998352E0,-1.013587234E1,-2.223625946E0,1.129991747E1
6.351769042E0,4.421804810E0,-8.351582794E0,-2.714305573E0,9.832026632E0
6.361838042E0,2.817890167E0,-8.727151794E0,-3.487597504E0,9.811575805E0
6.371906042E0,7.643106079E-1,-6.942263489E0,-2.965782623E0,7.587823115E0
6.381975042E0,-3.125500488E-1,-5.409001923E0,-2.964585114E0,6.176063004E0
6.392044042E0,-2.945874023E-1,-4.768483887E0,-2.215393066E0,5.266230792E0
6.402112042E0,-2.745291138E-1,-3.891906738E0,-1.840422821E0,4.313868386E0
6.412181042E0,-1.089733887E-1,-2.296973419E0,-1.638642426E0,2.823669791E0
6.422250042E0,1.109792175E0,-1.127455444E0,-1.183738403E0,1.975862105E0
6.432319042E0,1.759291534E0,-1.124162292E-1,-1.385219421E0,2.242002890E0
6.442387042E0,1.915267181E0,9.491761780E-1,-1.934277649E0,2.882813524E0
6.452456042E0,2.096091156E0,2.198927307E0,-2.205214233E0,3.753911194E0
6.462525042E0,2.146835632E0,3.009940796E0,-2.583926697E0,4.510579120E0
6.472593042E0,1.880389709E0,3.161126404E0,-3.248095551E0,4.907006247E0
6.482662042E0,1.580563202E0,3.015928345E0,-3.371439056E0,4.791722564E0
6.492731042E0,1.250499573E0,3.123105469E0,-2.622396698E0,4.265501306E0
6.502799042E0,9.234297180E-1,3.299738159E0,-1.574425964E0,3.770916531E0
6.512868042E0,6.099815369E-1,3.421734467E0,-5.367837524E-1,3.516885132E0
6.522937042E0,4.718188477E-1,3.459605713E0,3.167413330E-1,3.505967739E0
6.533006042E0,4.788542175E-1,3.306324463E0,9.473799133E-1,3.472551154E0
6.543074042E0,3.731739807E-1,2.995570679E0,9.307644653E-1,3.158959481E0
6.553143042E0,7.249424744E-1,2.636317749E0,5.764512634E-1,2.794281468E0
6.563212042E0,1.142873383E0,2.325114899E0,5.096900940E-1,2.640473983E0
6.573280042E0,1.416504364E0,2.126927032E0,5.626799011E-1,2.616660445E0
6.583349042E0,1.681752777E0,1.894759827E0,4.439767456E-1,2.572065815E0
6.593418042E0,1.810934143E0,1.495390320E0,5.282514954E-1,2.407223363E0
6.603487042E0,1.580114136E0,9.779164124E-1,6.848258972E-1,1.980421092E0
6.613555042E0,1.263672180E0,5.575904846E-1,6.932084656E-1,1.545416612E0
6.623624042E0,1.193168793E0,2.050735474E-1,7.066804504E-1,1.401821739E0
6.633693042E0,9.231303406E-1,-3.303630066E-1,9.840536499E-1,1.389125958E0
6.643761042E0,2.445913696E-1,-9.795629883E-1,1.292412415E0,1.640030011E0
6.653830042E0,-2.550695801E-1,-1.527124329E0,1.686243439E0,2.289232653E0
6.663899042E0,-5.037025452E-1,-1.846859436E0,2.101479950E0,2.842679020E0
6.673967042E0,-6.911128235E-1,-1.978735199E0,2.223625946E0,3.055739235E0
6.684036042E0,-7.743397522E-1,-1.948348389E0,1.980232086E0,2.883917927E0
6.694105042E0,-7.170089722E-1,-1.934127960E0,1.533860321E0,2.570540861E0
6.704174042E0,-4.709207153E-1,-1.939217377E0,1.074615326E0,2.266523429E0
6.714242042E0,-6.930587769E-2,-1.852248230E0,5.894741821E-1,1.945020982E0
6.724311042E0,2.441423035E-1,-1.758842468E0,1.207987976E-1,1.779810283E0
6.734380042E0,2.874023438E-1,-1.712289276E0,-3.772155762E-1,1.776745976E0
6.744448042E0,1.960922241E-1,-1.775308228E0,-6.724017334E-1,1.908479907E0
6.754517042E0,2.577639771E-1,-1.983076172E0,-5.686674500E-1,2.079042097E0
6.764586042E0,2.468367004E-1,-2.360591125E0,-1.306782532E-1,2.377056084E0
6.774655042E0,3.802093506E-2,-2.977308655E0,2.911445618E-1,2.991751589E0
6.784723042E0,1.227447510E-1,-3.808530121E0,2.276765442E-1,3.817303310E0
6.794792042E0,3.525169373E-1,-4.954397278E0,-4.587959290E-1,4.988067189E0
6.804861042E0,2.161505127E-1,-6.115682373E0,-1.610950012E0,6.327989560E0
6.814929042E0,3.215313721E-1,-7.353757782E0,-2.733914795E0,7.852096920E0
6.824998042E0,3.611988831E-1,-8.922196198E0,-3.797752533E0,9.703554705E0
6.835067042E0,-2.104623413E-1,-1.046488815E1,-4.708907776E0,1.147745577E1
6.845136042E0,-5.620811462E-1,-1.201925583E1,-4.729864197E0,1.292865272E1
6.855204042E0,-6.569837952E-1,-1.382300491E1,-2.890788574E0,1.413731768E1
6.865273042E0,-5.084925842E-1,-1.599873047E1,1.962419128E-1,1.600801213E1
6.875342042E0,-7.903564453E-2,-1.856439514E1,3.015030212E0,1.880780213E1
6.885410042E0,3.826043701E-1,-2.080927689E1,4.504133606E0,2.129459110E1
6.895479042E0,8.173004150E-2,-2.171354645E1,5.033432922E0,2.228946446E1
6.905548042E0,-1.691482544E-1,-2.165022812E1,5.622907104E0,2.236913215E1
6.915616042E0,1.645079041E-1,-2.081855759E1,5.780828705E0,2.160688278E1
6.925685042E0,6.536906433E-1,-1.907677963E1,4.705165558E0,1.965933406E1
6.935754042E0,4.568499756E-1,-1.686108719E1,2.887345734E0,1.711261928E1
6.945823042E0,3.595523071E-1,-1.474119553E1,1.579365692E0,1.482991974E1
6.955891042E0,3.228785706E-1,-1.286649399E1,1.601819000E0,1.296983971E1
6.965960042E0,4.715194702E-2,-1.181208664E1,2.063459015E0,1.199105822E1
6.976029042E0,-2.218386841E-1,-1.122366028E1,2.149380341E0,1.142976808E1
6.986097042E0,-1.681004333E-1,-1.056577835E1,2.356399841E0,1.082665923E1
6.996166042E0,-9.071136475E-2,-1.015608032E1,2.530038757E0,1.046686640E1
7.006235042E0,-3.043171692E-1,-1.026954437E1,2.595153351E0,1.059674344E1
7.016304042E0,-7.114704895E-1,-1.057775345E1,2.537972260E0,1.090120917E1
7.026372042E0,-1.228944397E0,-1.118264557E1,2.388732605E0,1.150077866E1
7.036441042E0,-1.656305695E0,-1.178050232E1,2.003733215E0,1.206393511E1
7.046510042E0,-1.563199310E0,-1.202165085E1,1.688189392E0,1.223983924E1
7.056578042E0,-1.064735870E0,-1.263268021E1,1.649869080E0,1.278437874E1
7.066647042E0,-3.926335144E-1,-1.320703583E1,1.630559235E0,1.331310181E1
7.076716042E0,2.103126526E-1,-1.344923218E1,1.981878662E0,1.359609946E1
7.086784042E0,4.278103638E-1,-1.370310425E1,2.585722961E0,1.395148920E1
7.096853042E0,2.752775574E-1,-1.395143784E1,3.062780914E0,1.428632291E1
7.106922042E0,-2.164498901E-1,-1.406699753E1,3.321293335E0,1.445538859E1
7.116991042E0,-5.954617310E-1,-1.379291748E1,3.282074890E0,1.419053075E1
7.127059042E0,-9.107061768E-1,-1.330163910E1,3.149600372E0,1.369974346E1
7.137128042E0,-1.206341400E0,-1.290825714E1,2.940036163E0,1.329368928E1
7.147197042E0,-1.267414398E0,-1.250709137E1,2.553390198E0,1.282783985E1
7.157265042E0,-1.329984283E0,-1.221160583E1,2.120041351E0,1.246542220E1
7.167334042E0,-1.117426300E0,-1.221894058E1,1.861678619E0,1.241035849E1
7.177403042E0,-7.143145752E-1,-1.230381409E1,1.687141571E0,1.243947479E1
7.187472042E0,-4.709207153E-1,-1.228390549E1,1.765578461E0,1.241907274E1
7.197540042E0,-2.806663513E-1,-1.250125351E1,2.153871002E0,1.268854890E1
7.207609042E0,-1.243913269E-1,-1.273342072E1,2.376607819E0,1.295390833E1
7.217678042E0,-3.667373657E-2,-1.299402878E1,2.448009338E0,1.322266534E1
7.227746042E0,-2.050735474E-2,-1.345671661E1,2.569556580E0,1.369986363E1
7.237815042E0,4.580474854E-2,-1.401295990E1,2.553689575E0,1.424382230E1
7.247884042E0,-3.412902832E-2,-1.475975693E1,2.375410309E0,1.494972118E1
7.257952042E0,-3.661386108E-1,-1.570354431E1,2.112706604E0,1.584925521E1
7.268021042E0,-6.556365967E-1,-1.654763901E1,1.860930176E0,1.666485155E1
7.278090042E0,-8.183482361E-1,-1.748214569E1,2.009421387E0,1.761626766E1
7.288159042E0,-7.029382324E-1,-1.858325592E1,2.373763733E0,1.874743388E1
7.298227042E0,-6.303392029E-1,-1.942645248E1,2.635718994E0,1.961457107E1
7.308296042E0,-5.638774109E-1,-2.001577698E1,3.018173676E0,2.024990514E1
7.318365042E0,-5.917195129E-1,-2.050316345E1,3.468437347E0,2.080288204E1
7.328433042E0,-6.843768311E-1,-2.065270248E1,3.888613586E0,2.102674029E1
7.338502042E0,-7.399113464E-1,-2.056318863E1,4.263733521E0,2.101360557E1
7.348571042E0,-7.396119690E-1,-2.051528824E1,4.574337616E0,2.103208601E1
7.358640042E0,-7.562274170E-1,-2.049927155E1,4.809049530E0,2.106938469E1
7.368708042E0,-8.199948120E-1,-2.029584457E1,5.093757477E0,2.094134818E1
7.378777042E0,-9.048683167E-1,-1.964110611E1,4.866829376E0,2.025531693E1
7.388846042E0,-8.876541138E-1,-1.866872818E1,4.264032898E0,1.917006307E1
7.398914042E0,-7.566764832E-1,-1.770143967E1,3.682043152E0,1.809615891E1
7.408983042E0,-5.023553467E-1,-1.667966446E1,2.965782623E0,1.694872957E1
7.419052042E0,-2.811154175E-1,-1.558484116E1,2.314786377E0,1.575831640E1
7.429120042E0,-1.984872437E-1,-1.503428604E1,2.053280182E0,1.517514789E1
7.439189042E0,-2.402503967E-1,-1.517574188E1,2.026785278E0,1.531237149E1
7.449258042E0,-2.915936279E-1,-1.525462784E1,2.064506836E0,1.539645692E1
7.459327042E0,-3.204835510E-1,-1.537901917E1,2.153721313E0,1.553240019E1
7.469395042E0,-3.652404785E-1,-1.551448746E1,2.013612671E0,1.564887720E1
7.479464042E0,-3.574566650E-1,-1.551688248E1,1.912273407E0,1.563835690E1
7.489533042E0,-3.890409851E-1,-1.535596710E1,1.834435272E0,1.547004303E1
7.499601042E0,-6.271957397E-1,-1.507066040E1,1.425635376E0,1.515092788E1
7.509670042E0,-7.030879211E-1,-1.451756058E1,9.509724426E-1,1.456565297E1
7.519739042E0,-4.960684204E-1,-1.373483826E1,6.911128235E-1,1.376115921E1
7.529808042E0,-2.671943665E-1,-1.297037796E1,3.433859253E-1,1.297767356E1
7.539876042E0,2.589614868E-2,-1.222807159E1,2.282752991E-1,1.223022956E1
7.549945042E0,1.672023010E-1,-1.146660507E1,1.779798889E-1,1.146920509E1
7.560014042E0,2.513273621E-1,-1.044902115E1,2.649490356E-2,1.045207685E1
7.570082042E0,3.345542908E-1,-9.159452820E0,-1.368154907E-1,9.166581752E0
7.580151042E0,4.002676392E-1,-7.661068726E0,-1.260379028E-1,7.672553275E0
7.590220042E0,2.969824219E-1,-6.196514282E0,-4.236190796E-2,6.203771622E0
7.600288042E0,7.948471069E-2,-4.957241364E0,3.323089600E-1,4.969002818E0
7.610357042E0,-1.832189941E-1,-4.260889435E0,1.326541443E0,4.466369910E0
7.620426042E0,-3.507206726E-1,-3.962559814E0,2.237846375E0,4.564300786E0
7.630495042E0,3.757186890E-2,-3.475472717E0,2.154469757E0,4.089261815E0
7.640563042E0,3.556604004E-1,-2.473606110E0,1.207538910E0,2.775494861E0
7.650632042E0,4.382885742E-1,-1.245559845E0,-2.896476746E-1,1.351818027E0
7.660701042E0,6.532415771E-1,-2.192939758E-1,-2.008972321E0,2.123860681E0
7.670769042E0,1.025068359E0,6.379733276E-1,-3.977678375E0,4.156885898E0
7.680838042E0,1.247206421E0,1.296903076E0,-5.526507568E0,5.812036420E0
7.690907042E0,1.399888916E0,1.769470367E0,-6.056255951E0,6.462890259E0
7.700975042E0,1.538650360E0,2.185155945E0,-5.778583374E0,6.366661389E0
7.711044042E0,1.584904175E0,2.456990662E0,-5.071304169E0,5.853789399E0
7.721113042E0,1.610950012E0,2.508184204E0,-4.007017365E0,4.994230281E0
7.731182042E0,1.625769196E0,2.439028015E0,-2.813249817E0,4.062801702E0
7.741250042E0,1.648521881E0,2.406545563E0,-1.848056946E0,3.453172514E0
7.751319042E0,1.425485687E0,2.309397583E0,-1.004261627E0,2.893763649E0
7.761388042E0,1.136287079E0,2.130369873E0,-1.435514832E-1,2.418725108E0
7.771456042E0,8.705895996E-1,1.995650024E0,7.430548096E-1,2.300581605E0
7.781525042E0,4.296066284E-1,1.815724182E0,1.535656586E0,2.416538291E0
7.791594042E0,-9.654922485E-2,1.586401062E0,2.001038818E0,2.555415120E0
7.801663042E0,-4.933740234E-1,1.416654053E0,1.962568817E0,2.470223268E0
7.811731042E0,-7.688012695E-1,1.338516541E0,1.653311920E0,2.261884663E0
7.821800042E0,-1.037193146E0,1.179996185E0,1.160386963E0,1.953115082E0
7.831869042E0,-1.220112762E0,1.034798126E0,6.674620056E-1,1.733490076E0
7.841937042E0,-1.232087860E0,8.328680420E-1,2.038760376E-1,1.501091306E0
7.852006042E0,-1.137783966E0,5.613327026E-1,-1.698966980E-1,1.280043610E0
7.862075042E0,-1.027164001E0,2.242337036E-1,-3.180885315E-1,1.098420208E0
7.872143042E0,-8.821156311E-1,-1.987866211E-1,-1.585203552E-1,9.180265848E-1
7.882212042E0,-6.972500610E-1,-6.716532898E-1,1.263372803E-1,9.763385159E-1
7.892281042E0,-5.763015747E-1,-1.006506958E0,3.899391174E-1,1.223614431E0
7.902350042E0,-5.736071777E-1,-1.219663696E0,6.014492798E-1,1.475922072E0
7.912418042E0,-7.012916565E-1,-1.410816193E0,7.764353943E-1,1.756435094E0
7.922487042E0,-8.173004150E-1,-1.570833435E0,8.463400269E-1,1.962597536E0
7.932556042E0,-9.075627136E-1,-1.576072540E0,7.574249268E-1,1.970118588E0
7.942624042E0,-9.565109253E-1,-1.482367401E0,6.489006042E-1,1.879733560E0
7.952693042E0,-1.003812561E0,-1.574575653E0,7.101232910E-1,1.997799598E0
7.962762042E0,-1.072070618E0,-1.934876404E0,9.060658264E-1,2.390405277E0
7.972831042E0,-1.049168243E0,-2.194885712E0,9.991722107E-1,2.629947223E0
7.982899042E0,-9.380992126E-1,-2.386936340E0,9.669891357E-1,2.740905546E0
7.992968042E0,-6.683601379E-1,-2.721939697E0,8.807684326E-1,2.937926824E0
8.003037042E0,-5.923182678E-1,-3.175346832E0,6.741979980E-1,3.299728985E0
8.013105042E0,-7.039860535E-1,-3.867806854E0,2.547702026E-1,3.939598213E0
8.023174042E0,-7.384144592E-1,-4.915178833E0,-3.761677551E-1,4.984550236E0
8.033243042E0,-6.388714600E-1,-6.273154907E0,-9.334588623E-1,6.374321507E0
8.043311042E0,-3.914360046E-1,-8.124355316E0,-1.260828094E0,8.230920904E0
8.053380042E0,5.134323120E-2,-1.048569489E1,-1.108594666E0,1.054425984E1
8.063449042E0,1.471440125E-1,-1.258822266E1,-2.008972321E0,1.274837130E1
8.073518042E0,-4.746629333E-1,-1.425844940E1,-3.135230255E0,1.460679133E1
8.083586042E0,-6.459068298E-1,-1.629047379E1,-1.689386902E0,1.639056924E1
8.093655042E0,-4.914280701E-1,-1.855197098E1,1.922601929E0,1.865780070E1
8.103724042E0,-1.157093811E-1,-1.982612137E1,4.799619141E0,2.039913775E1
8.113792042E0,6.011499023E-1,-1.981040405E1,7.106172638E0,2.105495617E1
8.123861042E0,6.860234070E-1,-1.928754135E1,8.412805481E0,2.105362619E1
8.133930042E0,5.066963196E-1,-1.874432098E1,7.288942566E0,2.011802659E1
8.143998042E0,-1.064286804E-1,-1.759471161E1,4.549638977E0,1.817372880E1
8.154067042E0,-9.633966064E-1,-1.621622818E1,2.177372131E0,1.639009270E1
8.164136042E0,-1.247805176E0,-1.572150696E1,1.388362885E0,1.583194083E1
8.174205042E0,-9.583071899E-1,-1.580383575E1,2.061213684E0,1.596647046E1
8.184273042E0,-3.948788452E-1,-1.600247269E1,3.435056763E0,1.637176461E1
8.194342042E0,-5.703140259E-1,-1.578886688E1,4.387675781E0,1.639711177E1
8.204411042E0,-1.177750854E0,-1.493040207E1,4.222569122E0,1.556065850E1
8.214479042E0,-1.414857788E0,-1.390069336E1,3.408112793E0,1.438215322E1
8.224548042E0,-1.421294403E0,-1.284089722E1,2.418370972E0,1.314371474E1
8.234617042E0,-1.442999268E0,-1.185789139E1,1.568737793E0,1.204793648E1
8.244686042E0,-1.322499847E0,-1.135448822E1,1.114582214E0,1.148545611E1
8.254754042E0,-1.056502991E0,-1.115854568E1,9.958790588E-1,1.125260483E1
8.264823042E0,-6.408174133E-1,-1.106034988E1,1.044228516E0,1.112800071E1
8.274892042E0,-1.613644409E-1,-1.124910736E1,1.427281952E0,1.134044041E1
8.284960042E0,3.538641357E-1,-1.174637329E1,2.049837341E0,1.192913821E1
8.295029042E0,8.192463684E-1,-1.215607132E1,2.319576416E0,1.240248642E1
8.305098042E0,9.452842712E-1,-1.243928238E1,2.366878052E0,1.269769350E1
8.315166042E0,8.660989380E-1,-1.275961624E1,2.471510468E0,1.302560164E1
8.325235042E0,6.351292419E-1,-1.295211594E1,2.502795410E0,1.320699365E1
8.335304042E0,2.157014465E-1,-1.311782135E1,2.522404633E0,1.335987609E1
8.345373042E0,-1.251397705E-1,-1.320838303E1,2.563868408E0,1.345549937E1
8.355441042E0,-3.436853027E-1,-1.305839493E1,2.555485840E0,1.331053363E1
8.365510042E0,-5.255570984E-1,-1.271770340E1,2.501298523E0,1.297199616E1
8.375579042E0,-7.246430969E-1,-1.233105743E1,2.438279572E0,1.259068276E1
8.385647042E0,-9.574090576E-1,-1.219618790E1,2.399510193E0,1.246680715E1
8.395716042E0,-9.068142700E-1,-1.249855911E1,2.504891052E0,1.277931028E1
8.405785042E0,-6.632707214E-1,-1.266246826E1,2.451152802E0,1.291457241E1
8.415853042E0,-4.740641785E-1,-1.256861343E1,2.440674591E0,1.281216894E1
8.425922042E0,-3.812571716E-1,-1.259885056E1,2.487078094E0,1.284764374E1
8.435991042E0,-3.088078308E-1,-1.276530441E1,2.324965210E0,1.297897616E1
8.446060042E0,-2.565664673E-1,-1.303698944E1,2.410287781E0,1.326040751E1
8.456128042E0,-2.228865051E-1,-1.326017532E1,2.613565063E0,1.351712434E1
8.466197042E0,-2.326162720E-1,-1.343336517E1,2.702779541E0,1.370454040E1
8.476266042E0,-2.980302429E-1,-1.368080063E1,2.873724060E0,1.398253975E1
8.486334042E0,-1.675016785E-1,-1.413151337E1,3.152893524E0,1.447993316E1
8.496403042E0,1.631607056E-2,-1.458656708E1,3.231929169E0,1.494033371E1
8.506472042E0,5.071453857E-1,-1.500015701E1,3.427272949E0,1.539506761E1
8.516541042E0,8.240364075E-1,-1.546299454E1,3.842509460E0,1.595456408E1
8.526609042E0,9.407936096E-1,-1.596505051E1,4.023183746E0,1.649102598E1
8.536678042E0,8.334667969E-1,-1.650497772E1,4.077670441E0,1.702164366E1
8.546747042E0,6.562353516E-1,-1.704176147E1,3.991449738E0,1.751524907E1
8.556815042E0,5.785469055E-1,-1.745580048E1,3.746259613E0,1.786264672E1
8.566884042E0,3.727249146E-1,-1.770518188E1,3.771407318E0,1.810623933E1
8.576953042E0,2.595602417E-1,-1.792881683E1,4.046385498E0,1.838159624E1
8.587021042E0,2.017803955E-1,-1.814781143E1,4.192182312E0,1.862681314E1
8.597090042E0,3.622467041E-2,-1.833641922E1,4.432582397E0,1.886460624E1
8.607159042E0,6.286926270E-2,-1.842518463E1,4.725822601E0,1.902169237E1
8.617228042E0,3.562591553E-1,-1.839868973E1,4.890330505E0,1.904085179E1
8.627296042E0,5.575904846E-1,-1.835393280E1,4.987179108E0,1.902760394E1
8.637365042E0,2.647993469E-1,-1.822969116E1,4.916376343E0,1.888286300E1
8.647434042E0,-2.046244812E-1,-1.793675034E1,4.699627075E0,1.854333784E1
8.657502042E0,-8.996292114E-1,-1.758977188E1,4.598886566E0,1.820327347E1
8.667571042E0,-1.675914917E0,-1.724803253E1,4.601580963E0,1.792980380E1
8.677640042E0,-2.212698669E0,-1.687201447E1,4.647984467E0,1.763986018E1
8.687708042E0,-2.417173462E0,-1.643746811E1,4.467459869E0,1.720439720E1
8.697777042E0,-2.393372955E0,-1.616009491E1,4.157005463E0,1.685697470E1
8.707846042E0,-1.984123993E0,-1.595307541E1,4.008963318E0,1.656831765E1
8.717915042E0,-1.304986267E0,-1.562390991E1,3.964655457E0,1.617182868E1
8.727983042E0,-8.325686646E-1,-1.544188843E1,3.849095764E0,1.593614216E1
8.738052042E0,-6.692582703E-1,-1.526495636E1,3.307222595E0,1.563344238E1
8.748121042E0,-6.625222778E-1,-1.489357864E1,2.535577240E0,1.512239308E1
8.758189042E0,-7.999365234E-1,-1.450214264E1,1.662891998E0,1.461907143E1
8.768258042E0,-9.824070740E-1,-1.419917267E1,6.363267517E-1,1.424733448E1
8.778327042E0,-1.251996460E0,-1.382165771E1,1.809736633E-1,1.387942609E1
8.788396042E0,-1.147513733E0,-1.322065750E1,8.637039185E-2,1.327064551E1
8.798464042E0,-7.741900635E-1,-1.257549911E1,-3.891906738E-2,1.259936756E1
8.808533042E0,-1.670526123E-1,-1.207329346E1,7.544311523E-2,1.207468480E1
8.818602042E0,6.788383484E-1,-1.155282578E1,3.400927734E-1,1.157774883E1
8.828670042E0,1.247954865E0,-1.073103470E1,5.239105225E-2,1.080348286E1
8.838739042E0,1.637145538E0,-9.480385437E0,-4.725672913E-1,9.632303639E0
8.848808042E0,2.067350922E0,-8.429869995E0,-5.418731689E-1,8.696566823E0
8.858876042E0,2.325563965E0,-7.732170868E0,-2.140548706E-1,8.077161232E0
8.868945042E0,2.267035675E0,-7.176825714E0,2.505789185E-1,7.530542336E0
8.879014042E0,1.905836792E0,-6.783294067E0,6.795867920E-1,7.078639028E0
8.889083042E0,1.403182068E0,-6.320606232E0,1.011147308E0,6.552968940E0
8.899151042E0,6.876699829E-1,-5.650000763E0,1.127904510E0,5.802375997E0
8.909220042E0,-7.948471069E-2,-4.822222137E0,1.094224548E0,4.945449578E0
8.919289042E0,-2.573149109E-1,-3.852688293E0,6.728507996E-1,3.919457392E0
8.929357042E0,-1.835183716E-1,-2.768043823E0,-1.249900818E-1,2.776935023E0
8.939426042E0,-4.664300537E-1,-1.506018219E0,-6.947053528E-1,1.722864881E0
8.949495042E0,-6.595285034E-1,-1.833686829E-1,-1.003363495E0,1.214635840E0
8.959563042E0,-5.471122742E-1,1.140478363E0,-1.084195404E0,1.665983917E0
8.969632042E0,-1.727407837E-1,2.303260345E0,-1.173409882E0,2.590702288E0
8.979701042E0,1.404080200E-1,3.223247223E0,-1.414558411E0,3.522784775E0
8.989770208E0,3.128494263E-1,3.875291290E0,-1.696272583E0,4.241827203E0
8.999838208E0,4.013154602E-1,4.129462738E0,-1.699865112E0,4.483643385E0
9.009907208E0,5.522016907E-1,4.175417175E0,-1.311871948E0,4.411353908E0
9.019976208E0,7.988887024E-1,4.095184021E0,-6.132746887E-1,4.217210117E0
9.030044208E0,9.514215088E-1,3.866609344E0,2.609074402E-1,3.990481600E0
9.040113208E0,6.465055847E-1,3.623514862E0,7.226971436E-1,3.751015941E0
9.050182208E0,9.056167603E-2,3.396736450E0,6.551875305E-1,3.460533287E0
9.060250208E0,-3.019221497E-1,3.130440216E0,3.713777161E-1,3.166817699E0
9.070319208E0,-4.221221924E-1,2.848576355E0,1.053808594E-1,2.881610578E0
9.080388208E0,-3.962260437E-1,2.555635529E0,-1.332229614E-1,2.589597727E0
9.090457208E0,-5.469625854E-1,2.139949951E0,-3.969744873E-1,2.244135158E0
9.100525208E0,-7.068301392E-1,1.643582153E0,-5.538482666E-1,1.872890558E0
9.110594208E0,-6.435118103E-1,1.234183502E0,-4.870870972E-1,1.474642400E0
9.120663208E0,-6.283932495E-1,8.942404175E-1,-4.231700134E-1,1.172014019E0
9.130731208E0,-5.983058167E-1,4.846920776E-1,-3.323089600E-1,8.386450413E-1
9.140800208E0,-6.288423157E-1,1.221459961E-1,-2.829116821E-2,6.412196913E-1
9.150869208E0,-6.496490479E-1,-1.077758789E-1,1.993853760E-1,6.880509092E-1
9.160938208E0,-5.535488892E-1,-3.162922668E-1,1.844165039E-1,6.636765912E-1
9.171006208E0,-5.066963196E-1,-5.878276062E-1,2.291734314E-1,8.091989351E-1
9.181075208E0,-4.559518433E-1,-9.515711975E-1,3.082090759E-1,1.099260052E0
9.191144208E0,-3.100053406E-1,-1.247356110E0,4.270619202E-1,1.354393761E0
9.201212208E0,-2.014810181E-1,-1.401685181E0,5.120851135E-1,1.505837677E0
9.211281208E0,-2.483335876E-1,-1.528621216E0,5.394781494E-1,1.639935690E0
9.221350208E0,-3.890409851E-1,-1.752705231E0,6.228547668E-1,1.900335911E0
9.231418208E0,-5.688171387E-1,-2.070644073E0,7.539820862E-1,2.275875393E0
9.241487208E0,-7.417076111E-1,-2.586621094E0,9.629475403E-1,2.857972503E0
9.251556208E0,-8.511300659E-1,-3.187321930E0,1.116228790E0,3.482730278E0
9.261625208E0,-9.345066833E-1,-3.801045685E0,1.223106537E0,4.100882910E0
9.271693208E0,-1.058149567E0,-4.684059448E0,1.168769531E0,4.942278385E0
9.281762208E0,-1.149309998E0,-5.661975861E0,6.619235229E-1,5.815240912E0
9.291831208E0,-9.636959839E-1,-6.518195343E0,-4.279600525E-1,6.602933461E0
9.301899208E0,-6.348298645E-1,-7.422764282E0,-1.647174683E0,7.629785251E0
9.311968208E0,-5.447172546E-1,-8.758885803E0,-2.294279022E0,9.070750445E0
9.322037208E0,-5.059478760E-1,-1.027807663E1,-2.330503693E0,1.055111795E1
9.332105208E0,-3.161425781E-1,-1.159952866E1,-2.915936279E0,1.196460177E1
9.342174208E0,-3.372486877E-1,-1.302112244E1,-3.447031860E0,1.347387824E1
9.352243208E0,-3.775149536E-1,-1.509041931E1,-2.057022400E0,1.523465174E1
9.362312208E0,-3.486250305E-1,-1.791639267E1,5.610333252E-1,1.792856447E1
9.372380208E0,1.401086426E-1,-2.027937881E1,2.203867035E0,2.039926139E1
9.382449208E0,5.501060486E-1,-2.154619446E1,3.290756836E0,2.180298587E1
9.392518208E0,4.870870972E-1,-2.210692841E1,4.395758972E0,2.254498246E1
9.402586208E0,4.441264343E-1,-2.217009705E1,5.281766510E0,2.279490094E1
9.412655208E0,5.442681885E-1,-2.131522476E1,5.213807831E0,2.195037190E1
9.422724208E0,5.599855042E-1,-1.991264145E1,4.292324066E0,2.037770642E1
9.432793208E0,9.732760620E-1,-1.860540985E1,3.652404785E0,1.898548400E1
9.442861208E0,1.405726776E0,-1.748963013E1,3.861070862E0,1.796583140E1
9.452930208E0,1.244961090E0,-1.731509308E1,4.441264343E0,1.791890637E1
9.462999208E0,5.559439087E-1,-1.732302658E1,4.361180878E0,1.787221929E1
9.473067208E0,2.519261169E-1,-1.685390213E1,4.252955933E0,1.738404780E1
9.483136208E0,2.755769348E-1,-1.620545059E1,4.271667023E0,1.676125624E1
9.493205208E0,2.427951050E-1,-1.534908142E1,3.914210358E0,1.584216818E1
9.503273208E0,2.384541321E-1,-1.401430710E1,3.240611115E0,1.438607744E1
9.513342208E0,1.893562317E-1,-1.268147873E1,2.679428101E0,1.296283509E1
9.523411208E0,2.932402039E-1,-1.159413986E1,2.427501984E0,1.184917022E1
9.533480208E0,5.589376831E-1,-1.058868073E1,2.239193573E0,1.083727635E1
9.543548208E0,1.053359528E0,-9.727371826E0,2.148482208E0,1.001735019E1
9.553617208E0,1.671274567E0,-9.368418274E0,1.828298035E0,9.690360847E0
9.563686208E0,2.276615753E0,-9.333241425E0,1.610800323E0,9.740998535E0
9.573754208E0,2.588716736E0,-9.540859680E0,1.795815582E0,1.004760725E1
9.583823208E0,2.434237976E0,-1.008033783E1,1.871408386E0,1.053759435E1
9.593892208E0,1.996997223E0,-1.047836014E1,1.669178925E0,1.079676745E1
9.603960208E0,1.125060425E0,-1.060888870E1,1.395847321E0,1.075930621E1
9.614029208E0,1.425036621E-1,-1.079360458E1,1.172960815E0,1.085808658E1
9.624098208E0,-2.423460388E-1,-1.076935501E1,1.243015137E0,1.084356148E1
9.634167208E0,-5.164260864E-2,-1.039483383E1,1.559157715E0,1.051124208E1
9.644235208E0,5.984555054E-1,-9.783654785E0,2.020198975E0,1.000795952E1
9.654304208E0,1.192719727E0,-8.854686584E0,2.167941742E0,9.193912456E0
9.664373208E0,1.463506622E0,-7.949818268E0,2.261796570E0,8.393877879E0
9.674441208E0,1.420096893E0,-7.523654480E0,2.381397858E0,8.018298303E0
9.684510208E0,1.110690308E0,-7.322622528E0,2.357597351E0,7.772560641E0
9.694579208E0,5.099894714E-1,-7.283853149E0,2.551444244E0,7.734628220E0
9.704648208E0,-1.540296936E-1,-7.553741913E0,2.733016663E0,8.034433528E0
9.714716208E0,-6.068380737E-1,-7.922574921E0,2.652484131E0,8.376820273E0
9.724785208E0,-7.107220459E-1,-8.019423523E0,2.379900970E0,8.395249138E0
9.734854208E0,-7.249424744E-1,-7.825426941E0,2.069147186E0,8.126759408E0
9.744922208E0,-7.186555481E-1,-7.686665497E0,1.782642975E0,7.923326841E0
9.754991208E0,-6.045927429E-1,-7.734565887E0,1.779200134E0,7.959559973E0
9.765060208E0,-4.890330505E-1,-8.092621307E0,2.199975128E0,8.400569237E0
9.775128208E0,-2.052232361E-1,-8.467890930E0,2.508782959E0,8.834097878E0
9.785197208E0,2.948867798E-2,-8.734636230E0,2.485880585E0,9.081538523E0
9.795266208E0,7.185058594E-3,-9.295220490E0,2.352657623E0,9.588335281E0
9.805335208E0,5.807922363E-2,-1.010967682E1,2.071991272E0,1.031998481E1
9.815403208E0,-1.410067749E-1,-1.088401657E1,1.625020752E0,1.100556187E1
9.825472208E0,-5.077441406E-1,-1.154339539E1,1.278491364E0,1.162507296E1
9.835541208E0,-7.556286621E-1,-1.217553085E1,1.055006104E0,1.224449117E1
9.845609208E0,-8.252339172E-1,-1.322963882E1,1.182241516E0,1.330796940E1
9.855678208E0,-6.869215393E-1,-1.479433502E1,1.551972656E0,1.489136760E1
9.865747208E0,-6.626719666E-1,-1.652294037E1,1.877096558E0,1.664242122E1
9.875815208E0,-8.774752808E-1,-1.843326782E1,2.300266571E0,1.859695007E1
9.885884208E0,-1.340761871E0,-2.069566315E1,2.742746429E0,2.091962651E1
9.895953208E0,-1.668280792E0,-2.257186157E1,3.233875122E0,2.286329031E1
9.906022208E0,-1.889820099E0,-2.394929718E1,3.741469574E0,2.431334716E1
9.916090208E0,-1.681303711E0,-2.474653931E1,3.631897430E0,2.506808068E1
9.926159208E0,-1.224902802E0,-2.502376282E1,3.011287994E0,2.523404343E1
9.936228208E0,-7.848179626E-1,-2.497301834E1,2.343825989E0,2.509504143E1
9.946296208E0,-1.193019104E-1,-2.425511124E1,1.604513397E0,2.430841659E1
9.956365208E0,2.194436646E-1,-2.363629807E1,9.821076965E-1,2.365771074E1
9.966434208E0,2.357597351E-1,-2.340502899E1,8.378077698E-1,2.342120592E1
9.976502208E0,2.871029663E-1,-2.306822937E1,1.055006104E0,2.309412636E1
9.986571042E0,2.420466614E-1,-2.244627274E1,1.181642761E0,2.247865712E1
9.996640042E0,2.362088013E-1,-2.168345901E1,1.221909027E0,2.171914481E1
1.000670904E1,1.007405090E-1,-2.097363510E1,1.341061249E0,2.101670677E1
1.001677704E1,-5.957611084E-2,-2.024315414E1,1.637744293E0,2.030938319E1
1.002684604E1,-7.813751221E-2,-1.933633987E1,1.864522705E0,1.942618311E1
1.003691504E1,-1.504371643E-1,-1.814137482E1,1.940265198E0,1.824545808E1
1.004698304E1,-4.010160828E-1,-1.664628387E1,1.664987640E0,1.673414965E1
1.005705204E1,-6.273454285E-1,-1.523786270E1,1.188678131E0,1.529702513E1
1.006712104E1,-8.036787415E-1,-1.423614578E1,7.267387390E-1,1.427732102E1
1.007719004E1,-8.949888611E-1,-1.353874603E1,3.818559265E-1,1.357366801E1
1.008725804E1,-8.979826355E-1,-1.281320480E1,2.300715637E-1,1.284669308E1
1.009732704E1,-6.643185425E-1,-1.203257812E1,-7.649093628E-2,1.205114544E1
1.010739604E1,-1.073268127E-1,-1.096993790E1,-1.546284485E-1,1.097155260E1
1.011746404E1,4.360432434E-1,-9.438173218E0,-1.264869690E-1,9.449087064E0
1.012753304E1,1.287921753E0,-7.894134064E0,-1.769320679E-1,8.000462488E0
1.013760204E1,2.285148010E0,-7.057374115E0,1.713935852E-1,7.420094783E0
1.014767004E1,2.625091095E0,-6.013295288E0,1.073567505E0,6.648561549E0
1.015773904E1,2.492915955E0,-5.026996307E0,2.796185303E-1,5.618141005E0
1.016780804E1,3.494034119E0,-4.513414307E0,-5.395230560E0,7.854151509E0
1.017787704E1,3.604953461E0,-4.207749939E0,-9.017847290E0,1.058406438E1
1.018794504E1,3.026556244E0,-2.483485565E0,-5.375771027E0,6.650312578E0
1.019801404E1,3.165167999E0,-6.024971008E-1,-1.372645569E-1,3.224923686E0
1.020808304E1,3.528911591E0,-1.260678406E0,1.957928467E0,4.228003186E0
1.021815104E1,2.291285248E0,-3.392096100E0,2.311493225E0,4.700989786E0
1.022822004E1,-1.547182617E0,-4.949008484E0,2.329006805E0,5.684252961E0
1.023828904E1,-5.772296448E0,-4.838388519E0,5.477110291E-1,7.551781056E0
1.024835704E1,-5.956413574E0,-3.051105194E0,-2.621947632E0,7.187677995E0
1.025842604E1,-4.211342468E0,-5.198689270E-1,-4.571044464E0,6.236995798E0
1.026849504E1,-4.562362518E0,1.266366577E-1,-4.636608124E0,6.506098945E0
1.027856404E1,-5.233866119E0,-2.294728088E-1,-3.161575470E0,6.118951853E0
1.028863204E1,-5.045857086E0,-3.502716064E-2,-1.722767487E0,5.331962908E0
1.029870104E1,-2.880759430E0,5.824388123E-1,-6.354286194E-1,3.006955170E0
1.030877004E1,-1.061143341E0,9.541159058E-1,2.317181396E-1,1.445702476E0
1.031883804E1,-4.251159668E-2,7.948471069E-1,1.088237000E0,1.348276280E0
1.032890704E1,9.397457886E-1,3.915856934E-1,1.691781921E0,1.974484128E0
1.033897604E1,1.779050446E0,2.656974792E-1,1.772763519E0,2.525530862E0
1.034904404E1,2.002685394E0,3.585044861E-1,1.555116119E0,2.560792924E0
1.035911304E1,1.683249664E0,3.320095825E-1,1.023272095E0,1.997660025E0
1.036918204E1,9.639953613E-1,5.508544922E-2,4.258644104E-1,1.055311309E0
1.037925104E1,1.073268127E-1,-2.911445618E-1,-2.724334717E-2,3.114906107E-1
1.038931904E1,-4.779560852E-1,-5.539979553E-1,-3.435356140E-1,8.083145873E-1
1.039938804E1,-7.331753540E-1,-8.059240723E-1,-5.090913391E-1,1.202594571E0
1.040945704E1,-7.604187012E-1,-1.133742371E0,-5.378315735E-1,1.467266563E0
1.041952504E1,-6.743476868E-1,-1.397793274E0,-4.644841003E-1,1.619974172E0
1.042959404E1,-6.119274902E-1,-1.589394836E0,-2.459385681E-1,1.720789638E0
1.043966304E1,-4.803511047E-1,-1.834285583E0,7.873626709E-2,1.897772427E0
1.044973104E1,-2.906954956E-1,-2.093995514E0,5.141807556E-1,2.175707456E0
1.045980004E1,-1.203497314E-1,-2.315684509E0,8.274792480E-1,2.462031826E0
1.046986904E1,-1.422042847E-2,-2.460732880E0,9.077124023E-1,2.622851565E0
1.047993804E1,3.158432007E-2,-2.576142883E0,6.126759338E-1,2.648184571E0
1.049000604E1,1.302291870E-2,-2.595153351E0,8.113128662E-2,2.596453889E0
1.050007504E1,2.395019531E-2,-2.487676849E0,-4.149371338E-1,2.522158311E0
1.051014404E1,8.322692871E-2,-2.331401825E0,-6.973997498E-1,2.434897863E0
1.052021204E1,1.011895752E-1,-2.200573883E0,-7.997868347E-1,2.343592056E0
1.053028104E1,1.077758789E-1,-2.083966370E0,-7.649093628E-1,2.222525096E0
1.054035004E1,2.179467773E-1,-2.018402710E0,-6.768923950E-1,2.140007853E0
1.055041904E1,5.289999390E-1,-2.004331970E0,-4.077520752E-1,2.112687705E0
1.056048704E1,7.876620483E-1,-1.979184265E0,-7.529342651E-2,2.131490314E0
1.057055604E1,7.800279236E-1,-2.102527771E0,1.062789917E-2,2.242583230E0
1.058062504E1,6.801855469E-1,-2.426154785E0,-2.254312134E-1,2.529762568E0
1.059069304E1,7.809260559E-1,-2.845283203E0,-5.195695496E-1,2.995902957E0
1.060076204E1,1.014290771E0,-3.309018860E0,-9.759704590E-1,3.595957441E0
1.061083104E1,1.188378754E0,-3.990401917E0,-1.740430756E0,4.512720990E0
1.062089904E1,1.154549103E0,-4.800367584E0,-2.520009613E0,5.543190509E0
1.063096804E1,7.547305298E-1,-5.638325043E0,-3.185974731E0,6.520027795E0
1.064103704E1,4.528083801E-1,-6.661148071E0,-4.003424835E0,7.784814671E0
1.065110504E1,2.782713318E-1,-7.802524567E0,-4.929698639E0,9.233566657E0
1.066117404E1,-3.767665100E-1,-9.300758972E0,-5.249882812E0,1.068678343E1
1.067124304E1,-7.475454712E-1,-1.168290527E1,-4.611011353E0,1.258215107E1
1.068131204E1,-1.041983185E0,-1.489851837E1,-3.057990875E0,1.524476588E1
1.069138004E1,-1.393601990E0,-1.805919571E1,-1.487007751E0,1.817382371E1
1.070144904E1,-1.595681763E0,-2.025303360E1,-9.479786682E-1,2.033790141E1
1.071151804E1,-1.856140137E0,-2.129651367E1,-9.280700684E-1,2.139738453E1
1.072158604E1,-1.983225861E0,-2.152972870E1,-4.339476013E-1,2.162523325E1
1.073165504E1,-1.208287354E0,-2.106898682E1,1.209484863E-1,2.110395205E1
1.074172404E1,-9.699829102E-2,-1.972523117E1,8.181985474E-1,1.974243152E1
1.075179204E1,5.031037903E-1,-1.815694244E1,1.261576538E0,1.820767002E1
1.076186104E1,4.984634399E-1,-1.604214020E1,1.177451477E0,1.609301463E1
1.077193004E1,-4.504133606E-1,-1.422327255E1,8.586145020E-1,1.425628188E1
1.078199904E1,-1.706152039E0,-1.296109726E1,6.206094360E-1,1.308763359E1
1.079206704E1,-2.489024048E0,-1.207733505E1,7.149133301E-1,1.235185669E1
1.080213604E1,-2.918780365E0,-1.193228668E1,8.506809998E-1,1.231350488E1
1.081220504E1,-3.034040680E0,-1.228001358E1,6.204597473E-1,1.266448209E1
1.082227304E1,-2.905458069E0,-1.260199402E1,4.379891968E-1,1.294000674E1
1.083234204E1,-2.685415649E0,-1.293849426E1,2.360591125E-1,1.321634650E1
1.084241104E1,-2.187101898E0,-1.310075684E1,2.441423035E-1,1.328430841E1
1.085248004E1,-1.381776581E0,-1.328337708E1,9.274713135E-1,1.338721838E1
1.086254804E1,-5.309458923E-1,-1.362182327E1,1.618584137E0,1.372792000E1
1.087261704E1,2.101629639E-1,-1.389036484E1,2.116897888E0,1.405231869E1
1.088268604E1,6.944059753E-1,-1.399095566E1,2.442620544E0,1.421954412E1
1.089275404E1,6.879693604E-1,-1.423449921E1,2.576891327E0,1.448221801E1
1.090282304E1,2.598596191E-1,-1.487426880E1,2.571053467E0,1.509707638E1
1.091289204E1,-5.328918457E-2,-1.526959671E1,2.548749847E0,1.548094148E1
1.092296004E1,-4.435276794E-1,-1.570668777E1,2.684816895E0,1.594067123E1
1.093302904E1,-9.111552429E-1,-1.617611160E1,2.196831665E0,1.635001100E1
1.094309804E1,-1.374890900E0,-1.639181305E1,9.092092896E-1,1.647448092E1
1.095316704E1,-1.254241791E0,-1.671274567E1,2.151026917E-1,1.676112345E1
1.096323504E1,-6.273454285E-1,-1.729383728E1,4.854405212E-1,1.731201960E1
1.097330404E1,-1.645079041E-1,-1.770922348E1,9.039701843E-1,1.773304320E1
1.098337271E1,-1.755848694E-1,-1.784349426E1,1.577419739E0,1.791394347E1
1.099344071E1,-1.947450256E-1,-1.775353134E1,2.308499451E0,1.790404900E1
1.100350971E1,-3.486250305E-1,-1.770218811E1,2.888992310E0,1.793976811E1
1.101357871E1,-7.613168335E-1,-1.801683380E1,3.624263306E0,1.839350940E1
1.102364671E1,-9.568103027E-1,-1.854119339E1,4.154610443E0,1.902503945E1
1.103371571E1,-1.092877350E0,-1.944456482E1,4.388274536E0,1.996352763E1
1.104378471E1,-7.761360168E-1,-2.040766205E1,4.313430176E0,2.087296666E1
1.105385371E1,-5.637277222E-1,-2.111688721E1,4.132306824E0,2.152479208E1
1.106392171E1,-6.497987366E-1,-2.143677200E1,4.097129974E0,2.183446602E1
1.107399071E1,-8.625064087E-1,-2.171294769E1,3.977977753E0,2.209118199E1
1.108405971E1,-1.059047699E0,-2.199585938E1,3.570525055E0,2.230892335E1
1.109412771E1,-1.200653229E0,-2.198133957E1,3.076552277E0,2.222804605E1
1.110419671E1,-1.064586182E0,-2.170995392E1,2.636766815E0,2.189538723E1
1.111426571E1,-6.845265198E-1,-2.098845428E1,2.193089447E0,2.111382086E1
1.112433471E1,-4.180805969E-1,-1.997566040E1,1.838177490E0,2.006441368E1
1.113440271E1,-2.619552612E-1,-1.861034958E1,1.464704132E0,1.866973728E1
1.114447171E1,8.382568359E-3,-1.730162109E1,1.081351318E0,1.733538241E1
1.115454071E1,2.227368164E-1,-1.596460144E1,2.029779053E-1,1.596744535E1
1.116460871E1,1.886077881E-1,-1.499656448E1,-6.884184265E-1,1.501354186E1
1.117467771E1,3.457809448E-2,-1.430530197E1,-1.451232147E0,1.437876681E1
1.118474671E1,-1.579216003E-1,-1.378902557E1,-2.024539948E0,1.393775188E1
1.119481471E1,-2.472857666E-1,-1.370639740E1,-2.200424194E0,1.388410410E1
1.120488371E1,-2.659968567E-1,-1.382090927E1,-2.224823456E0,1.400136161E1
1.121495271E1,-1.896556091E-1,-1.360745316E1,-2.444416809E0,1.382656588E1
1.122502071E1,-1.273851013E-1,-1.253613098E1,-3.041974182E0,1.290055867E1
1.123508971E1,-2.796185303E-1,-1.093790451E1,-3.671714630E0,1.154111909E1
1.124515871E1,-7.485932922E-1,-9.268126831E0,-4.010609894E0,1.012637934E1
1.125522771E1,-1.128802643E0,-7.690407715E0,-3.845203857E0,8.671917835E0
1.126529571E1,-1.368005219E0,-6.155200195E0,-3.315305786E0,7.123845884E0
1.127536471E1,-1.467099152E0,-4.954397278E0,-2.440225525E0,5.714291988E0
1.128543371E1,-1.252295837E0,-3.868704987E0,-1.540596313E0,4.348397422E0
1.129550171E1,-9.621990967E-1,-2.709814911E0,-1.013242950E0,3.048866220E0
1.130557071E1,-5.872288513E-1,-1.529968414E0,-7.517367554E-1,1.802983423E0
1.131563971E1,-1.648072815E-1,-5.402265930E-1,-6.131250000E-1,8.336237026E-1
1.132570871E1,1.754351807E-1,1.963916016E-1,-4.279600525E-1,5.024907664E-1
1.133577671E1,3.812571716E-1,8.867559814E-1,-2.621049500E-1,1.000196084E0
1.134584571E1,3.855981445E-1,1.595981140E0,-3.832031250E-1,1.686026798E0
1.135591471E1,2.477348328E-1,2.189646606E0,-7.701484680E-1,2.334320773E0
1.136598271E1,1.047821045E-1,2.607128448E0,-1.298250275E0,2.914369882E0
1.137605171E1,7.963439941E-2,2.906954956E0,-1.714534607E0,3.375849178E0
1.138612071E1,1.899549866E-1,3.129392395E0,-1.707499237E0,3.569976653E0
1.139618871E1,3.860472107E-1,3.277434540E0,-1.153800659E0,3.495978486E0
1.140625771E1,6.334826660E-1,3.340752869E0,-2.165995789E-1,3.407175574E0
1.141632671E1,8.879534912E-1,3.285966797E0,8.578660583E-1,3.510266851E0
1.142639571E1,1.115330658E0,3.084635468E0,1.878443756E0,3.779879547E0
1.143646371E1,1.254092102E0,2.840193787E0,2.596051483E0,4.047089207E0
1.144653271E1,1.283431091E0,2.512674866E0,2.994672546E0,4.114461570E0
1.145660171E1,1.282383270E0,2.078876953E0,3.144810333E0,3.981967889E0
1.146666971E1,1.265468445E0,1.603166199E0,3.083437958E0,3.698532396E0
1.147673871E1,1.220561829E0,1.171763306E0,2.920426941E0,3.375158358E0
1.148680771E1,1.042731628E0,8.352630615E-1,2.708168335E0,3.019789622E0
1.149687671E1,8.487350464E-1,5.233117676E-1,2.360441437E0,2.562399298E0
1.150694471E1,7.090754700E-1,2.288740540E-1,1.852397919E0,1.996634519E0
1.151701371E1,5.590873718E-1,9.280700684E-3,1.315015411E0,1.428961285E0
1.152708271E1,3.098556519E-1,-1.432521057E-1,9.069639587E-1,9.690796217E-1
1.153715071E1,4.251159668E-2,-3.156935120E-1,7.605683899E-1,8.245810482E-1
1.154721971E1,-1.276844788E-1,-5.384303284E-1,7.981402588E-1,9.712046218E-1
1.155728871E1,-1.842668152E-1,-8.027806091E-1,9.009764099E-1,1.220724972E0
1.156735671E1,-2.101629639E-1,-1.077609100E0,1.027762756E0,1.503896980E0
1.157742571E1,-2.415975952E-1,-1.435514832E0,1.175954590E0,1.871347490E0
1.158749471E1,-2.228865051E-1,-1.829046478E0,1.199306030E0,2.198505030E0
1.159756371E1,-1.023870850E-1,-2.141746216E0,1.116977234E0,2.417684452E0
1.160763171E1,1.212478638E-2,-2.458188171E0,1.147813110E0,2.712989317E0
1.161770071E1,9.205856323E-2,-2.868035889E0,1.309925995E0,3.154363763E0
1.162776971E1,7.394622803E-2,-3.371888123E0,1.355431366E0,3.634871627E0
1.163783771E1,-9.624984741E-2,-4.141886902E0,1.324745178E0,4.349648368E0
1.164790671E1,-2.686912537E-1,-5.331463165E0,1.057999878E0,5.442063783E0
1.165797571E1,-3.203338623E-1,-6.924749908E0,3.769161987E-1,6.942394464E0
1.166804371E1,-2.204914856E-1,-8.749904480E0,-4.855902100E-1,8.766141840E0
1.167811271E1,1.360670471E-1,-1.036519547E1,-1.296753387E0,1.044688282E1
1.168818171E1,5.225633240E-1,-1.146510818E1,-1.705553284E0,1.160304659E1
1.169825071E1,7.209008789E-1,-1.224274109E1,-1.827399902E0,1.239934667E1
1.170831871E1,7.158114624E-1,-1.314042435E1,-2.271526337E0,1.335451122E1
1.171838771E1,4.764591980E-1,-1.429242874E1,-2.101929016E0,1.445401807E1
1.172845671E1,4.692741394E-1,-1.665361862E1,5.596861267E-1,1.666962747E1
1.173852471E1,6.947053528E-1,-2.022040146E1,4.446054382E0,2.071508268E1
1.174859371E1,7.595205688E-1,-2.226919098E1,5.263654175E0,2.289540988E1
1.175866271E1,6.372248840E-1,-2.234029312E1,3.739822998E0,2.266011978E1
1.176873071E1,1.839674377E-1,-2.199047058E1,2.444566498E0,2.212669306E1
1.177879971E1,2.662962341E-1,-2.151820267E1,1.281634827E0,2.155798106E1
1.178886871E1,9.695338440E-1,-2.033596115E1,3.376977539E-1,2.036186022E1
1.179893771E1,1.406325531E0,-1.855301880E1,8.592132568E-1,1.862607059E1
1.180900571E1,1.714085541E0,-1.700209396E1,1.885928192E0,1.719203343E1
1.181907471E1,5.513035583E-1,-1.577120361E1,2.750081177E0,1.601866866E1
1.182914371E1,-9.476792908E-1,-1.453103256E1,2.992127838E0,1.486613038E1
1.183921171E1,-2.075284424E0,-1.341016342E1,2.423460388E0,1.378450031E1
1.184928071E1,-3.014581146E0,-1.274823990E1,1.528920593E0,1.318874210E1
1.185934971E1,-3.327729950E0,-1.215188004E1,5.710624695E-1,1.261221976E1
1.186941771E1,-3.224594421E0,-1.178199921E1,-2.020797729E-2,1.221531509E1
1.187948671E1,-2.847079468E0,-1.150866760E1,-3.885919189E-1,1.186196844E1
1.188955571E1,-2.439477081E0,-1.136571487E1,-7.490423584E-1,1.164867321E1
1.189962471E1,-1.967658234E0,-1.126796814E1,-9.108558655E-1,1.147468707E1
1.190969271E1,-1.559457092E0,-1.097936829E1,-1.047371979E0,1.113891478E1
1.191976171E1,-1.315464478E0,-1.064481400E1,-1.074465637E0,1.077947068E1
1.192983071E1,-1.306932220E0,-1.031490005E1,-6.641688538E-1,1.041855821E1
1.193989871E1,-1.258133698E0,-9.877060547E0,-1.914518738E-1,9.958708715E0
1.194996771E1,-1.343306580E0,-9.282496948E0,3.098556519E-2,9.379242094E0
1.196003671E1,-1.356179810E0,-8.546477509E0,1.383123779E-1,8.654515110E0
1.197010571E1,-1.335822144E0,-7.920778656E0,1.630110168E-1,8.034284530E0
1.198017371E1,-1.274898834E0,-7.455097046E0,2.381547546E-1,7.567070549E0
1.199024346E1,-1.164877625E0,-7.080575867E0,3.948788452E-1,7.186614209E0
1.200031246E1,-9.642947388E-1,-6.901847534E0,5.852828979E-1,6.993419750E0
1.201038046E1,-7.515870667E-1,-6.838978271E0,8.165519714E-1,6.928438788E0
1.202044946E1,-4.945715332E-1,-6.987170105E0,8.619076538E-1,7.057480562E0
1.203051846E1,-2.818638611E-1,-7.353608093E0,6.713539124E-1,7.389568005E0
1.204058646E1,-2.859054565E-1,-7.680827637E0,3.763174438E-1,7.695353789E0
1.205065546E1,-5.123844910E-1,-8.134534149E0,1.480421448E-1,8.151999765E0
1.206072446E1,-8.259823608E-1,-8.921896820E0,-6.855743408E-2,8.960311928E0
1.207079346E1,-9.792636108E-1,-9.725725250E0,-1.877096558E-1,9.776703114E0
1.208086146E1,-1.032552795E0,-1.080498093E1,-6.825805664E-2,1.085442017E1
1.209093046E1,-1.131796417E0,-1.230486191E1,3.067121887E-1,1.236060929E1
1.210099946E1,-1.400637360E0,-1.392419449E1,7.655081177E-1,1.401538369E1
1.211106746E1,-1.819017334E0,-1.578841782E1,1.289568329E0,1.594509165E1
1.212113646E1,-2.360142059E0,-1.775892014E1,1.607656860E0,1.798705300E1
1.213120546E1,-2.917582855E0,-1.966116440E1,1.688937836E0,1.994808728E1
1.214127346E1,-3.209176483E0,-2.178090637E1,1.862427063E0,2.209469010E1
1.215134246E1,-3.069666595E0,-2.382191208E1,2.223625946E0,2.412158495E1
1.216141146E1,-2.824476471E0,-2.523123138E1,2.496658173E0,2.551129175E1
1.217148046E1,-2.631228333E0,-2.595512604E1,2.816243591E0,2.623972481E1
1.218154846E1,-2.471061401E0,-2.611798737E1,3.342549133E0,2.644670193E1
1.219161746E1,-2.557431793E0,-2.586845627E1,4.058360596E0,2.630946175E1
1.220168646E1,-2.871478729E0,-2.452006027E1,3.964206390E0,2.500387326E1
1.221175446E1,-2.885549469E0,-2.234193970E1,3.134930878E0,2.274459181E1
1.222182346E1,-2.763104095E0,-2.015708313E1,2.785108337E0,2.053532500E1
1.223189246E1,-2.561473389E0,-1.822280548E1,2.497107239E0,1.857060392E1
1.224196146E1,-2.463277588E0,-1.680899551E1,2.163151703E0,1.712569099E1
1.225202946E1,-2.323917389E0,-1.578018494E1,1.691781921E0,1.603985520E1
1.226209846E1,-1.793420563E0,-1.513547562E1,9.731263733E-1,1.527239190E1
1.227216746E1,-9.671388245E-1,-1.463895813E1,2.218386841E-1,1.467254801E1
1.228223546E1,-5.430706787E-1,-1.412747177E1,-2.326162720E-1,1.413981947E1
1.229230446E1,-6.997947693E-1,-1.405951309E1,-7.195536804E-1,1.409529633E1
1.230237346E1,-1.160536652E0,-1.425785065E1,-1.271455994E0,1.436139794E1
1.231244146E1,-1.484313354E0,-1.381342484E1,-1.679357758E0,1.399407497E1
1.232251046E1,-1.362317047E0,-1.266067200E1,-1.666783905E0,1.284237874E1
1.233257946E1,-1.059047699E0,-1.200383789E1,-1.229842529E0,1.211305984E1
1.234264846E1,-9.677375793E-1,-1.191222839E1,-5.804928589E-1,1.196556197E1
1.235271646E1,-1.266516266E0,-1.126961472E1,-2.059716797E-1,1.134242935E1
1.236278546E1,-1.187330933E0,-1.011641281E1,-1.483415222E-1,1.018693124E1
1.237285446E1,-7.267387390E-1,-8.649912415E0,-7.379653931E-2,8.680701579E0
1.238292246E1,-1.293310547E-1,-7.194339294E0,4.686753845E-1,7.210748992E0
1.239299146E1,8.387059021E-1,-6.142626343E0,1.285676422E0,6.331528239E0
1.240306046E1,1.753753052E0,-5.630541229E0,1.974244537E0,6.219026113E0
1.241312846E1,2.211650848E0,-5.622008972E0,2.608924713E0,6.580643777E0
1.242319746E1,2.197430420E0,-5.783373413E0,3.070564728E0,6.906842711E0
1.243326646E1,2.005080414E0,-5.992039490E0,3.098556519E0,7.037466676E0
1.244333546E1,1.491049347E0,-5.913602600E0,3.000211029E0,6.796704355E0
1.245340346E1,3.073109436E-1,-5.495072937E0,2.730771332E0,6.143889539E0
1.246347246E1,-1.086141357E0,-5.030439148E0,2.562970276E0,5.749246708E0
1.247354146E1,-1.698218536E0,-4.642745361E0,2.422562256E0,5.505255541E0
1.248360946E1,-6.245013428E-1,-4.358785858E0,1.692530365E0,4.717380112E0
1.249367846E1,7.987390137E-1,-3.567980347E0,1.145118713E-1,3.658084298E0
1.250374746E1,1.419049072E0,-2.439926147E0,-1.668131104E0,3.278658453E0
1.251381546E1,1.639989624E0,-2.033521271E0,-2.454146576E0,3.584356308E0
1.252388446E1,1.181343384E0,-2.148931274E0,-2.515818329E0,3.513234930E0
1.253395346E1,6.604266357E-1,-2.139201508E0,-2.477048950E0,3.338879742E0
1.254402246E1,1.519340515E-1,-1.891616364E0,-2.351011047E0,3.021348932E0
1.255409046E1,-6.271957397E-2,-2.039957886E0,-1.836381226E0,2.745479544E0
1.256415946E1,5.418731689E-2,-2.565664673E0,-9.455836487E-1,2.734904005E0
1.257422846E1,2.445913696E-1,-2.913690948E0,-2.101629639E-1,2.931482279E0
1.258429646E1,5.186714172E-1,-2.841690674E0,-3.951782227E-2,2.888907680E0
1.259436546E1,6.206094360E-1,-2.639311523E0,-1.845661926E-1,2.717569883E0
1.260443446E1,4.378395081E-1,-2.345023499E0,-3.861968994E-1,2.416606441E0
1.261450246E1,1.824705505E-1,-2.019450531E0,-3.829037476E-1,2.063514291E0
1.262457146E1,5.239105225E-2,-1.852547607E0,-3.225791931E-1,1.881152518E0
1.263464046E1,-1.062789917E-1,-1.705852661E0,-2.466870117E-1,1.726870872E0
1.264470946E1,-2.050735474E-1,-1.484313354E0,-2.112107849E-1,1.513225459E0
1.265477746E1,-2.255809021E-1,-1.383572845E0,-2.219883728E-1,1.419309480E0
1.266484646E1,-3.031196594E-1,-1.316362610E0,-3.088078308E-1,1.385660249E0
1.267491546E1,-2.115101624E-1,-1.229094086E0,-1.914518738E-1,1.261769646E0
1.268498346E1,-2.409988403E-2,-1.130149841E0,2.844085693E-3,1.130410349E0
1.269505246E1,3.921844482E-2,-1.097667389E0,-8.083190918E-3,1.098397524E0
1.270512146E1,7.529342651E-2,-1.014889526E0,-1.089733887E-1,1.023496483E0
1.271519046E1,2.255809021E-1,-9.632469177E-1,-1.523831177E-1,1.000975515E0
1.272525846E1,3.998185730E-1,-1.018781433E0,-8.801696777E-2,1.097960603E0
1.273532746E1,5.849835205E-1,-1.201251984E0,1.766326904E-2,1.336235024E0
1.274539646E1,7.053332520E-1,-1.474733276E0,1.749861145E-1,1.644066110E0
1.275546446E1,7.388635254E-1,-1.751058655E0,3.829037476E-1,1.938747276E0
1.276553346E1,6.096821594E-1,-2.125280457E0,7.658074951E-1,2.339869756E0
1.277560246E1,3.659889221E-1,-2.800077209E0,1.282682648E0,3.101556874E0
1.278567046E1,-5.748046875E-2,-3.917653198E0,1.527274017E0,4.205220150E0
1.279573946E1,-5.140310669E-1,-5.260810089E0,1.654359741E0,5.538705344E0
1.280580846E1,-1.029708710E0,-6.521937561E0,1.696122894E0,6.817096336E0
1.281587646E1,-1.429826660E0,-7.619754639E0,1.385369110E0,7.875551575E0
1.282594546E1,-1.660047913E0,-8.872200165E0,7.723937988E-1,9.059154873E0
1.283601446E1,-1.761087799E0,-1.024544449E1,3.832031250E-2,1.039576988E1
1.284608346E1,-1.894161072E0,-1.175774963E1,-4.745132446E-1,1.191879547E1
1.285615146E1,-1.755249939E0,-1.324909836E1,-6.212081909E-1,1.337929031E1
1.286622046E1,-1.544937286E0,-1.500225266E1,5.891748047E-1,1.509309587E1
1.287628946E1,-1.218166809E0,-1.749232452E1,3.185825043E0,1.782175156E1
1.288635746E1,-8.087681580E-1,-1.988869125E1,5.701493683E0,2.070558321E1
1.289642646E1,-5.303471375E-1,-2.190365112E1,7.074288940E0,2.302383036E1
1.290649546E1,-5.165757751E-1,-2.391696442E1,7.424410858E0,2.504815191E1
1.291656446E1,-5.084925842E-1,-2.557087509E1,6.738387451E0,2.644870664E1
1.292663246E1,-9.545649719E-1,-2.645059570E1,4.702920227E0,2.688238579E1
1.293670146E1,-1.520538025E0,-2.620809998E1,2.714305573E0,2.639211994E1
1.294677046E1,-1.647923126E0,-2.535277863E1,2.564766541E0,2.553540801E1
1.295683846E1,-1.153800659E0,-2.446602264E1,3.012784882E0,2.467781175E1
1.296690746E1,-7.062313843E-1,-2.309861618E1,2.942730560E0,2.329601887E1
1.297697646E1,-5.864804077E-1,-2.119188126E1,2.504591675E0,2.134743005E1
1.298704504E1,-3.408412170E-1,-1.893726974E1,1.814077606E0,1.902701331E1
1.299711304E1,-6.735992432E-3,-1.668385574E1,9.605525208E-1,1.671148554E1
1.300718204E1,3.480262756E-1,-1.477218109E1,-4.730163574E-2,1.477635591E1
1.301725104E1,6.635700989E-1,-1.310404999E1,-9.883946228E-1,1.315801563E1
1.302731904E1,8.854087830E-1,-1.178155014E1,-1.517244873E0,1.191179686E1
1.303738804E1,6.665638733E-1,-1.063762894E1,-1.843416595E0,1.081672971E1
1.304745704E1,5.454656982E-1,-9.364825745E0,-2.211950226E0,9.637957141E0
1.305752504E1,3.324586487E-1,-8.288563843E0,-2.307751007E0,8.610257490E0
1.306759404E1,1.681004333E-1,-7.359296265E0,-2.391127625E0,7.739831431E0
1.307766304E1,5.358856201E-2,-6.415359192E0,-2.442919922E0,6.864951787E0
1.308773104E1,-2.664459229E-1,-5.633834381E0,-2.469714203E0,6.157156122E0
1.309780004E1,-6.697073364E-1,-4.972509613E0,-2.529889069E0,5.619136808E0
1.310786904E1,-9.379495239E-1,-4.390669556E0,-2.415377197E0,5.098212967E0
1.311793804E1,-9.153465271E-1,-3.796704712E0,-2.087708588E0,4.428470738E0
1.312800604E1,-7.747888184E-1,-3.319497070E0,-1.697470093E0,3.807986768E0
1.313807504E1,-5.780978394E-1,-3.051105194E0,-1.420845337E0,3.415002414E0
1.314814404E1,-3.528163147E-1,-2.956052856E0,-1.241368561E0,3.225480390E0
1.315821204E1,-2.492317200E-1,-2.847827911E0,-1.122066650E0,3.071037908E0
1.316828104E1,-2.347119141E-1,-2.714754639E0,-1.037642212E0,2.915764701E0
1.317835004E1,-1.023870850E-1,-2.665357361E0,-1.031954041E0,2.859989881E0
1.318841904E1,1.062789917E-2,-2.665357361E0,-1.214723969E0,2.929129074E0
1.319848704E1,2.844085693E-2,-2.766397247E0,-1.223705292E0,3.025097892E0
1.320855604E1,2.404000854E-1,-2.927612000E0,-1.239721985E0,3.188356131E0
1.321862504E1,3.397933960E-1,-3.288661194E0,-1.167721710E0,3.506326567E0
1.322869304E1,2.014810181E-1,-3.721710663E0,-8.078700256E-1,3.813709328E0
1.323876204E1,6.286926270E-3,-4.318369904E0,-2.210902405E-1,4.324030417E0
1.324883104E1,-1.619631958E-1,-5.026247864E0,5.426216125E-1,5.058046844E0
1.325889904E1,-1.318757629E-1,-5.835614777E0,1.178948364E0,5.954973575E0
1.326896804E1,1.701960754E-1,-6.538852386E0,1.529070282E0,6.717411195E0
1.327903704E1,3.324586487E-1,-6.954388275E0,1.554217987E0,7.133697399E0
1.328910604E1,3.252735901E-1,-7.238198090E0,1.477277985E0,7.394569949E0
1.329917404E1,2.007325745E-1,-7.392227783E0,1.508413239E0,7.547227018E0
1.330924304E1,1.510359192E-1,-7.395670624E0,1.794468384E0,7.611758838E0
1.331931204E1,1.255888367E-1,-7.264243927E0,2.178419952E0,7.584887994E0
1.332938004E1,3.580554199E-1,-7.043902130E0,2.419418793E0,7.456429990E0
1.333944904E1,6.975494385E-1,-6.729855194E0,2.563569031E0,7.235289374E0
1.334951804E1,1.014889526E0,-6.292464752E0,2.603835297E0,6.885134106E0
1.335958704E1,7.961943054E-1,-5.970484314E0,2.375859375E0,6.474976146E0
1.336965504E1,1.350192261E-1,-5.899681549E0,1.822310486E0,6.176187180E0
1.337972404E1,-4.192781067E-1,-5.714815979E0,9.532177734E-1,5.808918998E0
1.338979304E1,-4.357438660E-1,-5.729485474E0,4.721182251E-1,5.765394360E0
1.339986104E1,-6.348298645E-1,-6.435567169E0,8.548722839E-1,6.523062193E0
1.340993004E1,-8.574169922E-1,-7.626191254E0,1.646575928E0,7.848896051E0
1.341999904E1,-6.942562866E-1,-8.679700470E0,2.271526337E0,8.998834588E0
1.343006704E1,-6.577322388E-1,-9.430539093E0,2.722239075E0,9.837594465E0
1.344013604E1,-6.304888916E-1,-1.026879593E1,3.167413330E0,1.076467339E1
1.345020504E1,-2.312690735E-1,-1.149220184E1,3.874842224E0,1.213006970E1
1.346027404E1,1.335223389E-1,-1.270842270E1,4.352648621E0,1.343381501E1
1.347034204E1,1.574725342E-1,-1.335642517E1,4.241429901E0,1.401458592E1
1.348041104E1,-5.688171387E-3,-1.356209747E1,3.942651215E0,1.412356254E1
1.349048004E1,-2.460882568E-1,-1.359697495E1,3.470682678E0,1.403509620E1
1.350054804E1,-3.288661194E-1,-1.343111984E1,2.932402039E0,1.375144047E1
1.351061704E1,-1.505868530E-1,-1.312201263E1,2.644999695E0,1.338678137E1
1.352068604E1,-3.308120728E-2,-1.281140854E1,2.710862732E0,1.309511588E1
1.353075404E1,-1.875599670E-1,-1.266680923E1,2.804567871E0,1.297493105E1
1.354082304E1,-4.067042542E-1,-1.273416916E1,2.881507874E0,1.306244847E1
1.355089204E1,-4.828958130E-1,-1.304746765E1,2.978057098E0,1.339172971E1
1.356096104E1,-4.969665527E-1,-1.339429642E1,3.001109161E0,1.373538527E1
1.357102904E1,-4.079017639E-1,-1.372690475E1,2.944676514E0,1.404512078E1
1.358109804E1,-4.724176025E-1,-1.407433228E1,2.732118530E0,1.434484155E1
1.359116704E1,-3.959266663E-1,-1.440619217E1,2.550995178E0,1.463566559E1
1.360123504E1,-2.610571289E-1,-1.480032257E1,2.351160736E0,1.498818387E1
1.361130404E1,-1.597178650E-1,-1.532722687E1,2.211950226E0,1.548683690E1
1.362137304E1,-1.257385254E-2,-1.575892914E1,2.342778168E0,1.593212526E1
1.363144104E1,-7.364685059E-2,-1.618120102E1,2.844085693E0,1.642941002E1
1.364151004E1,-3.625460815E-1,-1.695060104E1,3.485801239E0,1.730910528E1
1.365157904E1,-7.397616577E-1,-1.804407715E1,4.040996704E0,1.850582670E1
1.366164804E1,-1.228195953E0,-1.894116165E1,4.297862549E0,1.946144117E1
1.367171604E1,-1.809287567E0,-1.948932175E1,4.370162201E0,2.005506174E1
1.368178504E1,-2.304308167E0,-1.975816269E1,4.461472321E0,2.038625920E1
1.369185404E1,-2.554288330E0,-1.964559677E1,4.547693024E0,2.032622378E1
1.370192204E1,-2.803070984E0,-1.928814011E1,4.648583221E0,2.003743700E1
1.371199104E1,-3.049757996E0,-1.884745651E1,4.715194702E0,1.966623253E1
1.372206004E1,-2.882705383E0,-1.843431564E1,4.619244232E0,1.922163887E1
1.373212904E1,-2.725382538E0,-1.779050446E1,4.191433868E0,1.847966116E1
1.374219704E1,-2.818189545E0,-1.705059311E1,3.967948608E0,1.773159705E1
1.375226604E1,-2.856509857E0,-1.659748535E1,4.103416901E0,1.733419161E1
1.376233504E1,-2.489473114E0,-1.651800064E1,4.146976318E0,1.721160173E1
1.377240304E1,-1.962119751E0,-1.661110703E1,4.024980011E0,1.720404762E1
1.378247204E1,-1.655557251E0,-1.673145676E1,4.085304565E0,1.730237638E1
1.379254104E1,-1.402283936E0,-1.691048447E1,4.062851257E0,1.744814161E1
1.380260904E1,-1.172511749E0,-1.727258148E1,3.691772919E0,1.770158304E1
1.381267804E1,-1.099613342E0,-1.772269547E1,3.207679596E0,1.804417614E1
1.382274704E1,-1.357676697E0,-1.820394470E1,2.622995453E0,1.844198997E1
1.383281604E1,-1.702110443E0,-1.849643646E1,2.288291473E0,1.871501054E1
1.384288404E1,-1.971101074E0,-1.858879440E1,2.391576691E0,1.884537492E1
1.385295304E1,-2.096540222E0,-1.829690140E1,2.804717560E0,1.862896997E1
1.386302204E1,-2.090402985E0,-1.786205566E1,3.377725983E0,1.829841113E1
1.387309004E1,-1.920655975E0,-1.746373398E1,3.987557831E0,1.801586915E1
1.388315904E1,-1.407523041E0,-1.676019699E1,4.115691376E0,1.731543357E1
1.389322804E1,-7.060816956E-1,-1.581521210E1,3.712579651E0,1.626046533E1
1.390329604E1,-6.586303711E-2,-1.503039413E1,3.317401428E0,1.539227852E1
1.391336504E1,3.724255371E-1,-1.462578552E1,3.200195160E0,1.497643322E1
1.392343404E1,8.918453979E-1,-1.446531921E1,3.324736176E0,1.486925414E1
1.393350304E1,1.675016785E0,-1.438299042E1,3.300187225E0,1.485150936E1
1.394357104E1,2.490520935E0,-1.421069870E1,2.668500824E0,1.467199880E1
1.395364004E1,2.550695801E0,-1.346195572E1,1.742825775E0,1.381186962E1
1.396370904E1,1.972897339E0,-1.240709930E1,1.218915253E0,1.262197257E1
1.397377704E1,9.427395630E-1,-1.123952728E1,8.678952026E-1,1.131233723E1
1.398384604E1,1.502874756E-1,-1.016446289E1,9.342073059E-1,1.020841004E1
1.399391504E1,-5.391787720E-1,-9.250912628E0,1.716181183E0,9.424191003E0
1.400398404E1,-1.329834595E0,-8.177644501E0,2.539319458E0,8.665475921E0
1.401405204E1,-2.035766602E0,-6.662495270E0,2.635718994E0,7.448503440E0
1.402412104E1,-2.237846375E0,-4.879103851E0,2.211201782E0,5.805430571E0
1.403419004E1,-1.841021576E0,-3.161725159E0,1.570084991E0,3.981335618E0
1.404425804E1,-9.958790588E-1,-1.542093201E0,3.854484558E-1,1.875739068E0
1.405432704E1,-1.649569702E-1,-3.481759644E-1,-1.159488831E0,1.221823086E0
1.406439604E1,1.944456482E-1,2.484832764E-1,-2.887794800E0,2.904980526E0
1.407446404E1,3.944297791E-1,5.619314575E-1,-4.390669556E0,4.444020810E0
1.408453304E1,8.204438782E-1,1.022673340E0,-5.150040436E0,5.314311377E0
1.409460204E1,1.388063507E0,1.698368225E0,-5.083279266E0,5.536325770E0
1.410467104E1,1.867217102E0,2.438429260E0,-4.348906403E0,5.324042060E0
1.411473904E1,2.204914856E0,3.085533600E0,-3.334166565E0,5.049636997E0
1.412480804E1,2.384990387E0,3.425027618E0,-2.325863342E0,4.777931940E0
1.413487704E1,2.366279297E0,3.490591278E0,-1.275198212E0,4.405636805E0
1.414494504E1,2.042951660E0,3.186274109E0,-1.663041687E-1,3.788621287E0
1.415501404E1,1.427880707E0,2.680176544E0,9.104067993E-1,3.170335970E0
1.416508304E1,7.921527100E-1,2.330803070E0,1.706601105E0,2.995435894E0
1.417515104E1,4.486170959E-1,2.123035126E0,1.838177490E0,2.843841052E0
1.418522004E1,4.025129700E-1,1.958527222E0,1.371747437E0,2.424775577E0
1.419528904E1,4.638853455E-1,1.807341614E0,8.002359009E-1,2.030283433E0
1.420535804E1,5.381309509E-1,1.505269775E0,4.438270569E-1,1.659037213E0
1.421542604E1,5.780978394E-1,1.029858398E0,4.058061218E-1,1.248793034E0
1.422549504E1,4.745132446E-1,5.230123901E-1,6.083349609E-1,9.320816511E-1
1.423556404E1,4.445755005E-1,1.261875916E-1,7.691006470E-1,8.972661194E-1
1.424563204E1,3.855981445E-1,-1.932481384E-1,7.409591675E-1,8.573513049E-1
1.425570104E1,1.206491089E-1,-3.591032410E-1,5.131329346E-1,6.378218824E-1
1.426577004E1,-5.343887329E-2,-5.421725464E-1,2.667453003E-1,6.065969325E-1
1.427583904E1,-7.694000244E-2,-8.614585876E-1,5.703140259E-2,8.667659679E-1
1.428590704E1,-9.789642334E-2,-1.185235291E0,-4.146377563E-2,1.189993970E0
1.429597604E1,-9.280700684E-2,-1.458267517E0,-1.945953369E-3,1.461219039E0
1.430604504E1,-7.364685059E-2,-1.664987640E0,3.847000122E-2,1.667059580E0
1.431611304E1,1.631607056E-2,-1.819316711E0,1.007405090E-1,1.822176764E0
1.432618204E1,1.460961914E-1,-1.879341888E0,1.974394226E-1,1.895323813E0
1.433625104E1,1.945953369E-1,-1.848506012E0,3.710783386E-1,1.895399946E0
1.434631904E1,-2.739303589E-2,-1.853745117E0,7.717950439E-1,2.008180502E0
1.435638804E1,-3.502716064E-1,-2.052082672E0,1.274449768E0,2.440892399E0
1.436645704E1,-6.664141846E-1,-2.454146576E0,1.679058380E0,3.047323469E0
1.437652604E1,-9.873468018E-1,-3.056793365E0,1.875000916E0,3.719471444E0
1.438659404E1,-1.529369659E0,-3.698359222E0,1.772464142E0,4.377037997E0
1.439666304E1,-2.292632446E0,-4.874613190E0,1.150806885E0,5.508391214E0
1.440673204E1,-2.993175659E0,-6.427334290E0,-2.769241333E-2,7.090168790E0
1.441680004E1,-3.207230530E0,-8.043972473E0,-1.734592896E0,8.831796722E0
1.442686904E1,-3.431314545E0,-1.003034180E1,-2.884651337E0,1.098648667E1
1.443693804E1,-3.771407318E0,-1.301438644E1,-2.234852600E0,1.373289241E1
1.444700704E1,-3.394042053E0,-1.655706940E1,-2.013313293E-1,1.690256202E1
1.445707504E1,-3.165916443E0,-2.003329056E1,2.036814423E0,2.038392432E1
1.446714404E1,-3.687581635E0,-2.358794861E1,3.982169037E0,2.420428161E1
1.447721304E1,-4.574786682E0,-2.648816757E1,5.509742432E0,2.743918651E1
1.448728104E1,-5.391188965E0,-2.750620056E1,6.259233856E0,2.871992333E1
1.449735004E1,-5.559289398E0,-2.790452225E1,6.719077606E0,2.923549323E1
1.450741904E1,-5.238656158E0,-2.819057739E1,7.076534271E0,2.953353195E1
1.451748704E1,-4.599185944E0,-2.731355118E1,7.171137543E0,2.861132299E1
1.452755604E1,-3.624562683E0,-2.559482529E1,7.214247894E0,2.683799375E1
1.453762504E1,-2.438279572E0,-2.375066025E1,7.229516144E0,2.494604123E1
1.454769404E1,-1.430126038E0,-2.213791397E1,7.060218201E0,2.328044623E1
1.455776204E1,-8.186476135E-1,-2.089370132E1,6.789730682E0,2.198448047E1
1.456783104E1,-3.218307495E-1,-1.988539810E1,6.358028412E0,2.087958711E1
1.457790004E1,-2.859054565E-2,-1.880195114E1,5.787415009E0,1.967252797E1
1.458796804E1,2.044747925E-1,-1.744427444E1,5.055586853E0,1.816324528E1
1.459803704E1,6.032455444E-1,-1.624377090E1,4.609065399E0,1.689578297E1
1.460810604E1,9.665400696E-1,-1.500464767E1,4.181404724E0,1.560633836E1
1.461817504E1,1.080004120E0,-1.346090790E1,3.650458832E0,1.398886343E1
1.462824304E1,1.079854431E0,-1.178678925E1,3.172652435E0,1.225398751E1
1.463831204E1,1.137185211E0,-1.005578888E1,2.676434326E0,1.046782599E1
1.464838104E1,1.282083893E0,-8.625064087E0,2.436333618E0,9.053794294E0
1.465844904E1,1.600920868E0,-7.462880859E0,2.481689301E0,8.025977830E0
1.466851804E1,1.965861969E0,-6.598877563E0,2.557880859E0,7.345240151E0
1.467858704E1,2.312091980E0,-6.067183228E0,2.434537354E0,6.934223372E0
1.468865504E1,2.504741364E0,-5.748645630E0,2.224075012E0,6.653357463E0
1.469872404E1,2.258952484E0,-5.312153320E0,1.817071381E0,6.051742528E0
1.470879304E1,1.786684570E0,-4.913681946E0,1.548529816E0,5.452931011E0
1.471886204E1,1.306932220E0,-4.805606689E0,1.580263824E0,5.224859925E0
1.472893004E1,9.446855164E-1,-4.959786072E0,1.885628815E0,5.389573696E0
1.473899904E1,4.436773682E-1,-5.168152771E0,2.285447388E0,5.668326246E0
1.474906804E1,-1.601669312E-2,-5.413342896E0,2.594704285E0,6.003084887E0
1.475913604E1,-4.746629333E-1,-5.767506409E0,2.827320557E0,6.440743482E0
1.476920504E1,-8.277786255E-1,-6.154002686E0,2.843636627E0,6.829585330E0
1.477927404E1,-1.082848206E0,-6.432124329E0,2.577490082E0,7.013432736E0
1.478934204E1,-1.359323273E0,-6.465804291E0,2.236499176E0,6.975407762E0
1.479941104E1,-1.603016510E0,-6.234086151E0,2.002386017E0,6.741145439E0
1.480948004E1,-1.806892548E0,-6.176306305E0,1.923350372E0,6.716464614E0
1.481954904E1,-1.955683136E0,-6.178252258E0,2.024839325E0,6.789364609E0
1.482961704E1,-1.923050995E0,-6.071973267E0,2.306703186E0,6.774058168E0
1.483968604E1,-1.935175781E0,-6.136489105E0,2.714455261E0,6.983528564E0
1.484975504E1,-2.140548706E0,-6.486311646E0,2.963387604E0,7.445525745E0
1.485982304E1,-2.171234894E0,-6.722520447E0,3.110830994E0,7.719055097E0
1.486989204E1,-2.024839325E0,-6.864275665E0,3.228037262E0,7.851017722E0
1.487996104E1,-1.835782471E0,-7.100933533E0,3.406166840E0,8.086737714E0
1.489003004E1,-1.705403595E0,-7.357350311E0,3.584745483E0,8.359988350E0
1.490009804E1,-1.644929352E0,-7.604187012E0,3.683090973E0,8.607822709E0
1.491016704E1,-1.525627441E0,-7.780220947E0,3.737577667E0,8.765207579E0
1.492023604E1,-1.281634827E0,-7.843988342E0,3.757635956E0,8.791505498E0
1.493030404E1,-9.782157898E-1,-7.970774689E0,3.820505219E0,8.893054334E0
1.494037304E1,-7.301815796E-1,-8.363108826E0,3.842808838E0,9.232655855E0
1.495044204E1,-6.161187744E-1,-8.928333435E0,3.678300934E0,9.675982536E0
1.496051004E1,-4.595443726E-1,-9.408235474E0,3.529061279E0,1.005884433E1
1.497057904E1,-2.962339783E-1,-9.722731476E0,3.344794464E0,1.028624868E1
1.498064804E1,-3.335064697E-1,-1.008408005E1,3.071911926E0,1.054687346E1
1.499071742E1,-4.957690430E-1,-1.048090485E1,2.855162659E0,1.087414857E1
1.500078542E1,-7.197033691E-1,-1.087488556E1,2.722688141E0,1.123361650E1
1.501085442E1,-7.580236816E-1,-1.156659714E1,2.894680481E0,1.194738232E1
1.502092342E1,-5.637277222E-1,-1.268162842E1,3.450325012E0,1.315470376E1
1.503099142E1,-4.987628174E-1,-1.402433624E1,4.172573090E0,1.464039404E1
1.504106042E1,-8.207432556E-1,-1.515688110E1,4.589007111E0,1.585760545E1
1.505112942E1,-1.312620392E0,-1.547107773E1,4.186194763E0,1.608108967E1
1.506119842E1,-1.566791840E0,-1.478864685E1,2.867586823E0,1.514536122E1
1.507126642E1,-1.303339691E0,-1.328891556E1,1.292113037E0,1.341504853E1
1.508133542E1,-7.101232910E-1,-1.155656799E1,4.357438660E-1,1.158656168E1
1.509140442E1,-1.600172424E-1,-1.003617966E1,4.667294312E-1,1.004830055E1
1.510147242E1,2.237846375E-1,-8.766070862E0,6.050418091E-1,8.789775510E0
1.511154142E1,4.266128540E-1,-7.861801300E0,6.113287354E-1,7.897065343E0
1.512161042E1,3.713777161E-1,-7.263495483E0,5.284011841E-1,7.292153033E0
1.513167842E1,8.262817383E-2,-6.902296600E0,4.379891968E-1,6.916672633E0
1.514174742E1,-1.773811340E-1,-6.804100800E0,5.210664368E-1,6.826328588E0
1.515181642E1,-1.749861145E-1,-6.832092590E0,5.957611084E-1,6.860250768E0
1.516188542E1,-2.537223816E-1,-7.045997772E0,5.071453857E-1,7.068780382E0
1.517195342E1,-3.532653809E-1,-7.283703461E0,3.409909058E-1,7.300233375E0
1.518202242E1,-2.234852600E-1,-7.370073853E0,1.083746338E-1,7.374257882E0
1.519209142E1,-3.158432007E-2,-7.470215607E0,-1.835183716E-1,7.472536234E0
1.520215942E1,1.621128845E-1,-7.766299896E0,-4.213737488E-1,7.779411964E0
1.521222842E1,3.448828125E-1,-8.208630066E0,-5.800437927E-1,8.236322147E0
1.522229742E1,4.543052673E-1,-8.628207550E0,-6.468049622E-1,8.664335835E0
1.523236642E1,4.724176025E-1,-9.083261261E0,-6.551875305E-1,9.119105451E0
1.524243442E1,4.843927002E-1,-9.652228088E0,-4.960684204E-1,9.677098079E0
1.525250342E1,4.134402466E-1,-1.047177383E1,-2.430944824E-1,1.048275131E1
1.526257242E1,3.514691162E-1,-1.134341125E1,-1.477427673E-1,1.134981662E1
1.527264042E1,1.793270874E-1,-1.179592026E1,-1.498384094E-1,1.179823480E1
1.528270942E1,-2.619552612E-1,-1.213586334E1,-2.303709412E-1,1.214087601E1
1.529277842E1,-8.038284302E-1,-1.250873795E1,-1.660047913E-1,1.253563811E1
1.530284642E1,-1.355131989E0,-1.259271332E1,-1.058299255E-1,1.266586007E1
1.531291542E1,-1.672771454E0,-1.232417175E1,-3.239263916E-1,1.244139470E1
1.532298442E1,-1.716779938E0,-1.188618256E1,-4.308041382E-1,1.201724849E1
1.533305342E1,-1.696422272E0,-1.142095001E1,-3.594026184E-1,1.155184479E1
1.534312142E1,-1.558858337E0,-1.096514786E1,-3.067121887E-1,1.107964707E1
1.535319042E1,-1.236279144E0,-1.047985703E1,-2.986289978E-1,1.055674991E1
1.536325942E1,-1.023122406E0,-9.982291718E0,-3.541635132E-1,1.004083459E1
1.537332742E1,-1.028960266E0,-9.413175201E0,-3.580554199E-1,9.476013417E0
1.538339642E1,-8.521778870E-1,-8.865164795E0,-1.725910950E-1,8.907701257E0
1.539346542E1,-5.538482666E-1,-8.427025909E0,1.158590698E-1,8.446001238E0
1.540353342E1,-4.086502075E-1,-8.244405670E0,5.171745300E-1,8.270712747E0
1.541360242E1,-2.722837830E-1,-8.176746368E0,8.190966797E-1,8.222179699E0
1.542367142E1,-2.097138977E-1,-8.104297028E0,7.987390137E-1,8.146262593E0
1.543374042E1,-3.176394653E-1,-8.060737610E0,4.914280701E-1,8.081948230E0
1.544380842E1,-4.664300537E-1,-8.097261658E0,4.161346436E-2,8.110791270E0
1.545387742E1,-6.179150391E-1,-8.099956055E0,-2.758763123E-1,8.128174138E0
1.546394642E1,-5.881269836E-1,-8.175698547E0,-2.601589966E-1,8.200952554E0
1.547401442E1,-3.695814514E-1,-8.438102875E0,1.889071655E-1,8.448304948E0
1.548408342E1,-1.106199646E-1,-8.893006897E0,9.403445435E-1,8.943268771E0
1.549415242E1,2.269281006E-1,-9.296717377E0,1.694626007E0,9.452629668E0
1.550422142E1,5.258564758E-1,-9.537716217E0,2.198478241E0,9.801931557E0
1.551428942E1,5.611830139E-1,-9.353299713E0,2.170037384E0,9.618118535E0
1.552435842E1,3.730242920E-1,-8.604257355E0,1.732048187E0,8.784781310E0
1.553442742E1,1.980381775E-1,-7.712861023E0,1.373843079E0,7.836765218E0
1.554449542E1,1.408570862E-1,-6.881789246E0,1.220412140E0,6.990584363E0
1.555456442E1,2.387535095E-1,-6.125561829E0,1.104403381E0,6.228901812E0
1.556463342E1,5.050497437E-1,-5.614225159E0,9.352551270E-1,5.713956731E0
1.557470242E1,8.637039185E-1,-5.263205109E0,7.966433716E-1,5.392768597E0
1.558477042E1,1.305135956E0,-5.050796814E0,8.884025574E-1,5.291803797E0
1.559483942E1,1.610201569E0,-4.948858795E0,1.074765015E0,5.314044816E0
1.560490842E1,1.677262115E0,-4.931045837E0,1.291364594E0,5.366194533E0
1.561497642E1,1.584455109E0,-4.963079224E0,1.635798340E0,5.460630877E0
1.562504542E1,1.410516815E0,-5.062771912E0,2.075733490E0,5.650653647E0
1.563511442E1,1.130748596E0,-5.353916473E0,2.369871826E0,5.963162455E0
1.564518342E1,8.382568359E-1,-5.748645630E0,2.440824280E0,6.301366857E0
1.565525142E1,4.909790039E-1,-6.113437042E0,2.459984436E0,6.608078108E0
1.566532042E1,2.258802795E-1,-6.479875031E0,2.710413666E0,7.027527627E0
1.567538942E1,3.370989990E-1,-6.772965546E0,2.918181610E0,7.382579626E0
1.568545742E1,8.855584717E-1,-7.023694153E0,2.965932312E0,7.675496586E0
1.569552642E1,1.401236115E0,-7.235653381E0,3.158881073E0,8.018520570E0
1.570559542E1,1.788331146E0,-7.465425568E0,3.228486328E0,8.327894762E0
1.571566342E1,2.056723022E0,-7.801776123E0,3.183879089E0,8.673805758E0
1.572573242E1,2.071093140E0,-8.566984863E0,3.074306946E0,9.334560495E0
1.573580142E1,1.225052490E0,-9.196276245E0,3.085982666E0,9.777297142E0
1.574587042E1,6.436614990E-3,-9.401200104E0,3.097209320E0,9.898247845E0
1.575593842E1,-9.750723267E-1,-9.135053558E0,2.961291962E0,9.652420403E0
1.576600742E1,-1.305285645E0,-8.794511719E0,2.763553162E0,9.310447522E0
1.577607642E1,-1.175206146E0,-8.576714630E0,2.469115448E0,9.002092780E0
1.578614442E1,-9.023236084E-1,-8.407865753E0,2.314936066E0,8.767287118E0
1.579621342E1,-2.704875183E-1,-8.380323029E0,2.081721039E0,8.639244182E0
1.580628242E1,2.255809021E-1,-8.453221436E0,1.785636749E0,8.642704321E0
1.581635042E1,6.361770630E-2,-8.673712921E0,1.505569153E0,8.803640243E0
1.582641942E1,-2.993774414E-1,-9.477691040E0,1.548380127E0,9.608003712E0
1.583648842E1,-5.598358154E-1,-1.062460602E1,2.084565125E0,1.084163645E1
1.584655742E1,-8.647517395E-1,-1.167287613E1,2.841540985E0,1.204484072E1
1.585662542E1,-1.116977234E0,-1.267803589E1,3.375181274E0,1.316708323E1
1.586669442E1,-1.256936188E0,-1.379007339E1,3.584296417E0,1.430360771E1
1.587676342E1,-1.102607117E0,-1.500749176E1,3.585793304E0,1.546927487E1
1.588683142E1,-4.388873291E-1,-1.655407562E1,3.881578217E0,1.700872397E1
1.589690042E1,1.854643250E-1,-1.929846863E1,4.969066772E0,1.992879607E1
1.590696942E1,-2.384541321E-1,-2.289279419E1,6.265071716E0,2.373579596E1
1.591703842E1,-1.218915253E0,-2.552072937E1,7.091203766E0,2.651562846E1
1.592710642E1,-1.851050720E0,-2.675670914E1,7.878566437E0,2.795388491E1
1.593717542E1,-2.199675751E0,-2.672991486E1,8.252788239E0,2.806128000E1
1.594724442E1,-2.171534271E0,-2.611005386E1,8.343050537E0,2.749649007E1
1.595731242E1,-1.769021301E0,-2.506762161E1,8.939260712E0,2.667256028E1
1.596738142E1,-1.507814484E0,-2.367207367E1,9.470056915E0,2.554060599E1
1.597745042E1,-1.553020477E0,-2.216620514E1,9.542356567E0,2.418282638E1
1.598751929E1,-1.831591187E0,-2.087798401E1,9.043743439E0,2.282617440E1
1.599758729E1,-2.867736511E0,-2.014510803E1,8.028255157E0,2.187469248E1
1.600765629E1,-3.550766144E0,-1.982776794E1,7.435338135E0,2.147166913E1
1.601772529E1,-3.440595245E0,-1.987566833E1,7.550748138E0,2.153819131E1
1.602779329E1,-3.178639984E0,-1.969439529E1,8.086633759E0,2.152595187E1
1.603786229E1,-2.611020355E0,-1.924383224E1,9.182504883E0,2.148164106E1
1.604793129E1,-2.002535706E0,-1.876393021E1,1.015099091E1,2.142750201E1
1.605799929E1,-1.152453461E0,-1.805335785E1,1.074390793E1,2.104004364E1
1.606806829E1,-2.097138977E-1,-1.734143829E1,1.097966766E1,2.052614343E1
1.607813729E1,6.161187744E-1,-1.662592621E1,1.083596649E1,1.985495390E1
1.608820629E1,1.307081909E0,-1.591176132E1,1.015952316E1,1.892375550E1
1.609827429E1,1.349743195E0,-1.518696854E1,8.551566925E0,1.748127904E1
1.610834329E1,1.338067474E0,-1.458162735E1,7.004833374E0,1.623212775E1
1.611841229E1,1.355131989E0,-1.381447266E1,5.985303497E0,1.511621300E1
1.612848029E1,1.361718292E0,-1.275168274E1,5.142406311E0,1.381680253E1
1.613854929E1,1.341360626E0,-1.144145737E1,4.267775116E0,1.228495419E1
1.614861829E1,1.352587280E0,-9.819580078E0,3.574566650E0,1.053713301E1
1.615868729E1,1.505718842E0,-7.810458069E0,2.946323090E0,8.482409105E0
1.616875529E1,1.842668152E0,-5.900579681E0,2.278262329E0,6.588076027E0
1.617882429E1,2.161056061E0,-4.265230408E0,1.597777405E0,5.041353624E0
1.618889329E1,2.752775574E0,-2.849923553E0,6.822811890E-1,4.020615033E0
1.619896129E1,3.333717499E0,-1.849254456E0,-3.043171692E-1,3.824398429E0
1.620903029E1,3.512894897E0,-1.276695099E0,-7.943980408E-1,3.821184265E0
1.621909929E1,3.464246063E0,-7.387138367E-1,-5.757028198E-1,3.588611522E0
1.622916729E1,3.350632324E0,-1.047821045E-3,-6.586303711E-3,3.350638961E0
1.623923629E1,3.157234497E0,9.267228699E-1,1.068777466E-1,3.292167645E0
1.624930529E1,2.384691010E0,1.766177216E0,-7.292834473E-1,3.055812088E0
1.625937429E1,1.697470093E0,2.442470856E0,-1.894460449E0,3.526478270E0
1.626944229E1,3.981719971E-1,3.297792206E0,-2.872376862E0,4.391414716E0
1.627951129E1,-7.911048889E-1,3.949836273E0,-3.446133728E0,5.301216012E0
1.628958029E1,-1.145268402E0,4.139192505E0,-3.671864319E0,5.650410771E0
1.629964829E1,-1.548380127E0,4.031416626E0,-2.863994293E0,5.181917053E0
1.630971729E1,-1.751058655E0,3.654650116E0,-1.502725067E0,4.322135642E0
1.631978629E1,-2.062860260E0,3.210523682E0,-4.743635559E-1,3.845500689E0
1.632985529E1,-1.718127136E0,2.700534210E0,4.194277954E-1,3.228121056E0
1.633992329E1,-1.175206146E0,2.055525513E0,1.044078827E0,2.587739403E0
1.634999229E1,-6.227050781E-1,1.335522766E0,1.491947479E0,2.096971615E0
1.636006129E1,-4.251159668E-2,8.928932190E-1,1.787283325E0,1.998361134E0
1.637012929E1,4.721182251E-1,6.518943787E-1,1.745220795E0,1.921889050E0
1.638019829E1,7.794291687E-1,2.595602417E-1,1.475481720E0,1.688765127E0
1.639026729E1,9.129515076E-1,-1.454974365E-1,1.286724243E0,1.584395543E0
1.640033529E1,8.394543457E-1,-4.962181091E-1,1.073268127E0,1.450110507E0
1.641040429E1,6.162684631E-1,-8.448431396E-1,8.812174988E-1,1.367512716E0
1.642047329E1,1.426533508E-1,-1.208437042E0,8.388555908E-1,1.477954250E0
1.643054229E1,-3.474275208E-1,-1.410067749E0,7.837701416E-1,1.650240156E0
1.644061029E1,-8.761280823E-1,-1.596130829E0,5.983058167E-1,1.916560432E0
1.645067929E1,-1.289568329E0,-1.572180634E0,4.638853455E-1,2.085648109E0
1.646074829E1,-1.490899658E0,-1.683399353E0,4.182302856E-1,2.287254193E0
1.647081629E1,-1.364562378E0,-1.810485077E0,4.201762390E-1,2.305739528E0
1.648088529E1,-8.256829834E-1,-1.698966980E0,3.833528137E-1,1.927485556E0
1.649095429E1,-4.599934387E-1,-1.529519348E0,3.784130859E-1,1.641407891E0
1.650102329E1,-3.062631226E-1,-1.495540009E0,5.584886169E-1,1.625529622E0
1.651109129E1,-3.547622681E-2,-1.530267792E0,5.388793945E-1,1.622765873E0
1.652116029E1,1.802252197E-1,-1.422192535E0,4.065545654E-1,1.490100450E0
1.653122929E1,1.818717957E-1,-1.430126038E0,4.195774841E-1,1.501460322E0
1.654129729E1,-2.035766602E-2,-1.707499237E0,6.168672180E-1,1.815624753E0
1.655136629E1,-3.296145630E-1,-2.218087463E0,9.574090576E-1,2.438276001E0
