"Time (s)","Acceleration x (m/s^2)","Acceleration y (m/s^2)","Acceleration z (m/s^2)","Absolute acceleration (m/s^2)"
1.314791734E-3,-7.593259735E0,1.207239532E0,2.467468872E0,8.074863672E0
1.138279168E-2,-7.815697174E0,1.442849579E0,2.549947357E0,8.346805901E0
2.145179175E-2,-8.048912201E0,1.746717682E0,2.485132141E0,8.603016450E0
3.152079170E-2,-8.289461975E0,2.022294617E0,2.307601318E0,8.839110770E0
4.158879176E-2,-8.636290741E0,2.058668976E0,2.151176605E0,9.135162642E0
5.165779172E-2,-9.156608734E0,2.073039093E0,1.964065704E0,9.591586349E0
6.172579166E-2,-9.573791199E0,2.045945435E0,1.772314453E0,9.949093886E0
7.179479173E-2,-1.003333557E1,2.213596802E0,1.732646942E0,1.041968804E1
8.186279167E-2,-1.057805283E1,2.584375763E0,2.071991272E0,1.108455446E1
9.193179174E-2,-1.090901459E1,2.881507874E0,2.646047516E0,1.158927325E1
1.019997917E-1,-1.083701431E1,3.053350525E0,3.438050537E0,1.177217143E1
1.120687918E-1,-1.025517426E1,3.049308929E0,3.921994171E0,1.139512713E1
1.221367917E-1,-9.524543610E0,2.769391022E0,4.140839081E0,1.074862809E1
1.322057917E-1,-8.903934174E0,2.295027466E0,4.195026398E0,1.010670279E1
1.422747917E-1,-8.832382965E0,2.097288666E0,4.341571655E0,1.006274580E1
1.523427917E-1,-8.568781128E0,1.833686829E0,4.492607574E0,9.847331630E0
1.624117917E-1,-8.395142212E0,1.649869080E0,4.467609558E0,9.651943633E0
1.724797917E-1,-8.237969055E0,1.456321564E0,4.060456238E0,9.299048957E0
1.825487918E-1,-8.208181000E0,1.100960541E0,3.364852753E0,8.939160111E0
1.926167917E-1,-8.225095825E0,9.113049316E-1,2.742297363E0,8.717962654E0
2.026857918E-1,-7.800578613E0,8.168513489E-1,2.221829681E0,8.151858681E0
2.127537917E-1,-7.947572937E0,1.277892609E0,1.300944672E0,8.154102167E0
2.228227917E-1,-8.038433990E0,1.935175781E0,1.353485413E0,8.378141147E0
2.328907917E-1,-7.573500824E0,1.668280792E0,4.102818146E0,8.773493732E0
2.429597917E-1,-7.055278473E0,1.322350159E0,5.241649933E0,8.888220198E0
2.530277917E-1,-6.150709534E0,8.572673035E-1,4.938230896E0,7.934245987E0
2.630967917E-1,-5.163362732E0,3.661386108E-1,4.925207977E0,7.145071434E0
2.731647918E-1,-4.366569672E0,2.694396973E-2,5.442831573E0,6.977970494E0
2.832337917E-1,-3.475472717E0,-5.466632080E-1,5.828280029E0,6.807833677E0
2.933027917E-1,-3.334615631E0,-3.101550293E-1,3.932173004E0,5.165059737E0
3.033707917E-1,-3.030897217E0,-7.634124756E-2,1.444945221E0,3.358575980E0
3.134397917E-1,-2.544708252E0,-4.249662781E-1,-4.565505981E-1,2.620033373E0
3.235077917E-1,-2.368374939E0,-3.245251465E-1,-1.856738892E0,3.026878877E0
3.335767917E-1,-3.328628082E0,4.156855774E-1,-2.561323700E0,4.220537703E0
3.436447917E-1,-5.489534454E0,1.174906769E0,-2.674937439E0,6.218575781E0
3.537137917E-1,-7.553292847E0,1.345102844E0,-2.463576965E0,8.057961650E0
3.637817918E-1,-9.726174316E0,6.337820435E-1,-1.717678070E0,9.896997750E0
3.738507917E-1,-1.154683823E1,-2.180964661E-1,-7.716453552E-1,1.157464797E1
3.839187917E-1,-1.326361816E1,-1.506317596E0,6.137237549E-3,1.334888000E1
3.939877917E-1,-1.594364502E1,-3.216062164E0,3.752696228E-1,1.626910261E1
4.040557917E-1,-1.946147964E1,-5.080435181E0,3.427871704E-2,2.011370644E1
4.141247917E-1,-2.468561600E1,-5.131928101E0,-1.291214905E0,2.524645637E1
4.241937917E-1,-2.671120377E1,-5.591771851E0,4.790039062E-1,2.729442734E1
4.342617918E-1,-2.300461166E1,-9.478589172E0,4.883444824E0,2.535554858E1
4.443307917E-1,-2.081676132E1,-1.106469086E1,8.463849335E0,2.504798757E1
4.543987917E-1,-1.604019424E1,-1.032657578E1,1.101035385E1,2.202620917E1
4.644677917E-1,-9.524543610E0,-7.171586609E0,9.356443176E0,1.515558030E1
4.745357917E-1,-6.433920593E0,-3.575464783E0,9.252110138E0,1.182289409E1
4.846047917E-1,-5.540278931E0,-1.712588654E0,1.111543533E1,1.253716687E1
4.946727917E-1,-5.654491425E0,-9.499246216E-1,1.226220062E1,1.353651337E1
5.047417918E-1,-6.536906433E0,-7.185058594E-1,1.259121643E1,1.420514441E1
5.148097917E-1,-7.535629578E0,-1.075812836E0,1.177256882E1,1.401914630E1
5.248787918E-1,-8.546178131E0,-1.705553284E0,1.035202286E1,1.353183099E1
5.349467917E-1,-8.944350128E0,-2.381397858E0,8.567284241E0,1.261232787E1
5.450157917E-1,-8.881630554E0,-2.776576080E0,7.010521545E0,1.165075742E1
5.550847917E-1,-8.552165680E0,-2.964435425E0,5.601052551E0,1.064420992E1
5.651527917E-1,-8.171656952E0,-3.196003876E0,4.407135315E0,9.819025400E0
5.752217917E-1,-7.799381104E0,-3.453917542E0,3.802243195E0,9.339001301E0
5.852897917E-1,-7.320077820E0,-3.599265289E0,3.352428589E0,8.819128492E0
5.953587918E-1,-6.879394226E0,-3.740421753E0,3.149899750E0,8.440301431E0
6.054267917E-1,-6.722520447E0,-3.793561249E0,3.186723175E0,8.350963579E0
6.154957917E-1,-6.763535156E0,-3.675606537E0,3.402274933E0,8.416113470E0
6.255637917E-1,-6.774312744E0,-3.456611938E0,3.680097198E0,8.448822086E0
6.356327917E-1,-6.892267456E0,-3.238515472E0,3.906576233E0,8.558777425E0
6.457007917E-1,-7.062613220E0,-2.820285187E0,4.118984528E0,8.648730980E0
6.557697917E-1,-7.117099915E0,-2.338586884E0,4.355941772E0,8.665813784E0
6.658377917E-1,-7.136709137E0,-1.743274841E0,4.600533142E0,8.668132998E0
6.759067917E-1,-6.957082672E0,-1.272054749E0,4.888833618E0,8.597663446E0
6.859747918E-1,-6.803502045E0,-9.934840393E-1,5.283862152E0,8.671438742E0
6.960437917E-1,-6.583908691E0,-7.722441101E-1,5.790558472E0,8.801976030E0
7.061127917E-1,-6.512058105E0,-7.111711121E-1,6.079457703E0,8.937139983E0
7.161807917E-1,-6.672524414E0,-8.701405334E-1,6.100114746E0,9.082462580E0
7.262497917E-1,-7.044051819E0,-1.090182953E0,6.384523315E0,9.569185068E0
7.363177917E-1,-7.433841248E0,-1.301693115E0,6.587950287E0,1.001785854E1
7.463867917E-1,-7.845185852E0,-1.498234406E0,6.460415497E0,1.027271219E1
7.564547918E-1,-8.306676178E0,-1.611848145E0,6.267167358E0,1.052978206E1
7.665237917E-1,-8.670569458E0,-1.664239197E0,6.108946381E0,1.073627928E1
7.765917917E-1,-8.755742340E0,-1.673370209E0,6.194867706E0,1.085539394E1
7.866607917E-1,-8.350834351E0,-1.807790680E0,6.536457367E0,1.075777934E1
7.967287917E-1,-7.710765381E0,-1.994452515E0,7.185507660E0,1.072684781E1
8.067977917E-1,-8.099057922E0,-2.639012146E0,7.876919861E0,1.160193910E1
8.168657917E-1,-1.015742752E1,-3.531007233E0,7.567513275E0,1.314947159E1
8.269347918E-1,-1.273446854E1,-3.668870544E0,6.455326080E0,1.474104931E1
8.370027917E-1,-1.480960327E1,-3.132685547E0,5.126838684E0,1.598194427E1
8.470717918E-1,-1.547691559E1,-2.307152252E0,3.903732147E0,1.612752282E1
8.571407917E-1,-1.442654984E1,-1.035396881E0,2.891237640E0,1.474980142E1
8.672087917E-1,-1.319655762E1,8.270301819E-1,2.496957550E0,1.345614762E1
8.772777917E-1,-1.145657593E1,2.399360504E0,2.550995178E0,1.197988477E1
8.873457917E-1,-9.965825958E0,2.756667480E0,2.246528320E0,1.058129444E1
8.974147917E-1,-9.533674622E0,2.735860748E0,1.679657135E0,1.005967862E1
9.074827917E-1,-1.025622208E1,2.661465454E0,1.501677246E0,1.070180004E1
9.175517918E-1,-1.223390945E1,2.446961517E0,1.813029785E0,1.260726926E1
9.276197917E-1,-1.407657761E1,2.243534546E0,2.003433838E0,1.439434721E1
9.376887917E-1,-1.506048157E1,2.156116333E0,1.857487335E0,1.532700890E1
9.477567917E-1,-1.543350586E1,1.926643524E0,1.478774872E0,1.562343859E1
9.578257917E-1,-1.500345016E1,1.785936127E0,9.165440369E-1,1.513714430E1
9.678937917E-1,-1.379142059E1,1.686093750E0,3.068618774E-1,1.389749468E1
9.779627917E-1,-1.239751923E1,1.480421448E0,3.667373657E-2,1.248565079E1
9.880307917E-1,-1.100616257E1,1.311722260E0,6.286926270E-2,1.108423124E1
9.980997917E-1,-9.849817200E0,1.258582764E0,2.492317200E-1,9.933028032E0
1.008168792E0,-8.972192230E0,1.233435059E0,4.339476013E-1,9.066967849E0
1.018236792E0,-8.182434540E0,1.140777740E0,6.441105652E-1,8.286645116E0
1.028305792E0,-7.564818878E0,1.013991394E0,9.583071899E-1,7.692399878E0
1.038373792E0,-6.870263214E0,8.675958252E-1,1.158740387E0,7.021105214E0
1.048442792E0,-6.441554718E0,6.472540283E-1,1.283880157E0,6.600069183E0
1.058510792E0,-6.335126038E0,4.680766296E-1,1.304686890E0,6.484992330E0
1.068579792E0,-6.502627716E0,2.924917603E-1,1.175056458E0,6.614414284E0
1.078647792E0,-6.826554108E0,6.631210327E-2,1.033600616E0,6.904677293E0
1.088716792E0,-6.974296875E0,-1.335223389E-1,9.644444275E-1,7.041931423E0
1.098784958E0,-6.969955902E0,-2.835104370E-1,9.032217407E-1,7.033951447E0
1.108853958E0,-7.008126526E0,-4.135899353E-1,8.234376526E-1,7.068447043E0
1.118921958E0,-6.982080688E0,-5.123844910E-1,7.809260559E-1,7.044276692E0
1.128990958E0,-7.041207733E0,-5.905220032E-1,6.574328613E-1,7.096445628E0
1.139058958E0,-7.105873260E0,-7.509883118E-1,5.542973328E-1,7.166914522E0
1.149127958E0,-7.264992371E0,-8.888516235E-1,4.831951904E-1,7.335097065E0
1.159195958E0,-7.517217865E0,-9.434880066E-1,5.010081482E-1,7.592742799E0
1.169264958E0,-7.763156433E0,-8.997789001E-1,5.528004456E-1,7.834653037E0
1.179333958E0,-8.002209320E0,-7.352709961E-1,7.458988953E-1,8.070461115E0
1.189401958E0,-8.349337463E0,-3.553610229E-1,1.096020813E0,8.428462443E0
1.199470958E0,-8.640631714E0,1.209484863E-1,1.523980865E0,8.774831202E0
1.209538958E0,-8.896000671E0,6.484515381E-1,2.042203217E0,9.150404981E0
1.219607958E0,-8.830736389E0,1.103205872E0,3.048111420E0,9.406909779E0
1.229675958E0,-8.481662292E0,1.503024445E0,4.061204681E0,9.523185454E0
1.239744958E0,-8.293204193E0,1.883832550E0,4.667444000E0,9.701087277E0
1.249812958E0,-8.114625549E0,2.239642639E0,5.197791138E0,9.893441245E0
1.259881958E0,-7.938292236E0,2.558030548E0,5.664221191E0,1.008183543E1
1.269949958E0,-7.871381378E0,2.789598999E0,5.783972168E0,1.015848618E1
1.280018958E0,-7.972870331E0,3.071462860E0,5.626948700E0,1.023049838E1
1.290086958E0,-8.331374817E0,3.351231079E0,4.835095367E0,1.019905404E1
1.300155958E0,-8.828940125E0,3.475472717E0,3.554208984E0,1.013220094E1
1.310223958E0,-9.365424500E0,3.351979523E0,2.431543579E0,1.024008530E1
1.320292958E0,-9.845925293E0,3.015628967E0,1.715283051E0,1.043927483E1
1.330361958E0,-1.000145187E1,2.799328766E0,1.551523590E0,1.050107169E1
1.340429958E0,-1.012988480E1,2.862946472E0,1.786085815E0,1.067713122E1
1.350498958E0,-1.054557037E1,3.087329865E0,2.139500885E0,1.119455780E1
1.360566958E0,-1.108100693E1,3.321892090E0,2.382894745E0,1.181109093E1
1.370635958E0,-1.161749130E1,3.653452606E0,2.481689301E0,1.242870073E1
1.380703958E0,-1.229917374E1,3.959116974E0,2.474803619E0,1.315556668E1
1.390772958E0,-1.299702255E1,4.256847839E0,2.102078705E0,1.383698246E1
1.400840958E0,-1.377375732E1,4.379592590E0,1.306183777E0,1.451217896E1
1.410909958E0,-1.475751160E1,4.430636444E0,7.161108398E-1,1.542489879E1
1.420977958E0,-1.508203674E1,4.514911194E0,5.575904846E-1,1.575319531E1
1.431046958E0,-1.463267120E1,4.588707733E0,9.729766846E-1,1.536613123E1
1.441114958E0,-1.344489120E1,4.417463837E0,1.898651733E0,1.427879423E1
1.451183958E0,-1.141331589E1,3.610042877E0,2.745740204E0,1.228150147E1
1.461251958E0,-9.752070465E0,2.244881744E0,2.539768524E0,1.032437875E1
1.471320958E0,-9.341474304E0,1.506018219E0,1.484762421E0,9.577878288E0
1.481388958E0,-1.037043457E1,1.368154907E0,4.522096252E-1,1.047006469E1
1.491457958E0,-1.187510559E1,1.245709534E0,-6.481521606E-2,1.194044078E1
1.501525958E0,-1.331301544E1,9.457333374E-1,1.193019104E-1,1.334709799E1
1.511594958E0,-1.473999802E1,6.162684631E-1,6.527925110E-1,1.476731074E1
1.521663958E0,-1.615560425E1,3.053649902E-1,1.039438477E0,1.619188774E1
1.531731958E0,-1.668610107E1,-7.274871826E-2,1.321152649E0,1.673847979E1
1.541800958E0,-1.576671295E1,-5.252577209E-1,1.551673279E0,1.585158739E1
1.551868958E0,-1.406580002E1,-8.047265625E-1,1.545685730E0,1.417333621E1
1.561937958E0,-1.252475464E1,-9.809101868E-1,1.588796082E0,1.266317245E1
1.572005958E0,-1.120719452E1,-9.469308472E-1,1.560654602E0,1.135489013E1
1.582074958E0,-1.041114990E1,-1.011296997E0,1.454824677E0,1.056083703E1
1.592142958E0,-1.008153534E1,-1.030606842E0,1.503473511E0,1.024499575E1
1.602211958E0,-9.699230347E0,-8.854087830E-1,1.538800049E0,9.860371373E0
1.612279958E0,-9.166188812E0,-6.385720825E-1,1.478625183E0,9.306617220E0
1.622348958E0,-8.620274048E0,-3.580554199E-1,1.386566620E0,8.738414921E0
1.632416958E0,-8.162076874E0,1.043330383E-1,1.213676147E0,8.252478056E0
1.642485958E0,-7.477700043E0,6.222560120E-1,9.171427917E-1,7.559388294E0
1.652553958E0,-6.839427338E0,8.978329468E-1,9.059161377E-1,6.957338166E0
1.662622958E0,-6.216871948E0,7.831713867E-1,1.117575989E0,6.364890442E0
1.672690958E0,-5.839057617E0,5.345384216E-1,1.463057556E0,6.043249341E0
1.682759958E0,-5.786217499E0,5.523513794E-2,1.615889740E0,6.007866802E0
1.692828958E0,-5.695506134E0,-4.105961609E-1,1.691632233E0,5.955585525E0
1.702896958E0,-5.590424652E0,-6.664141846E-1,1.511556702E0,5.829387559E0
1.712965958E0,-5.691913605E0,-8.898994446E-1,1.218166809E0,5.888440530E0
1.723033958E0,-5.846991119E0,-1.072968750E0,9.882449341E-1,6.026209019E0
1.733102958E0,-5.923332367E0,-1.164727936E0,8.767268372E-1,6.100090773E0
1.743170958E0,-6.090085602E0,-1.082399139E0,8.309220886E-1,6.241086608E0
1.753239958E0,-6.281986542E0,-8.141569519E-1,6.860234070E-1,6.371564531E0
1.763307958E0,-6.519991608E0,-5.764512634E-1,3.745211792E-1,6.556130927E0
1.773376958E0,-6.498735809E0,-3.830534363E-1,6.631210327E-2,6.510352859E0
1.783444958E0,-6.664141846E0,-1.808239746E-1,-1.103205872E-1,6.667507366E0
1.793513958E0,-6.798861694E0,-6.541397095E-2,-9.101074219E-2,6.799785458E0
1.803581958E0,-6.920558624E0,-1.327738953E-1,6.631210327E-2,6.922149801E0
1.813650958E0,-7.009623413E0,-1.471440125E-1,4.634362793E-1,7.026467458E0
1.823718958E0,-7.050638123E0,-4.999603271E-2,8.997789001E-1,7.107995470E0
1.833787958E0,-7.279961243E0,-2.082170105E-1,1.342258759E0,7.405595762E0
1.843855958E0,-7.573800201E0,-3.502716064E-1,1.805395660E0,7.793881779E0
1.853924958E0,-7.885751495E0,-4.737648010E-1,2.257156219E0,8.216099070E0
1.863992958E0,-8.143964539E0,-5.345384216E-1,2.631078644E0,8.575107262E0
1.874061958E0,-8.391849060E0,-5.551954651E-1,3.359913025E0,9.056510817E0
1.884130958E0,-8.499325562E0,-3.863465881E-1,4.048331451E0,9.422143399E0
1.894198958E0,-8.580606537E0,8.382568359E-3,4.647834778E0,9.758547378E0
1.904267958E0,-8.794661407E0,3.140469360E-1,5.653443604E0,1.045973801E1
1.914335958E0,-9.109307098E0,4.439767456E-1,7.088060303E0,1.155063591E1
1.924404958E0,-9.451046448E0,3.755690002E-1,8.755143585E0,1.288859458E1
1.934472958E0,-1.007674530E1,3.510200500E-1,9.948911133E0,1.416491594E1
1.944541958E0,-1.076411591E1,4.532574463E-1,1.019185593E1,1.483056171E1
1.954609958E0,-1.117141891E1,5.760021973E-1,1.004845413E1,1.503674864E1
1.964678958E0,-1.096200439E1,3.897894287E-1,9.318571930E0,1.439281970E1
1.974746958E0,-1.060709244E1,-1.212478638E-2,8.357270966E0,1.350387111E1
1.984815958E0,-1.065783691E1,-6.459068298E-1,7.567363586E0,1.308708046E1
1.994883958E0,-1.145148651E1,-1.230441284E0,7.138804779E0,1.355038976E1
2.004952958E0,-1.301214111E1,-1.624122620E0,6.566993866E0,1.466557190E1
2.015020958E0,-1.449166443E1,-1.613195343E0,5.855822754E0,1.571309636E1
2.025089958E0,-1.542796738E1,-1.183439026E0,4.989274750E0,1.625778484E1
2.035157958E0,-1.578946564E1,-5.182223511E-1,4.118236084E0,1.632591951E1
2.045226958E0,-1.483954102E1,3.001258850E-1,3.169958038E0,1.517730829E1
2.055294958E0,-1.323263260E1,1.262923737E0,2.018103333E0,1.344508397E1
2.065363958E0,-1.187375839E1,1.839524689E0,1.138831787E0,1.206925546E1
2.075432958E0,-1.040815613E1,2.095043335E0,5.664221191E-1,1.063201555E1
2.085500958E0,-9.323511658E0,2.201022949E0,1.884580994E-1,9.581643289E0
2.095569583E0,-8.879834290E0,2.229314117E0,5.328918457E-2,9.155552314E0
2.105637583E0,-9.006470947E0,2.156864777E0,-6.137237549E-2,9.261336359E0
2.115706583E0,-9.739496613E0,2.112706604E0,-1.829196167E-1,9.967686946E0
2.125774583E0,-1.089254883E1,2.244881744E0,-1.974394226E-1,1.112322329E1
2.135843583E0,-1.194785431E1,2.504441986E0,-2.978805542E-2,1.220755256E1
2.145911583E0,-1.275018585E1,2.841840363E0,-7.768844604E-2,1.306328180E1
2.155980583E0,-1.335148544E1,3.160228271E0,-3.121009827E-1,1.372394307E1
2.166048583E0,-1.339205109E1,3.428769836E0,-4.962181091E-1,1.383292186E1
2.176117583E0,-1.311812073E1,3.464695129E0,-7.039860535E-1,1.358619888E1
2.186185583E0,-1.217897369E1,3.210823059E0,-9.422904968E-1,1.263030864E1
2.196254583E0,-1.051832703E1,3.082689514E0,-1.014440460E0,1.100760044E1
2.206322583E0,-8.778195648E0,2.853366394E0,-9.340576172E-1,9.277439423E0
2.216391583E0,-7.529043274E0,2.619103546E0,-8.146060181E-1,8.013100459E0
2.226459583E0,-6.483467560E0,2.283351746E0,-5.153782654E-1,6.893087955E0
2.236528583E0,-5.646707611E0,2.037263489E0,-1.291813660E-1,6.004368176E0
2.246596583E0,-5.095404053E0,1.643133087E0,2.751278687E-1,5.360851066E0
2.256665583E0,-5.037773895E0,1.199605408E0,6.926097107E-1,5.224741828E0
2.266733583E0,-5.086273041E0,8.794212341E-1,9.560618591E-1,5.249534211E0
2.276802583E0,-5.028642883E0,6.936575317E-1,1.107846222E0,5.195741840E0
2.286870583E0,-5.092260590E0,5.328918457E-1,1.208736420E0,5.260811284E0
2.296939583E0,-5.317542114E0,4.589456177E-1,1.305285645E0,5.494602427E0
2.307008583E0,-5.679339752E0,5.068460083E-1,1.259630585E0,5.839388847E0
2.317076583E0,-6.145470428E0,6.137237549E-1,1.179547119E0,6.287670080E0
2.327145583E0,-6.638096008E0,7.312294006E-1,1.170715485E0,6.780087743E0
2.337213583E0,-7.078480225E0,9.286688232E-1,1.106648712E0,7.224401667E0
2.347282583E0,-7.441774750E0,1.179247742E0,1.380579071E0,7.660067574E0
2.357350583E0,-7.730224915E0,1.435365143E0,2.593955841E0,8.279206316E0
2.367419583E0,-8.128546600E0,1.651216278E0,3.145259399E0,8.870876040E0
2.377487583E0,-8.184829559E0,1.759441223E0,3.565136261E0,9.099300242E0
2.387556583E0,-8.203840027E0,1.835932159E0,4.271068268E0,9.429510180E0
2.397624583E0,-8.231083374E0,1.871408386E0,5.024601288E0,9.823416970E0
2.407693583E0,-8.183482361E0,1.923649750E0,5.521867218E0,1.005787400E1
2.417761583E0,-8.281977539E0,1.971999207E0,5.557792511E0,1.016705417E1
2.427830583E0,-8.578361206E0,2.018253021E0,5.181624756E0,1.022305538E1
2.437898583E0,-8.832083588E0,2.018253021E0,4.611310730E0,1.016578735E1
2.447967583E0,-8.931776276E0,1.996697845E0,4.184398499E0,1.006342986E1
2.458035583E0,-8.994196472E0,1.959575043E0,3.973786469E0,1.002628961E1
2.468104583E0,-9.007818146E0,1.805096283E0,3.884422302E0,9.974361983E0
2.478172583E0,-9.250313873E0,1.660946045E0,3.852388916E0,1.015716244E1
2.488241583E0,-9.790091400E0,1.626367950E0,3.775149536E0,1.061803731E1
2.498309583E0,-1.022523651E1,1.750908966E0,3.481310577E0,1.094260788E1
2.508378583E0,-1.039513321E1,2.297123108E0,2.829416199E0,1.101549659E1
2.518446583E0,-1.051593201E1,3.265758820E0,2.215393066E0,1.123200664E1
2.528515583E0,-1.075393707E1,3.959116974E0,1.968107300E0,1.162734777E1
2.538583583E0,-1.109852051E1,4.506528625E0,1.981429596E0,1.214133522E1
2.548652583E0,-1.147558640E1,4.864733734E0,2.211201782E0,1.265875708E1
2.558721583E0,-1.195863190E1,5.082680511E0,2.524350586E0,1.323687516E1
2.568789583E0,-1.254271729E1,5.108277283E0,2.485581207E0,1.376925443E1
2.578858583E0,-1.339025482E1,4.949008484E0,1.902244263E0,1.440174095E1
2.588926583E0,-1.440200089E1,4.689148865E0,1.375339966E0,1.520846168E1
2.598995583E0,-1.503219040E1,4.143533478E0,1.281485138E0,1.564537702E1
2.609063583E0,-1.501317993E1,3.408112793E0,1.477727051E0,1.546591354E1
2.619132583E0,-1.385054764E1,2.631527710E0,1.652563477E0,1.419484322E1
2.629200583E0,-1.182346298E1,1.924398193E0,1.626367950E0,1.208894776E1
2.639269583E0,-9.599537659E0,1.369202728E0,1.346150665E0,9.789686460E0
2.649337583E0,-7.817343750E0,9.987231445E-1,9.854008484E-1,7.942249433E0
2.659406583E0,-7.145540771E0,7.893086243E-1,7.089257812E-1,7.223872700E0
2.669474583E0,-7.703580322E0,7.017407227E-1,4.164340210E-1,7.746677166E0
2.679543583E0,-9.423803101E0,8.740324402E-1,2.136058044E-1,9.466658599E0
2.689611583E0,-1.153905441E1,1.103355560E0,1.369651794E-1,1.159249454E1
2.699680583E0,-1.333951035E1,1.078806610E0,4.640350342E-1,1.339110483E1
2.709748583E0,-1.476619354E1,8.809181213E-1,9.943821716E-1,1.482583166E1
2.719817583E0,-1.565235077E1,7.110214233E-1,1.466201019E0,1.573694321E1
2.729885583E0,-1.545461197E1,5.388793945E-1,1.641486511E0,1.555088101E1
2.739954583E0,-1.401789963E1,3.604504395E-1,1.655257874E0,1.411989069E1
2.750022583E0,-1.183424057E1,4.632865906E-1,1.470541992E0,1.193425231E1
2.760091583E0,-1.054078033E1,6.596781921E-1,1.311123505E0,1.064247482E1
2.770159583E0,-1.009111542E1,9.217831421E-1,1.291065216E0,1.021504498E1
2.780228583E0,-9.700727234E0,1.183439026E0,1.200353851E0,9.846089892E0
2.790296583E0,-9.325307922E0,1.453028412E0,1.132245483E0,9.505505733E0
2.800365583E0,-8.734636230E0,1.888772278E0,1.126407623E0,9.007226262E0
2.810434583E0,-8.102051697E0,2.172582092E0,1.199306030E0,8.473587764E0
2.820502583E0,-7.498057709E0,2.174677734E0,1.363364868E0,7.925203872E0
2.830571583E0,-6.873107300E0,1.965113525E0,1.675316162E0,7.342203986E0
2.840639583E0,-6.252946930E0,1.539548492E0,2.008373566E0,6.745599992E0
2.850708583E0,-5.852828979E0,1.143621826E0,2.266586609E0,6.379725135E0
2.860776583E0,-5.694458313E0,8.419990540E-1,2.487976227E0,6.271032099E0
2.870845583E0,-5.393583984E0,8.089178467E-1,2.480791168E0,5.991612563E0
2.880913583E0,-5.137017517E0,7.776329041E-1,2.355352020E0,5.704502173E0
2.890982583E0,-4.816983032E0,7.053332520E-1,2.115251312E0,5.308023045E0
2.901050583E0,-4.611161041E0,7.387138367E-1,1.784439240E0,4.999272715E0
2.911119583E0,-4.700674896E0,6.697073364E-1,1.524130554E0,4.986765118E0
2.921187583E0,-4.915478210E0,6.036946106E-1,1.312021637E0,5.123258143E0
2.931256583E0,-5.241949310E0,5.873785400E-1,1.150657196E0,5.398801543E0
2.941324583E0,-5.620811462E0,5.415737915E-1,1.028211823E0,5.739690168E0
2.951393583E0,-6.100713501E0,5.390290833E-1,9.966275024E-1,6.205040206E0
2.961461583E0,-6.464606781E0,3.668870544E-1,1.062939606E0,6.561675666E0
2.971530583E0,-6.747817841E0,2.395019531E-2,1.239572296E0,6.860769541E0
2.981598583E0,-7.154372406E0,-2.508782959E-1,1.672771454E0,7.351608585E0
2.991667583E0,-7.588020630E0,-4.409829712E-1,2.166744232E0,7.903625980E0
3.001735583E0,-7.886350250E0,-5.213658142E-1,2.689756622E0,8.348720457E0
3.011804583E0,-8.159532166E0,-5.116360474E-1,3.148103485E0,8.760724408E0
3.021872583E0,-8.379275208E0,-4.417314148E-1,3.565285950E0,9.116942665E0
3.031941583E0,-8.531808014E0,-3.517684937E-1,4.156257019E0,9.496839552E0
3.042009583E0,-8.966953125E0,-9.580078125E-2,5.068609772E0,1.030078789E1
3.052078583E0,-9.709409180E0,1.927990723E-1,6.178851013E0,1.151034309E1
3.062146583E0,-1.068732559E1,-2.418969727E-1,7.028334503E0,1.279355026E1
3.072215583E0,-1.172706345E1,-1.437760162E0,7.505392456E0,1.399721713E1
3.082283583E0,-1.235470825E1,-2.175725555E0,7.984546051E0,1.487029164E1
3.092352583E0,-1.219603821E1,-2.015408936E0,8.304580536E0,1.489198707E1
3.102421667E0,-1.087533463E1,-1.486708374E0,7.972720642E0,1.356640997E1
3.112489667E0,-9.403744812E0,-9.765692139E-1,7.168592834E0,1.186477253E1
3.122558667E0,-9.093290405E0,-8.970845032E-1,6.388265533E0,1.114910882E1
3.132626667E0,-9.779313812E0,-1.392703857E0,5.723497925E0,1.141634929E1
3.142695667E0,-1.094194611E1,-2.128872986E0,5.388644257E0,1.238126697E1
3.152763667E0,-1.273372009E1,-2.849923553E0,5.568570099E0,1.418727122E1
3.162832667E0,-1.467548218E1,-3.397484894E0,6.382577362E0,1.636001145E1
3.172900667E0,-1.579485443E1,-2.881657562E0,7.777227173E0,1.784002913E1
3.182969667E0,-1.499611542E1,-6.388714600E-1,8.956025848E0,1.747861646E1
3.193037667E0,-1.164054337E1,1.182391205E0,7.792794800E0,1.405802083E1
3.203106667E0,-9.533375244E0,7.791297913E-1,5.233117676E0,1.090310999E1
3.213174667E0,-9.288933563E0,2.011816406E-1,2.766397247E0,9.694210361E0
3.223243667E0,-1.045575714E1,4.117936707E-1,6.825805664E-1,1.048610260E1
3.233311667E0,-1.162317947E1,8.346643066E-1,-3.629951477E-1,1.165876199E1
3.243380667E0,-1.197180450E1,1.162033539E0,-6.532415771E-1,1.204579385E1
3.253448667E0,-1.162886765E1,1.365759888E0,-5.066963196E-1,1.171975273E1
3.263517667E0,-1.093356354E1,1.298250275E0,-4.556524658E-1,1.101979512E1
3.273585667E0,-1.047836014E1,1.260678406E0,-4.095483398E-1,1.056186873E1
3.283654667E0,-1.023661285E1,1.254391479E0,-4.495152283E-1,1.032297460E1
3.293722667E0,-1.031699570E1,1.460512848E0,-6.682104492E-1,1.044126444E1
3.303791667E0,-1.066412384E1,1.777703247E0,-8.702902222E-1,1.084625148E1
3.313859667E0,-1.097577576E1,2.040257263E0,-9.851014709E-1,1.120717306E1
3.323928667E0,-1.128862518E1,2.338586884E0,-1.258582764E0,1.159681326E1
3.333996667E0,-1.115869537E1,2.487826538E0,-1.423839111E0,1.152098438E1
3.344065667E0,-1.051248917E1,2.423011322E0,-1.267564087E0,1.086232623E1
3.354133667E0,-1.003767654E1,2.408192139E0,-9.202862549E-1,1.036345823E1
3.364202667E0,-9.472302246E0,2.511926422E0,-6.622229004E-1,9.822058000E0
3.374270667E0,-8.403524780E0,2.423011322E0,-3.715274048E-1,8.753756063E0
3.384339667E0,-7.290738831E0,2.249222717E0,-1.071771240E-1,7.630554532E0
3.394407667E0,-6.411317596E0,2.093845825E0,1.410067749E-1,6.746040807E0
3.404476667E0,-5.690117340E0,1.863624573E0,4.141886902E-1,6.001840065E0
3.414545667E0,-5.340444489E0,1.663341064E0,6.237528992E-1,5.628154094E0
3.424613667E0,-5.331612854E0,1.551373901E0,8.000862122E-1,5.610079728E0
3.434682667E0,-5.462740173E0,1.347348175E0,8.156538391E-1,5.685258876E0
3.444750667E0,-6.038143616E0,1.013093262E0,8.851094055E-1,6.186190665E0
3.454819667E0,-6.582112427E0,7.541317749E-1,1.002465363E0,6.700586208E0
3.464887667E0,-6.920259247E0,5.911207581E-1,1.152154083E0,7.040374338E0
3.474956667E0,-7.372019806E0,5.462141418E-1,1.515298920E0,7.545936438E0
3.485024667E0,-7.719297638E0,4.468208313E-1,1.979034576E0,7.981464949E0
3.495093667E0,-7.957751770E0,5.960604858E-1,3.013832703E0,8.530198643E0
3.505161667E0,-8.346792755E0,1.165177002E0,3.927233276E0,9.297835659E0
3.515230667E0,-8.537047119E0,1.724264374E0,4.589456177E0,9.844661962E0
3.525298667E0,-8.616082764E0,2.380649414E0,5.279521179E0,1.038160478E1
3.535367667E0,-8.613088989E0,3.012485504E0,5.801186371E0,1.081268395E1
3.545435667E0,-8.570577393E0,3.555107117E0,5.872887268E0,1.098109231E1
3.555504667E0,-8.448880463E0,3.864813080E0,5.400769043E0,1.074656538E1
3.565572667E0,-8.458161163E0,4.003873901E0,4.720882874E0,1.048132776E1
3.575641667E0,-8.571325836E0,3.816912689E0,3.793710938E0,1.012070609E1
3.585709667E0,-8.784931641E0,3.373385010E0,2.900967407E0,9.847353058E0
3.595778667E0,-8.975934448E0,2.796334991E0,2.348316650E0,9.690277586E0
3.605846667E0,-9.027577057E0,2.190395050E0,2.225272522E0,9.552319917E0
3.615915667E0,-9.054221649E0,1.689237213E0,2.342927856E0,9.503776248E0
3.625983667E0,-9.283544769E0,1.336420898E0,2.466271362E0,9.698078095E0
3.636052667E0,-9.857900391E0,1.082698517E0,2.496209106E0,1.022650948E1
3.646120667E0,-1.052655991E1,9.951306152E-1,2.292782135E0,1.081922355E1
3.656189667E0,-1.116647919E1,1.163380737E0,1.917662201E0,1.138951889E1
3.666257667E0,-1.153800659E1,1.600022736E0,1.209185486E0,1.171101184E1
3.676326667E0,-1.145567780E1,2.490221558E0,4.581971741E-1,1.173216527E1
3.686394667E0,-1.149789001E1,3.554508362E0,1.856140137E-1,1.203621440E1
3.696463667E0,-1.188303909E1,4.342170410E0,3.233276367E-1,1.265565497E1
3.706531667E0,-1.237581436E1,5.009632416E0,7.116201782E-1,1.337025061E1
3.716600667E0,-1.314177155E1,5.535937958E0,1.301094360E0,1.431941392E1
3.726668667E0,-1.406654846E1,5.953868866E0,1.999841309E0,1.540505454E1
3.736737667E0,-1.488923767E1,6.104156342E0,2.625240784E0,1.630466229E1
3.746805667E0,-1.537138504E1,5.667813721E0,2.875670013E0,1.663349237E1
3.756874667E0,-1.512529678E1,4.730163574E0,2.703827362E0,1.607668289E1
3.766942667E0,-1.388677231E1,3.986809387E0,2.258353729E0,1.462317530E1
3.777011667E0,-1.235410950E1,3.560495911E0,1.704655151E0,1.296946421E1
3.787080667E0,-1.100795883E1,3.277284851E0,1.099014587E0,1.153791951E1
3.797148667E0,-9.705517273E0,2.841840363E0,5.516029358E-1,1.012804956E1
3.807217667E0,-8.825197906E0,2.296374664E0,1.263372803E-1,9.119946041E0
3.817285667E0,-8.644523621E0,1.854194183E0,-2.037263489E-1,8.843490777E0
3.827354667E0,-9.122928772E0,1.625170441E0,-3.782633972E-1,9.274270405E0
3.837422667E0,-1.009680359E1,1.505269775E0,-3.579057312E-1,1.021466477E1
3.847491667E0,-1.119866226E1,1.416803741E0,-4.670288086E-2,1.128802686E1
3.857559667E0,-1.210906906E1,1.349743195E0,3.993695068E-1,1.219060524E1
3.867628667E0,-1.281664764E1,1.246308289E0,7.527845764E-1,1.289908624E1
3.877696667E0,-1.310105621E1,1.170266418E0,8.565188599E-1,1.318107818E1
3.887765667E0,-1.283550842E1,1.046324158E0,8.666976929E-1,1.290721642E1
3.897833667E0,-1.232042953E1,8.860075378E-1,7.975415039E-1,1.237796695E1
3.907902667E0,-1.151555328E1,7.511380005E-1,7.511380005E-1,1.156444482E1
3.917970667E0,-1.053673874E1,7.384144592E-1,6.153703308E-1,1.058049147E1
3.928039667E0,-9.845176849E0,8.262817383E-1,4.920268250E-1,9.892034124E0
3.938107667E0,-9.326355743E0,8.408015442E-1,4.303550720E-1,9.374063376E0
3.948176667E0,-8.924740906E0,8.123606873E-1,3.844006348E-1,8.969877032E0
3.958244667E0,-8.514144745E0,8.020321655E-1,2.709365845E-1,8.556127802E0
3.968313667E0,-8.139773254E0,8.111631775E-1,8.068222046E-2,8.180489225E0
3.978381667E0,-7.706424408E0,8.554710388E-1,5.852828979E-2,7.753981778E0
3.988450667E0,-7.226672058E0,9.473799133E-1,1.440005493E-1,7.289928250E0
3.998518667E0,-6.760242004E0,9.068142700E-1,2.936892700E-1,6.827110477E0
4.008587667E0,-6.347849579E0,7.262896729E-1,5.522016907E-1,6.413081761E0
4.018655667E0,-6.110443268E0,5.260061646E-1,8.605604553E-1,6.193122291E0
4.028724667E0,-6.044430542E0,3.399430847E-1,1.127904510E0,6.158154794E0
4.038792667E0,-6.070925446E0,2.553689575E-1,1.288520508E0,6.211411608E0
4.048861667E0,-6.151008911E0,1.770817566E-1,1.339414673E0,6.297642435E0
4.058929667E0,-6.222260742E0,1.344204712E-1,1.331481171E0,6.364545523E0
4.068998667E0,-6.163133698E0,1.279838562E-1,1.186133423E0,6.277540071E0
4.079066667E0,-6.224057007E0,2.270777893E-1,1.008003845E0,6.309240976E0
4.089135667E0,-6.345155182E0,4.037104797E-1,7.771838379E-1,6.405309606E0
4.099203167E0,-6.453080750E0,5.063969421E-1,5.278024292E-1,6.494402546E0
4.109272167E0,-6.579268341E0,6.176156616E-1,3.345542908E-1,6.616656828E0
4.119340167E0,-6.620432739E0,6.286926270E-1,3.140469360E-1,6.657627922E0
4.129409167E0,-6.735543365E0,5.674699402E-1,4.318519592E-1,6.773187040E0
4.139477167E0,-6.949598236E0,4.363426208E-1,7.237449646E-1,7.000794048E0
4.149546167E0,-7.199877777E0,1.963916016E-1,1.100810852E0,7.286192023E0
4.159614167E0,-7.341483307E0,-2.619552612E-1,1.545236664E0,7.506913750E0
4.169683167E0,-7.620353394E0,-7.816744995E-1,2.034718781E0,7.925962489E0
4.179751167E0,-8.261320496E0,-1.200802917E0,2.607727203E0,8.745946784E0
4.189820167E0,-8.676557007E0,-1.527872772E0,3.226540375E0,9.382302462E0
4.199888167E0,-8.882678375E0,-1.821861420E0,3.910917206E0,9.875040635E0
4.209957167E0,-8.845854950E0,-1.975442047E0,4.631369019E0,1.017846256E1
4.220026167E0,-8.782386932E0,-1.779499512E0,5.479355621E0,1.050334598E1
4.230094167E0,-8.934021606E0,-1.389111328E0,6.441704407E0,1.110143811E1
4.240162167E0,-9.525890808E0,-1.084494781E0,7.114704895E0,1.193891747E1
4.250231167E0,-1.019065842E1,-8.572673035E-1,7.301366730E0,1.256560314E1
4.260300167E0,-1.079899338E1,-5.536985779E-1,7.129224701E0,1.295186029E1
4.270368167E0,-1.140957367E1,3.891906738E-3,6.799161072E0,1.328182886E1
4.280437167E0,-1.156839340E1,7.212002563E-1,6.467001801E0,1.327290353E1
4.290505167E0,-1.121632553E1,1.336869965E0,6.427783356E0,1.299652179E1
4.300574167E0,-1.060379929E1,1.763931885E0,6.779851227E0,1.270898885E1
4.310642167E0,-1.016116974E1,1.954785004E0,7.416776733E0,1.273103028E1
4.320711167E0,-1.000534378E1,1.936822357E0,8.323740692E0,1.315837544E1
4.330779167E0,-9.897717590E0,1.984273682E0,9.293723602E0,1.372135030E1
4.340848167E0,-9.786498871E0,2.074236603E0,1.001103195E1,1.415269509E1
4.350916167E0,-1.035202286E1,1.617386627E0,9.937534790E0,1.444073802E1
4.360985167E0,-1.192884384E1,6.673123169E-1,8.805139618E0,1.484160048E1
4.371053167E0,-1.287562500E1,7.780819702E-1,7.082072754E0,1.471539620E1
4.381122167E0,-1.323113571E1,1.335073700E0,5.187462616E0,1.427428255E1
4.391190167E0,-1.261516663E1,1.043330383E0,2.897075500E0,1.298553094E1
4.401259167E0,-1.169098846E1,2.725831604E-1,5.995033264E-1,1.170952250E1
4.411327167E0,-1.110735214E1,-2.064207458E-1,-1.084045715E0,1.116203549E1
4.421396167E0,-1.025816803E1,-8.056246948E-1,-2.085163879E0,1.049890237E1
4.431464167E0,-9.439520416E0,-1.355281677E0,-1.804347839E0,9.705514167E0
4.441533167E0,-9.281299438E0,-1.650767212E0,-1.062939606E0,9.486695540E0
4.451601167E0,-9.382039948E0,-1.464554443E0,-4.025129700E-1,9.504189076E0
4.461670167E0,-9.539961548E0,-9.618997192E-1,2.164498901E-1,9.590775149E0
4.471738167E0,-1.021730301E1,-5.857319641E-1,5.737568665E-1,1.025014925E1
4.481807167E0,-1.114866623E1,-2.995271301E-1,6.502478027E-1,1.117162913E1
4.491875167E0,-1.187600372E1,8.143066406E-2,3.294648743E-1,1.188085193E1
4.501944167E0,-1.222867035E1,3.505709839E-1,6.930587769E-2,1.223389071E1
4.512012167E0,-1.255364456E1,6.468049622E-1,-1.734892273E-1,1.257149343E1
4.522081167E0,-1.257415192E1,8.434959412E-1,-4.273612976E-1,1.260965580E1
4.532149167E0,-1.218990097E1,9.300160217E-1,-6.732998657E-1,1.224385349E1
4.542218167E0,-1.179936310E1,9.698332214E-1,-7.557783508E-1,1.186325195E1
4.552286167E0,-1.128802643E1,1.031055908E0,-7.637118530E-1,1.136071621E1
4.562355167E0,-1.065499283E1,1.113684082E0,-7.735913086E-1,1.074093143E1
4.572423167E0,-1.005983047E1,1.236578522E0,-8.343649292E-1,1.016983188E1
4.582492167E0,-9.416168976E0,1.451681213E0,-8.216413879E-1,9.562777374E0
4.592560167E0,-8.640332336E0,1.543590088E0,-6.427633667E-1,8.800633954E0
4.602629167E0,-7.856262817E0,1.470541992E0,-1.784289551E-1,7.994697999E0
4.612697167E0,-7.028184814E0,1.345252533E0,3.742218018E-1,7.165551488E0
4.622766167E0,-6.327641602E0,1.197958832E0,8.292755127E-1,6.493215804E0
4.632834167E0,-5.965394897E0,1.188229065E0,1.098415833E0,6.180966100E0
4.642903167E0,-5.792205048E0,1.280886383E0,1.212478638E0,6.054784363E0
4.652971167E0,-5.747597809E0,1.337019653E0,1.329984283E0,6.049079295E0
4.663040167E0,-5.870791626E0,1.374142456E0,1.450633392E0,6.201515867E0
4.673108167E0,-6.126759338E0,1.374741211E0,1.648970947E0,6.492010364E0
4.683177167E0,-6.556066589E0,1.379381561E0,2.203118591E0,7.052548060E0
4.693245167E0,-6.727310486E0,1.443598022E0,2.892584839E0,7.463761027E0
4.703314167E0,-6.929390259E0,1.480870514E0,3.066523132E0,7.720944952E0
4.713382167E0,-7.288643188E0,1.523681488E0,3.188369751E0,8.100100399E0
4.723451167E0,-7.664062500E0,1.657203827E0,3.416195984E0,8.553044693E0
4.733519167E0,-7.929011536E0,1.812431030E0,3.517235870E0,8.861437713E0
4.743588167E0,-8.089477844E0,1.991608429E0,3.529959412E0,9.048025717E0
4.753656167E0,-8.098159790E0,2.267784119E0,3.418291626E0,9.077871691E0
4.763725167E0,-8.071215820E0,2.506837006E0,3.241209869E0,9.051751102E0
4.773793167E0,-8.074808350E0,2.673590240E0,3.015928345E0,9.024768054E0
4.783862167E0,-8.073760529E0,2.730921021E0,2.801574097E0,8.971753235E0
4.793930167E0,-8.207881622E0,2.602338409E0,2.717598724E0,9.029220827E0
4.803999167E0,-8.480614471E0,2.299667816E0,2.635120239E0,9.173502742E0
4.814067167E0,-8.925189972E0,1.902543640E0,2.598147125E0,9.488364286E0
4.824136167E0,-9.390721893E0,1.571731567E0,2.589614868E0,9.867223670E0
4.834204167E0,-9.930499420E0,1.435365143E0,2.493963776E0,1.033900126E1
4.844273167E0,-1.050829788E1,1.509011993E0,2.284698944E0,1.085915700E1
4.854341167E0,-1.115210907E1,1.863624573E0,1.882036285E0,1.146231625E1
4.864410167E0,-1.172002808E1,2.425106964E0,1.440753937E0,1.205470754E1
4.874478167E0,-1.218840408E1,2.977907410E0,1.145567780E0,1.259910521E1
4.884547167E0,-1.241593094E1,3.619772644E0,1.047222290E0,1.297515971E1
4.894615167E0,-1.242640915E1,4.218377838E0,1.242865448E0,1.318161866E1
4.904684167E0,-1.255050110E1,4.569697266E0,1.642085266E0,1.345710426E1
4.914752167E0,-1.283041901E1,4.855003967E0,2.036215668E0,1.386855759E1
4.924821167E0,-1.332064957E1,5.151537323E0,2.418370972E0,1.448539126E1
4.934889167E0,-1.386626495E1,5.505700836E0,2.632425842E0,1.514977595E1
4.944958167E0,-1.414393753E1,5.635181580E0,2.570454712E0,1.544064370E1
4.955026167E0,-1.402149216E1,5.157075806E0,2.484533386E0,1.514498529E1
4.965095167E0,-1.358035950E1,4.415068817E0,2.641706543E0,1.452231422E1
4.975164167E0,-1.300660263E1,3.883374481E0,2.527943115E0,1.380734608E1
4.985232167E0,-1.194486053E1,3.310216370E0,1.646725616E0,1.250395661E1
4.995301167E0,-1.089958420E1,2.569257202E0,4.608915710E-1,1.120778476E1
5.005369167E0,-1.060649368E1,2.032772827E0,-4.546046448E-1,1.080909520E1
5.015438167E0,-1.075094330E1,1.780247955E0,-1.037642212E0,1.094663263E1
5.025506167E0,-1.087144272E1,1.521286469E0,-1.191971283E0,1.104189181E1
5.035575167E0,-1.091844498E1,1.160386963E0,-8.982820129E-1,1.101661696E1
5.045643167E0,-1.110046646E1,8.307723999E-1,-5.281018066E-1,1.114403114E1
5.055712167E0,-1.178259796E1,5.939648438E-1,-1.667532349E-1,1.179873788E1
5.065780167E0,-1.240979370E1,4.113446045E-1,1.395098877E-1,1.241739293E1
5.075849167E0,-1.267519180E1,3.083587646E-1,2.911445618E-1,1.268228440E1
5.085917167E0,-1.267144958E1,2.469863892E-2,3.363505554E-1,1.267593690E1
5.095986917E0,-1.240515335E1,-2.523751831E-1,3.689826965E-1,1.241320551E1
5.106054917E0,-1.184397034E1,-4.797523499E-1,3.317102051E-1,1.185832312E1
5.116123917E0,-1.126662094E1,-6.322851562E-1,2.972817993E-1,1.128826419E1
5.126191917E0,-1.068178711E1,-8.391549683E-1,3.987707520E-1,1.072211616E1
5.136260917E0,-1.004995102E1,-1.008303223E0,3.535647583E-1,1.010659185E1
5.146328917E0,-9.379644928E0,-1.154998169E0,2.498304749E-1,9.453791568E0
5.156397917E0,-8.624764709E0,-1.243913269E0,1.112187195E-1,8.714714919E0
5.166465917E0,-7.822433167E0,-1.356928253E0,-1.014889526E-1,7.939900184E0
5.176534917E0,-7.261998596E0,-1.387315063E0,-1.908531189E-1,7.395788775E0
5.186602917E0,-6.794969788E0,-1.352587280E0,-7.469467163E-2,6.928685738E0
5.196671917E0,-6.455026703E0,-1.203048248E0,9.520202637E-2,6.566868222E0
5.206739917E0,-6.178551636E0,-1.003363495E0,2.131567383E-1,6.263120182E0
5.216808917E0,-5.882317657E0,-8.541238403E-1,2.583627319E-1,5.949616783E0
5.226876917E0,-5.642666016E0,-8.631051636E-1,3.763174438E-1,5.720685720E0
5.236945917E0,-5.548811188E0,-8.931925964E-1,5.569917297E-1,5.647772871E0
5.247013917E0,-5.572012939E0,-8.869056702E-1,6.628216553E-1,5.680956118E0
5.257082917E0,-5.655838623E0,-7.608677673E-1,7.194039917E-1,5.751953789E0
5.267150917E0,-5.834716644E0,-5.454656982E-1,7.095245361E-1,5.902954871E0
5.277219917E0,-6.018684082E0,-3.620970154E-1,6.990463257E-1,6.069953714E0
5.287287917E0,-6.241869965E0,-1.670526123E-1,7.271878052E-1,6.286306494E0
5.297356917E0,-6.584208069E0,9.954299927E-2,7.638615417E-1,6.629116771E0
5.307424917E0,-6.764732666E0,3.629951477E-1,8.634045410E-1,6.829263571E0
5.317493917E0,-6.956034851E0,6.387217712E-1,1.198856964E0,7.087428615E0
5.327561917E0,-7.382647705E0,6.635700989E-1,1.803449707E0,7.628646227E0
5.337630917E0,-7.471862183E0,7.060816956E-1,2.368674316E0,7.870063142E0
5.347698917E0,-7.426805878E0,5.560935974E-1,2.786605225E0,7.951845969E0
5.357767917E0,-7.486531677E0,4.064048767E-1,3.194656677E0,8.149794645E0
5.367835917E0,-7.366780701E0,6.242019653E-2,3.559597778E0,8.181936844E0
5.377904917E0,-7.252568207E0,-6.122268677E-1,3.925437012E0,8.269439102E0
5.387972917E0,-7.288194122E0,-1.201251984E0,4.317621460E0,8.555853842E0
5.398041917E0,-7.413782959E0,-1.566642151E0,4.727768555E0,8.931424349E0
5.408109917E0,-7.520960083E0,-1.771566010E0,5.185965729E0,9.305779239E0
5.418178917E0,-7.683222656E0,-1.825753326E0,5.655988312E0,9.713675379E0
5.428246917E0,-8.224646759E0,-1.733694763E0,6.181096344E0,1.043343011E1
5.438315917E0,-9.266480255E0,-1.643582153E0,6.413263550E0,1.138854547E1
5.448383917E0,-1.040366547E1,-1.498833160E0,6.033353577E0,1.211957554E1
5.458452917E0,-1.104672821E1,-1.179397430E0,5.368136902E0,1.233847950E1
5.468520917E0,-1.158321259E1,-7.620652771E-1,4.750371552E0,1.254263079E1
5.478589917E0,-1.213271988E1,-1.688488770E-1,4.539160767E0,1.295512957E1
5.488657917E0,-1.253867569E1,4.712200928E-1,4.979994049E0,1.349965841E1
5.498726917E0,-1.256412277E1,9.418414307E-1,5.852529602E0,1.389231259E1
5.508794917E0,-1.199590439E1,1.248703308E0,6.895111542E0,1.389257158E1
5.518863917E0,-1.124416763E1,1.472338257E0,7.906109161E0,1.382409664E1
5.528931917E0,-1.097996704E1,1.640289001E0,8.815019073E0,1.417585220E1
5.539000917E0,-1.122889938E1,1.490600281E0,9.442813568E0,1.474709458E1
5.549068917E0,-1.172391998E1,6.590794373E-1,9.354197845E0,1.501285125E1
5.559137917E0,-1.270468048E1,-2.285746765E-1,8.697812805E0,1.539847720E1
5.569205917E0,-1.345417191E1,-2.665956116E-1,7.663763123E0,1.548609312E1
5.579274917E0,-1.334968918E1,-1.179547119E-1,6.255791016E0,1.474323695E1
5.589342917E0,-1.274674301E1,-4.056564331E-1,4.850213928E0,1.364436110E1
5.599411917E0,-1.163126266E1,-1.302142181E0,3.210823059E0,1.213635984E1
5.609479917E0,-1.065140030E1,-2.183659058E0,1.549877014E0,1.098284180E1
5.619548917E0,-1.006926086E1,-2.630479889E0,2.875520325E-1,1.041115387E1
5.629616917E0,-9.293873291E0,-2.843936005E0,-4.070036316E-1,9.727780050E0
5.639685917E0,-8.888366547E0,-2.898273010E0,-1.019380188E-1,9.349515371E0
5.649753917E0,-8.863069153E0,-2.783162384E0,9.045689392E-1,9.333714835E0
5.659822917E0,-8.942104797E0,-2.302511902E0,1.738035736E0,9.395933561E0
5.669890917E0,-9.181606750E0,-1.625769196E0,2.072739716E0,9.552030042E0
5.679959917E0,-9.717941437E0,-1.192570038E0,2.053878937E0,1.000395061E1
5.690027917E0,-1.039258850E1,-9.386979675E-1,1.755249939E0,1.058149101E1
5.700096917E0,-1.134490814E1,-5.933660889E-1,1.327439575E0,1.143770606E1
5.710164917E0,-1.252295837E1,-1.528321838E-1,7.961943054E-1,1.254917406E1
5.720233917E0,-1.309686493E1,2.110610962E-1,8.547225952E-2,1.309884435E1
5.730301917E0,-1.320134766E1,4.511618042E-1,-4.730163574E-1,1.321752138E1
5.740370917E0,-1.298414932E1,6.258485413E-1,-8.497828674E-1,1.302697014E1
5.750438917E0,-1.222477844E1,7.544311523E-1,-1.160087585E0,1.230285241E1
5.760507917E0,-1.138173157E1,1.142424316E0,-1.341510315E0,1.151731725E1
5.770575917E0,-1.064152084E1,1.546583862E0,-1.694925385E0,1.088607641E1
5.780644917E0,-9.525441742E0,1.633852386E0,-1.842069397E0,9.838533105E0
5.790712917E0,-8.148155823E0,1.695075073E0,-1.854343872E0,8.526682474E0
5.800781917E0,-6.891818390E0,1.847458191E0,-1.623823242E0,7.317585969E0
5.810849917E0,-5.898484039E0,1.980232086E0,-1.189276886E0,6.334651734E0
5.820918917E0,-5.153333588E0,2.064357147E0,-7.191046143E-1,5.597814658E0
5.830986917E0,-4.539310455E0,2.068099365E0,-1.989363098E-1,4.992188904E0
5.841055917E0,-4.093387756E0,2.089205475E0,2.224374390E-1,4.601095658E0
5.851123917E0,-4.123774567E0,1.944306793E0,7.373666382E-1,4.618393134E0
5.861192917E0,-4.539759521E0,1.899100800E0,1.151405640E0,5.053883191E0
5.871260917E0,-5.121749268E0,1.743424530E0,1.361718292E0,5.579078899E0
5.881329917E0,-5.699098663E0,1.553170166E0,1.421144714E0,6.075501250E0
5.891397917E0,-6.410120087E0,1.379830627E0,1.461860046E0,6.717931741E0
5.901466917E0,-7.132966919E0,1.164428558E0,1.657503204E0,7.415013675E0
5.911534917E0,-7.605833588E0,9.864486694E-1,1.987417145E0,7.922853807E0
5.921603917E0,-7.998616791E0,1.001118164E0,2.375410309E0,8.403730260E0
5.931671917E0,-8.199948120E0,1.118623810E0,2.753074951E0,8.721805437E0
5.941740917E0,-8.081394653E0,1.147513733E0,3.183729401E0,8.761384606E0
5.951808917E0,-8.022417297E0,1.248852997E0,3.292852478E0,8.761374923E0
5.961877917E0,-8.033194885E0,1.605112152E0,3.221001892E0,8.802468874E0
5.971945917E0,-8.160879364E0,2.095193024E0,3.179089050E0,9.005353574E0
5.982014917E0,-8.406967621E0,2.576591949E0,3.062182159E0,9.310901687E0
5.992082917E0,-8.711434479E0,2.816692657E0,2.953208771E0,9.619994296E0
6.002151917E0,-9.084758148E0,2.721041565E0,2.865042114E0,9.906834213E0
6.012219917E0,-9.551337891E0,2.355950775E0,2.811902618E0,1.023158619E1
6.022288917E0,-1.006087830E1,1.996398468E0,2.714155884E0,1.061006697E1
6.032356917E0,-1.062280975E1,1.818717957E0,2.568508759E0,1.107921745E1
6.042425917E0,-1.138277939E1,1.928439789E0,2.440824280E0,1.180017668E1
6.052493917E0,-1.211999634E1,2.475701752E0,2.218536530E0,1.256762964E1
6.062562917E0,-1.237416779E1,3.177292786E0,1.710942078E0,1.288962919E1
6.072630917E0,-1.240500366E1,3.917653198E0,1.181942139E0,1.306250779E1
6.082699917E0,-1.254990234E1,4.559219055E0,9.839039612E-1,1.338859941E1
6.092767917E0,-1.270932083E1,4.918771362E0,1.147513733E0,1.367618132E1
6.102836292E0,-1.265782791E1,4.998405762E0,1.546583862E0,1.369659042E1
6.112904292E0,-1.251427643E1,4.755610657E0,2.227817230E0,1.357151859E1
6.122973292E0,-1.216520233E1,4.409230957E0,3.101101227E0,1.330602473E1
6.133041292E0,-1.197554672E1,4.244723053E0,4.002826080E0,1.332118650E1
6.143110292E0,-1.212718140E1,4.459226990E0,4.413721619E0,1.365408995E1
6.153178292E0,-1.253298752E1,4.714595947E0,3.741918640E0,1.390342210E1
6.163247292E0,-1.284643570E1,4.568200378E0,2.600841522E0,1.388033651E1
6.173315292E0,-1.258702515E1,4.091292114E0,1.710642700E0,1.334534270E1
6.183384292E0,-1.202554276E1,3.588487701E0,1.402733002E0,1.262769110E1
6.193452292E0,-1.141780655E1,2.930605774E0,1.288071442E0,1.185807255E1
6.203521292E0,-1.028526169E1,2.167941742E0,1.131197662E0,1.057195287E1
6.213589292E0,-9.092991028E0,1.507664795E0,9.014254761E-1,9.261107215E0
6.223658292E0,-8.280181274E0,1.120869141E0,6.644682312E-1,8.382080147E0
6.233726292E0,-8.117769012E0,1.024918671E0,3.826043701E-1,8.191154871E0
6.243795292E0,-8.777147827E0,1.017733612E0,3.233276367E-2,8.836014435E0
6.253863292E0,-1.034708313E1,1.182241516E0,-2.725831604E-1,1.041797129E1
6.263931292E0,-1.200713104E1,1.359622650E0,-3.137475586E-1,1.208793643E1
6.274000292E0,-1.340312805E1,1.299148407E0,-1.980381775E-1,1.346739943E1
6.284069292E0,-1.437086563E1,1.200952606E0,-6.152206421E-2,1.442109050E1
6.294137292E0,-1.471320374E1,9.360035706E-1,1.005908203E-1,1.474328950E1
6.304205292E0,-1.442699890E1,6.086343384E-1,1.202000427E-1,1.444033175E1
6.314274292E0,-1.348141525E1,3.312611389E-1,1.534309387E-1,1.348635726E1
6.324342292E0,-1.215502350E1,3.008743286E-2,2.079176331E-1,1.215683887E1
6.334411292E0,-1.097188385E1,-2.653981018E-1,2.514770508E-1,1.097797395E1
6.344479292E0,-1.002480331E1,-6.135740662E-1,3.631448364E-1,1.005012581E1
6.354548292E0,-9.235794067E0,-9.125024414E-1,4.495152283E-1,9.291642304E0
6.364616292E0,-8.574020233E0,-1.134341125E0,3.829037476E-1,8.657203245E0
6.374685292E0,-7.981851654E0,-1.256038055E0,2.463876343E-1,8.083829185E0
6.384753292E0,-7.335645447E0,-1.532513123E0,2.136058044E-1,7.497060626E0
6.394822292E0,-6.955885162E0,-1.626667328E0,1.381626892E-1,7.144891456E0
6.404890292E0,-6.594985657E0,-1.720821533E0,1.401086426E-1,6.817234996E0
6.414959292E0,-6.190975800E0,-1.845961304E0,1.957928467E-1,6.463287811E0
6.425027292E0,-5.794001312E0,-1.864822083E0,2.803669739E-1,6.093161597E0
6.435096292E0,-5.572761383E0,-1.724563751E0,4.044589233E-1,5.847510289E0
6.445164292E0,-5.577102356E0,-1.524729309E0,5.758525085E-1,5.810376603E0
6.455233292E0,-5.588927765E0,-1.374441833E0,8.728349304E-1,5.821258002E0
6.465301292E0,-5.567073212E0,-1.255738678E0,1.132544861E0,5.818233549E0
6.475370292E0,-5.681136017E0,-1.123413849E0,1.280886383E0,5.931107405E0
6.485438292E0,-5.841752014E0,-9.789642334E-1,1.343306580E0,6.073624135E0
6.495507292E0,-5.997727661E0,-8.348139954E-1,1.388961639E0,6.212798559E0
6.505575292E0,-6.186036072E0,-6.881190491E-1,1.388362885E0,6.377154664E0
6.515644292E0,-6.367907867E0,-5.257067871E-1,1.421144714E0,6.545706267E0
6.525712292E0,-6.590345306E0,-3.249742126E-1,1.505868530E0,6.768005580E0
6.535781292E0,-6.958280182E0,-7.948471069E-2,1.691183167E0,7.161290485E0
6.545849292E0,-7.319329376E0,1.761836243E-1,1.876946869E0,7.558210948E0
6.555918292E0,-7.660919037E0,3.785627747E-1,2.105371857E0,7.953966364E0
6.565986292E0,-7.935448151E0,4.695735168E-1,2.465223541E0,8.322809847E0
6.576055292E0,-7.970774689E0,5.019062805E-1,2.919977875E0,8.503612752E0
6.586123292E0,-8.013286285E0,3.903881836E-1,3.313210144E0,8.680006998E0
6.596192292E0,-8.281528473E0,1.667532349E-1,3.856280823E0,9.136871580E0
6.606260292E0,-8.527167664E0,-4.041595459E-3,4.462669830E0,9.624345521E0
6.616329292E0,-8.778644714E0,-2.320175171E-2,4.956193542E0,1.008112076E1
6.626397292E0,-9.107959900E0,1.989363098E-1,5.334756317E0,1.055718401E1
6.636466292E0,-9.364676056E0,6.053411865E-1,5.754483490E0,1.100807321E1
6.646534292E0,-9.607022095E0,1.108594666E0,6.397396545E0,1.159528086E1
6.656603292E0,-9.844578094E0,1.776954803E0,7.289241943E0,1.237765464E1
6.666671292E0,-1.029244675E1,2.063908081E0,8.251890106E0,1.335244798E1
6.676740292E0,-1.093985046E1,1.673669586E0,8.692124634E0,1.407247415E1
6.686808292E0,-1.136017639E1,8.048762512E-1,8.450976105E0,1.418169350E1
6.696877292E0,-1.132065857E1,1.145118713E-1,7.751181335E0,1.372046776E1
6.706945292E0,-1.124985580E1,-2.743794250E-1,6.943011932E0,1.322270602E1
6.717014292E0,-1.128697861E1,-4.317022705E-1,6.235433350E0,1.290204953E1
6.727082292E0,-1.127694946E1,-4.068539429E-1,5.620362396E0,1.260649011E1
6.737151292E0,-1.141915375E1,-5.117857361E-1,5.130730591E0,1.252930139E1
6.747219292E0,-1.182016983E1,-8.809181213E-1,4.840484161E0,1.280323078E1
6.757288292E0,-1.267534149E1,-1.524579620E0,4.965324554E0,1.369828722E1
6.767356292E0,-1.409843216E1,-2.009571075E0,5.419180756E0,1.523718102E1
6.777425292E0,-1.535282364E1,-2.387984161E0,5.846092987E0,1.660085737E1
6.787493292E0,-1.458372299E1,-2.381996613E0,5.842949524E0,1.589021533E1
6.797562292E0,-1.239377701E1,-2.006427612E0,5.062472534E0,1.353735899E1
6.807630292E0,-1.087518494E1,-1.785337372E0,3.868405609E0,1.167996742E1
6.817699292E0,-9.850865021E0,-1.746867371E0,2.543061676E0,1.032270555E1
6.827767292E0,-8.732241211E0,-1.564546509E0,1.432970123E0,8.986280973E0
6.837836292E0,-8.155789948E0,-1.176852722E0,6.439608765E-1,8.265384299E0
6.847904292E0,-8.194559326E0,-6.655160522E-1,3.757186890E-2,8.221625497E0
6.857973292E0,-8.584049377E0,-2.146536255E-1,-3.269201660E-1,8.592953898E0
6.868041292E0,-9.292975159E0,1.106199646E-1,-5.364843750E-1,9.309105197E0
6.878110292E0,-1.013856674E1,2.561174011E-1,-7.517367554E-1,1.016962339E1
6.888178292E0,-1.093446167E1,3.938310242E-1,-9.255253601E-1,1.098062622E1
6.898247292E0,-1.181627792E1,5.393284607E-1,-9.722282410E-1,1.186846776E1
6.908315292E0,-1.267279678E1,8.181985474E-1,-8.918453979E-1,1.273046014E1
6.918384292E0,-1.325942688E1,1.163081360E0,-8.792715454E-1,1.333935073E1
6.928452292E0,-1.328113174E1,1.357676697E0,-8.524772644E-1,1.337753579E1
6.938521292E0,-1.276470566E1,1.510658569E0,-8.306227112E-1,1.288059525E1
6.948589292E0,-1.207104813E1,1.672921143E0,-7.542814636E-1,1.220974236E1
6.958658292E0,-1.149594406E1,1.827848969E0,-5.387297058E-1,1.165281045E1
6.968726292E0,-1.100107315E1,2.046693878E0,-6.424639893E-1,1.120827044E1
6.978795292E0,-9.987381134E0,2.245031433E0,-6.882687378E-1,1.025971062E1
6.988863292E0,-8.597671051E0,2.307301941E0,-5.528004456E-1,8.919034594E0
6.998931292E0,-7.235204315E0,2.294279022E0,-3.820056152E-1,7.599856973E0
7.009000292E0,-6.326743469E0,2.356699219E0,-1.037342834E-1,6.752220000E0
7.019068292E0,-5.505401459E0,2.403252411E0,1.239422607E-1,6.008363259E0
7.029137292E0,-4.862189026E0,2.380649414E0,2.627037048E-1,5.420091050E0
7.039205292E0,-4.627327423E0,2.351011047E0,4.016148376E-1,5.205833891E0
7.049274292E0,-4.642595673E0,2.366728363E0,5.656736755E-1,5.241668096E0
7.059342292E0,-4.745132446E0,2.344125366E0,8.557704163E-1,5.361301024E0
7.069411292E0,-4.706213379E0,2.185455322E0,1.534459076E0,5.411027997E0
7.079479292E0,-5.258265381E0,2.034868469E0,1.841470642E0,5.931362291E0
7.089548292E0,-6.012696533E0,1.841470642E0,2.046095123E0,6.612869194E0
7.099616667E0,-6.508465576E0,1.609902191E0,2.591860199E0,7.188160301E0
7.109685667E0,-7.178023224E0,1.407972107E0,3.368295593E0,8.053062651E0
7.119753667E0,-7.974067841E0,1.281934204E0,4.146227875E0,9.078563698E0
7.129822667E0,-8.151448975E0,1.162332916E0,4.388424225E0,9.330348620E0
7.139890667E0,-8.095914459E0,1.186133423E0,4.258494415E0,9.224181162E0
7.149959667E0,-8.112978973E0,1.339115295E0,3.873944092E0,9.089614977E0
7.160027667E0,-7.996221771E0,1.591789856E0,3.455713806E0,8.855242259E0
7.170096667E0,-7.890990601E0,1.859732666E0,2.995570679E0,8.642903559E0
7.180164667E0,-8.060587921E0,1.964814148E0,2.656076660E0,8.711389986E0
7.190233667E0,-8.327183533E0,1.925895081E0,2.394720154E0,8.876133283E0
7.200301667E0,-8.511300659E0,1.818119202E0,2.304308167E0,9.003201234E0
7.210370667E0,-8.767268372E0,1.600771179E0,2.297871552E0,9.203677348E0
7.220438667E0,-9.113947449E0,1.500330048E0,2.189646606E0,9.492606629E0
7.230507667E0,-9.388177185E0,1.800455933E0,1.806144104E0,9.728394983E0
7.240575667E0,-9.530082092E0,2.394420776E0,1.218316498E0,9.901515572E0
7.250644667E0,-9.669741669E0,2.604284363E0,7.352709961E-1,1.004125612E1
7.260712667E0,-9.890382843E0,2.594853973E0,5.282514954E-1,1.023874941E1
7.270781667E0,-1.045171555E1,2.625240784E0,5.050497437E-1,1.078820292E1
7.280849667E0,-1.135838013E1,2.977158966E0,6.650669861E-1,1.176089234E1
7.290918667E0,-1.233075806E1,3.696113892E0,1.062640228E0,1.291658068E1
7.300986667E0,-1.308743454E1,4.543950806E0,1.861379242E0,1.397831050E1
7.311055667E0,-1.348695374E1,5.186863861E0,2.771187286E0,1.471329184E1
7.321123667E0,-1.398796188E1,5.535039825E0,3.655248871E0,1.548097503E1
7.331192667E0,-1.446921112E1,5.260959778E0,4.096830597E0,1.593172273E1
7.341260667E0,-1.437745193E1,4.375700684E0,3.972888336E0,1.554482944E1
7.351329667E0,-1.385533768E1,3.331621857E0,3.411855011E0,1.465301474E1
7.361397667E0,-1.322305252E1,2.257156219E0,2.969375153E0,1.373903421E1
7.371466667E0,-1.251712051E1,1.497785339E0,2.555336151E0,1.286279168E1
7.381534667E0,-1.211086533E1,1.351389771E0,1.861229553E0,1.232734719E1
7.391603667E0,-1.189935516E1,1.581161957E0,1.097068634E0,1.205397387E1
7.401671667E0,-1.130898285E1,1.689087524E0,6.072871399E-1,1.145054180E1
7.411740667E0,-1.048988617E1,1.632505188E0,1.679507446E-1,1.061748522E1
7.421808667E0,-9.571096802E0,1.464404755E0,-3.086581421E-1,9.687396199E0
7.431876667E0,-9.359287262E0,1.252445526E0,-6.204597473E-1,9.463078154E0
7.441945667E0,-9.760153656E0,1.170865173E0,-6.944059753E-1,9.854629587E0
7.452013667E0,-1.041773621E1,1.132694550E0,-5.343887329E-1,1.049274968E1
7.462082667E0,-1.116498230E1,9.750723267E-1,-1.495390320E-1,1.120847705E1
7.472150667E0,-1.206356369E1,8.235873413E-1,8.427474976E-2,1.209193811E1
7.482219667E0,-1.269090912E1,6.459068298E-1,1.793270874E-1,1.270860056E1
7.492287667E0,-1.274659332E1,3.659889221E-1,2.347119141E-1,1.275400639E1
7.502356667E0,-1.231474136E1,8.711883545E-2,2.664459229E-1,1.231793156E1
7.512424667E0,-1.166883453E1,-1.502874756E-1,2.103126526E-1,1.167169727E1
7.522493667E0,-1.102861588E1,-2.908451843E-1,1.098715210E-1,1.103299736E1
7.532561667E0,-1.026205994E1,-4.778063965E-1,6.915618896E-2,1.027341013E1
7.542630667E0,-9.746082916E0,-5.998027039E-1,9.729766846E-3,9.764527135E0
7.552698667E0,-9.265582123E0,-6.001020813E-1,1.552272034E-1,9.286292590E0
7.562767667E0,-8.694968719E0,-4.409829712E-1,3.421884155E-1,8.712866344E0
7.572835667E0,-8.088280334E0,-3.305126953E-1,5.930667114E-1,8.116726282E0
7.582904667E0,-7.563771057E0,-2.803669739E-1,9.635462952E-1,7.630049784E0
7.592972667E0,-7.053182831E0,-3.007246399E-1,1.438658295E0,7.204690211E0
7.603041667E0,-6.579567719E0,-3.362008667E-1,1.959275665E0,6.873318232E0
7.613109667E0,-6.220464478E0,-2.853067017E-1,2.425855408E0,6.682840166E0
7.623178667E0,-5.925428009E0,-2.896476746E-1,2.672392731E0,6.506633213E0
7.633246667E0,-5.697003021E0,-2.941383362E-1,2.725232849E0,6.322124237E0
7.643315667E0,-5.541027374E0,-2.549198914E-1,2.766846313E0,6.198661713E0
7.653383667E0,-5.504353638E0,-1.978884888E-1,2.735112305E0,6.149626667E0
7.663452667E0,-5.451064453E0,-1.649569702E-1,2.724484406E0,6.096238984E0
7.673520667E0,-5.566025391E0,-5.448669434E-2,2.575544128E0,6.133272781E0
7.683589667E0,-5.676944733E0,4.909790039E-2,2.402803345E0,6.164704049E0
7.693657667E0,-5.858966217E0,1.248403931E-1,2.210752716E0,6.263425407E0
7.703726667E0,-6.123915253E0,2.095642090E-1,2.026635590E0,6.453952819E0
7.713794667E0,-6.431675262E0,2.564167786E-1,1.835782471E0,6.693451541E0
7.723863667E0,-6.701114960E0,2.448907471E-1,1.682501221E0,6.913445128E0
7.733931667E0,-6.967560883E0,2.513273621E-1,1.621727600E0,7.158216992E0
7.744000667E0,-7.091802521E0,6.735992432E-2,1.844913483E0,7.328158439E0
7.754068667E0,-7.164251862E0,-8.876541138E-2,2.227817230E0,7.503169573E0
7.764137667E0,-7.352859650E0,-1.712438965E-1,2.570604401E0,7.791140897E0
7.774205667E0,-7.542664948E0,-1.871109009E-1,2.891686707E0,8.080139665E0
7.784273667E0,-7.747289429E0,-1.910028076E-1,3.200494537E0,8.384517926E0
7.794342667E0,-8.059689789E0,-1.167572021E-2,3.501668243E0,8.787514797E0
7.804410667E0,-8.417894897E0,2.469863892E-1,4.030518494E0,9.336328835E0
7.814479667E0,-8.896898804E0,5.774990845E-1,4.805307312E0,1.012814356E1
7.824547667E0,-9.589957581E0,7.116201782E-1,5.704038391E0,1.118077563E1
7.834616667E0,-1.043165726E1,6.230044556E-1,6.461762695E0,1.228665881E1
7.844684667E0,-1.132290390E1,2.936892700E-1,6.571484528E0,1.309499198E1
7.854753667E0,-1.216415451E1,-6.391708374E-2,6.093827820E0,1.360534740E1
7.864821667E0,-1.249616409E1,4.236190796E-2,6.032156067E0,1.387597991E1
7.874890667E0,-1.224049576E1,4.174818420E-1,6.643185425E0,1.393326739E1
7.884958667E0,-1.142843445E1,6.923103333E-1,7.352709961E0,1.360701111E1
7.895027667E0,-1.091634933E1,7.497908020E-1,7.740553436E0,1.340317263E1
7.905095667E0,-1.088955505E1,5.513035583E-1,7.804620209E0,1.340889412E1
7.915164667E0,-1.099748062E1,-5.822891235E-2,7.423512726E0,1.326862886E1
7.925232667E0,-1.161225220E1,-1.294807434E0,6.600224762E0,1.341953406E1
7.935301667E0,-1.264196091E1,-2.160457306E0,5.745651855E0,1.405344323E1
7.945369667E0,-1.389096359E1,-2.088157654E0,4.891078949E0,1.487420335E1
7.955438667E0,-1.389410706E1,-1.524130554E0,4.244124298E0,1.460759309E1
7.965506667E0,-1.325403809E1,-1.136736145E0,3.743265839E0,1.381932465E1
7.975575667E0,-1.288281006E1,-8.515791321E-1,3.519481201E0,1.338203011E1
7.985643667E0,-1.218526062E1,-7.905061340E-1,3.434158630E0,1.268459388E1
7.995712667E0,-1.099673218E1,-1.057700500E0,3.121009827E0,1.147987593E1
8.005780667E0,-9.724677429E0,-1.478325806E0,2.272125092E0,1.009541236E1
8.015849667E0,-8.860674133E0,-1.815424805E0,1.369651794E0,9.147855451E0
8.025917667E0,-8.473279724E0,-1.877096558E0,6.373745728E-1,8.702080620E0
8.035986667E0,-8.660540314E0,-1.619332581E0,3.411405945E-1,8.817231620E0
8.046054667E0,-9.044491882E0,-9.758207703E-1,5.459147644E-1,9.113346395E0
8.056123667E0,-9.376052399E0,-4.553530884E-1,7.481442261E-1,9.416869161E0
8.066191667E0,-9.701176300E0,-3.376977539E-1,7.767347717E-1,9.738078778E0
8.076260667E0,-1.038076309E1,-2.275268555E-1,5.637277222E-1,1.039854797E1
8.086328667E0,-1.111678253E1,1.380130005E-1,1.835183716E-1,1.111915376E1
8.096397667E0,-1.172227341E1,6.947053528E-1,-2.406994629E-1,1.174530739E1
8.106465417E0,-1.230980164E1,1.183888092E0,-6.637197876E-1,1.238439870E1
8.116533417E0,-1.224543549E1,1.552122345E0,-1.024619293E0,1.238586366E1
8.126602417E0,-1.179876434E1,1.840572510E0,-1.289718018E0,1.201090837E1
8.136670417E0,-1.117216736E1,1.925595703E0,-1.354832611E0,1.141756601E1
8.146739417E0,-1.048883835E1,2.047891388E0,-1.278940430E0,1.076314441E1
8.156807417E0,-9.738598480E0,2.085313568E0,-1.076261902E0,1.001734360E1
8.166876417E0,-8.906179504E0,2.184108124E0,-7.634124756E-1,9.201802012E0
8.176944417E0,-7.956554260E0,2.240989838E0,-4.909790039E-1,8.280691489E0
8.187013417E0,-7.085365906E0,2.201022949E0,-1.133143616E-1,7.420225885E0
8.197081417E0,-6.312223663E0,2.100581818E0,2.405497742E-1,6.656911877E0
8.207150417E0,-5.860612793E0,1.968855743E0,5.836363220E-1,6.209976377E0
8.217218417E0,-5.632038116E0,1.852397919E0,9.648934937E-1,6.006850327E0
8.227287417E0,-5.517526245E0,1.688039703E0,1.247056732E0,5.903196117E0
8.237355417E0,-5.462291107E0,1.524280243E0,1.490001526E0,5.863459640E0
8.247424417E0,-5.465584259E0,1.299597473E0,2.215991821E0,6.039220532E0
8.257492417E0,-5.842051392E0,1.104852448E0,2.593806152E0,6.486762964E0
8.267561417E0,-6.353238373E0,7.979905701E-1,2.997516632E0,7.070044747E0
8.277629417E0,-6.720125427E0,6.099815369E-1,3.610791321E0,7.653102456E0
8.287698417E0,-7.030729523E0,6.114784241E-1,4.095932465E0,8.159762634E0
8.297766417E0,-7.261100464E0,7.804769897E-1,4.259093170E0,8.454146847E0
8.307835417E0,-7.447313232E0,1.002165985E0,3.901935883E0,8.467107811E0
8.317903417E0,-7.580386505E0,1.293909302E0,3.236719208E0,8.343429276E0
8.327972417E0,-7.744595032E0,1.690883789E0,2.566712494E0,8.332217785E0
8.338040417E0,-7.918084259E0,2.036365356E0,1.931583252E0,8.400824725E0
8.348109417E0,-8.088430023E0,2.277214508E0,1.342408447E0,8.509433976E0
8.358177417E0,-8.326435089E0,2.412982178E0,9.621990967E-1,8.722260681E0
8.368246417E0,-8.612340546E0,2.421514435E0,7.964936829E-1,8.981678241E0
8.378314417E0,-8.913963318E0,2.230511627E0,8.048762512E-1,9.223976904E0
8.388382417E0,-9.258546753E0,2.002685394E0,8.783734131E-1,9.513305241E0
8.398451417E0,-9.692793732E0,1.797462158E0,1.091679840E0,9.918310613E0
8.408519417E0,-1.013751892E1,1.758692780E0,1.262474670E0,1.036610498E1
8.418588417E0,-1.052626053E1,2.087708588E0,1.213975525E0,1.079974187E1
8.428656417E0,-1.074675201E1,2.559377747E0,8.015830994E-1,1.107635449E1
8.438725417E0,-1.098221237E1,2.903961182E0,2.818638611E-1,1.136316093E1
8.448793417E0,-1.121033798E1,3.190465393E0,1.516346741E-1,1.165648919E1
8.458862417E0,-1.161030624E1,3.631747742E0,3.308120728E-1,1.216956200E1
8.468930417E0,-1.223106537E1,4.150718536E0,8.219407654E-1,1.294229543E1
8.478999417E0,-1.276889694E1,4.613256683E0,1.625020752E0,1.367360811E1
8.489067417E0,-1.335807175E1,4.819078674E0,2.552941132E0,1.442841324E1
8.499136417E0,-1.391656036E1,4.561165009E0,3.569327545E0,1.507365177E1
8.509204417E0,-1.394260620E1,3.900438995E0,4.019890594E0,1.502561854E1
8.519273417E0,-1.411789169E1,3.141517181E0,3.308719482E0,1.483683324E1
8.529341417E0,-1.450827988E1,2.450404358E0,1.988764343E0,1.484755367E1
8.539410417E0,-1.447430054E1,1.707349548E0,1.221160583E0,1.462571884E1
8.549478417E0,-1.400068542E1,1.050216064E0,1.075064392E0,1.408111890E1
8.559547417E0,-1.351838837E1,8.156538391E-1,1.022823029E0,1.358154197E1
8.569615417E0,-1.284329224E1,1.143472137E0,8.012837219E-1,1.291896821E1
8.579684417E0,-1.152079239E1,1.716031494E0,2.336640930E-1,1.165023692E1
8.589752417E0,-1.023197250E1,1.916315002E0,-4.746629333E-1,1.042069237E1
8.599821417E0,-9.205556946E0,1.735341339E0,-1.037642212E0,9.424987512E0
8.609889417E0,-8.515192566E0,1.571731567E0,-1.507664795E0,8.789305871E0
8.619958417E0,-8.546776886E0,1.519340515E0,-1.855391693E0,8.876838912E0
8.630026417E0,-9.542057190E0,1.561552734E0,-1.961670685E0,9.865974571E0
8.640095417E0,-1.061068497E1,1.534159698E0,-1.742376709E0,1.086168302E1
8.650163417E0,-1.138622223E1,1.336720276E0,-1.226699066E0,1.152985986E1
8.660231417E0,-1.193827423E1,9.785151672E-1,-6.408174133E-1,1.199543790E1
8.670300417E0,-1.246323257E1,5.948629761E-1,-3.001258850E-1,1.248102975E1
8.680368417E0,-1.270752457E1,8.622070312E-2,-9.280700684E-3,1.270782046E1
8.690437417E0,-1.243104950E1,-4.242178345E-1,3.086581421E-1,1.244211486E1
8.700505417E0,-1.171344177E1,-8.180488586E-1,5.215155029E-1,1.175354842E1
8.710574417E0,-1.125299927E1,-9.910890198E-1,4.736151123E-1,1.130648315E1
8.720642417E0,-1.072340057E1,-1.196761322E0,5.051994324E-1,1.080179541E1
8.730711417E0,-1.000279907E1,-1.290915527E0,5.795947266E-1,1.010239488E1
8.740779417E0,-9.380243683E0,-9.846524048E-1,7.358697510E-1,9.460444820E0
8.750848417E0,-8.504714355E0,-6.105802917E-1,8.901988220E-1,8.572947481E0
8.760916417E0,-7.748037872E0,-4.361929321E-1,1.153950348E0,7.845632960E0
8.770985417E0,-7.209906921E0,-4.646337891E-1,1.702110443E0,7.422656016E0
8.781053417E0,-6.722221069E0,-6.899153137E-1,2.148182831E0,7.090763620E0
8.791122417E0,-6.463708649E0,-8.821156311E-1,2.383792877E0,6.945511210E0
8.801190417E0,-6.297853546E0,-9.385482788E-1,2.393822021E0,6.802515419E0
8.811259417E0,-6.067931671E0,-7.586224365E-1,2.240690460E0,6.512756444E0
8.821327417E0,-5.677094421E0,-4.963677979E-1,2.015558624E0,6.044688464E0
8.831396417E0,-5.515131226E0,-2.106120300E-1,1.753753052E0,5.791086222E0
8.841464417E0,-5.648204498E0,6.481521606E-2,1.467548218E0,5.836104252E0
8.851533417E0,-5.560636597E0,2.291734314E-1,1.179098053E0,5.688890229E0
8.861601417E0,-5.617518311E0,3.613485718E-1,1.100212097E0,5.735638711E0
8.871669417E0,-5.748645630E0,3.785627747E-1,9.541159058E-1,5.839569634E0
8.881738417E0,-5.779182129E0,3.195854187E-1,8.490344238E-1,5.849952168E0
8.891806417E0,-5.936205597E0,2.176473999E-1,9.147477722E-1,6.010213870E0
8.901875417E0,-6.051465912E0,6.825805664E-2,1.053060150E0,6.142787195E0
8.911943417E0,-5.973328400E0,-1.760339355E-1,1.314566345E0,6.118800928E0
8.922012417E0,-5.856870575E0,-4.754113770E-1,1.617985382E0,6.094819571E0
8.932080417E0,-5.838608551E0,-7.539820862E-1,1.921404419E0,6.192708110E0
8.942149417E0,-5.940995636E0,-1.031355286E0,2.184706879E0,6.413428648E0
8.952217417E0,-6.221212921E0,-1.212328949E0,2.443069611E0,6.792777106E0
8.962286417E0,-6.596033478E0,-1.381626892E0,2.772085419E0,7.287043850E0
8.972354417E0,-7.204518127E0,-1.463806000E0,3.178639984E0,8.009466999E0
8.982423417E0,-7.796686707E0,-1.304686890E0,3.844156036E0,8.790225658E0
8.992491417E0,-8.457712097E0,-8.671467590E-1,4.535568237E0,9.636193058E0
9.002560417E0,-9.669741669E0,-3.930825806E-1,5.435047760E0,1.109946674E1
9.012628417E0,-1.126647125E1,-2.510279846E-1,6.250252533E0,1.288650636E1
9.022697417E0,-1.261471756E1,-6.307882690E-1,6.567742310E0,1.423601883E1
9.032765417E0,-1.349608475E1,-1.072968750E0,6.441405029E0,1.499290713E1
9.042834417E0,-1.383213593E1,-1.107696533E0,6.699468384E0,1.540901854E1
9.052902417E0,-1.372421036E1,-7.810757446E-1,7.597900085E0,1.570643546E1
9.062971417E0,-1.319670731E1,-3.089575195E-1,8.362360382E0,1.562618346E1
9.073039417E0,-1.214304840E1,8.352630615E-2,8.805888062E0,1.500014219E1
9.083108417E0,-1.088551346E1,1.154100037E-1,8.845256195E0,1.402662753E1
9.093176417E0,-9.960137787E0,-4.764591980E-1,8.305179291E0,1.297718618E1
9.103244542E0,-1.030861313E1,-1.378184052E0,7.041806488E0,1.256001332E1
9.113313542E0,-1.213691116E1,-2.386038208E0,5.624254303E0,1.358786324E1
9.123381542E0,-1.394769562E1,-2.416125641E0,4.646337891E0,1.489846744E1
9.133450542E0,-1.465677109E1,-1.733844452E0,3.828588409E0,1.524746682E1
9.143518542E0,-1.408690613E1,-1.241518250E0,3.363206177E0,1.453593642E1
9.153587542E0,-1.321736435E1,-9.991722107E-1,3.193608856E0,1.363437578E1
9.163655542E0,-1.189231979E1,-1.345701599E0,2.684218140E0,1.226552934E1
9.173724542E0,-1.055754547E1,-2.102228394E0,1.882335663E0,1.092814340E1
9.183792542E0,-9.318871307E0,-2.633174286E0,7.652087402E-1,9.713933996E0
9.193861542E0,-8.467741241E0,-2.875370636E0,-1.438508606E-1,8.943773873E0
9.203929542E0,-8.925339661E0,-2.775977325E0,-4.073030090E-1,9.355941102E0
9.213998542E0,-9.549990692E0,-2.119891663E0,-2.520758057E-1,9.785693899E0
9.224066542E0,-1.028615982E1,-1.096170502E0,3.632945251E-1,1.035078048E1
9.234135542E0,-1.097323105E1,-4.049079895E-1,6.469546509E-1,1.099974093E1
9.244203542E0,-1.151390671E1,-7.738906860E-2,4.354444885E-1,1.152239770E1
9.254272542E0,-1.226519440E1,1.389111328E-1,9.041198730E-2,1.226631421E1
9.264340542E0,-1.287577469E1,3.390449524E-1,-3.902384949E-1,1.288614804E1
9.274409542E0,-1.331361420E1,6.571334839E-1,-8.244854736E-1,1.335529572E1
9.284477542E0,-1.319850357E1,8.539741516E-1,-1.166224823E0,1.327741875E1
9.294546542E0,-1.255244705E1,1.066532135E0,-1.469494171E0,1.268309232E1
9.304614542E0,-1.170026917E1,1.222807159E0,-1.503922577E0,1.185973604E1
9.314682542E0,-1.075229050E1,1.354084167E0,-1.510508881E0,1.094198026E1
9.324751542E0,-9.883347473E0,1.493444366E0,-1.467099152E0,1.010263893E1
9.334819542E0,-8.906628571E0,1.505718842E0,-1.328637085E0,9.130197053E0
9.344888542E0,-7.942483521E0,1.523980865E0,-9.831555176E-1,8.146910882E0
9.354956542E0,-6.829248505E0,1.498084717E0,-4.522096252E-1,7.006239113E0
9.365025542E0,-5.904920654E0,1.339863739E0,1.619631958E-1,6.057190343E0
9.375093542E0,-5.276976471E0,1.191372528E0,6.527925110E-1,5.449035441E0
9.385162542E0,-4.876559143E0,9.907896423E-1,1.137334900E0,5.104510149E0
9.395230542E0,-4.781656494E0,7.643106079E-1,1.478625183E0,5.063076334E0
9.405299542E0,-4.952002258E0,5.879772949E-1,1.743125153E0,5.282663056E0
9.415367542E0,-5.319488068E0,3.459306335E-1,1.802102509E0,5.627094699E0
9.425436542E0,-5.669011230E0,1.486408997E-1,1.899998932E0,5.980784095E0
9.435504542E0,-5.848937073E0,5.388793945E-2,2.292782135E0,6.282500992E0
9.445573542E0,-5.978118439E0,2.207908630E-1,2.289488983E0,6.405342183E0
9.455641542E0,-6.189628601E0,6.021977234E-1,2.265538788E0,6.618671341E0
9.465710542E0,-6.630162506E0,1.063688049E0,2.439177704E0,7.144233688E0
9.475778542E0,-7.103328552E0,1.628912659E0,2.762954407E0,7.793879010E0
9.485847542E0,-7.417225800E0,2.123184814E0,2.882855072E0,8.236140218E0
9.495915542E0,-7.463030548E0,2.430495758E0,2.665656738E0,8.289141116E0
9.505983542E0,-7.532037048E0,2.559527435E0,2.379900970E0,8.303414443E0
9.516052542E0,-7.794740753E0,2.639910278E0,2.196831665E0,8.517815392E0
9.526120542E0,-8.052654419E0,2.691403198E0,2.066602478E0,8.738406043E0
9.536189542E0,-8.191565552E0,2.625540161E0,2.044448547E0,8.841661450E0
9.546257542E0,-8.514444122E0,2.389630737E0,2.138902130E0,9.098406239E0
9.556326542E0,-9.088051300E0,1.938468933E0,2.412533112E0,9.600554893E0
9.566394542E0,-9.459129639E0,1.480421448E0,2.671045532E0,9.939882566E0
9.576463542E0,-9.620643768E0,1.245559845E0,2.928959198E0,1.013345982E1
9.586531542E0,-1.007719437E1,1.545536041E0,2.861150208E0,1.058889553E1
9.596600542E0,-1.045530807E1,1.983375549E0,2.127675476E0,1.085238446E1
9.606668542E0,-1.064511337E1,2.110012207E0,1.278042297E0,1.092721293E1
9.616737542E0,-1.092458221E1,2.217189331E0,4.896318054E-1,1.115805379E1
9.626805542E0,-1.147528702E1,2.692451019E0,-8.143066406E-2,1.178720219E1
9.636874542E0,-1.215038315E1,3.487747192E0,-9.819580078E-2,1.264143321E1
9.646942542E0,-1.289224045E1,4.490661621E0,1.416055298E-1,1.365269049E1
9.657011542E0,-1.332648743E1,5.431754608E0,8.919950867E-1,1.441856028E1
9.667079542E0,-1.295675629E1,5.928571472E0,2.151775360E0,1.441026129E1
9.677148542E0,-1.187136337E1,5.807323608E0,3.573219452E0,1.369022181E1
9.687216542E0,-1.133862122E1,4.455784149E0,4.391417999E0,1.295001527E1
9.697285542E0,-1.220382202E1,3.364553375E0,3.883823547E0,1.324150961E1
9.707353542E0,-1.386431900E1,2.863694916E0,2.517913971E0,1.437915090E1
9.717421542E0,-1.468356537E1,2.616409149E0,1.850901031E0,1.502925558E1
9.727490542E0,-1.416219955E1,2.417772217E0,1.869761810E0,1.448825483E1
9.737558542E0,-1.341555222E1,2.454745331E0,1.997895355E0,1.378384568E1
9.747627542E0,-1.256067993E1,2.639461212E0,1.736389160E0,1.295192971E1
9.757695542E0,-1.089808731E1,2.764750671E0,1.104253693E0,1.129741251E1
9.767764542E0,-9.140592041E0,2.683469696E0,3.809577942E-1,9.533968812E0
9.777832542E0,-8.230933685E0,2.454595642E0,-1.525328064E-1,8.590493313E0
9.787901542E0,-8.061486053E0,2.248324585E0,-5.122348022E-1,8.384802044E0
9.797969542E0,-8.660390625E0,2.134261780E0,-7.220983887E-1,8.948679523E0
9.808038542E0,-1.020547760E1,2.070045319E0,-6.456074524E-1,1.043329620E1
9.818106542E0,-1.159443924E1,1.998045044E0,-4.134402466E-1,1.177260116E1
9.828175542E0,-1.284329224E1,1.816173248E0,-2.734812927E-1,1.297395209E1
9.838243542E0,-1.395697632E1,1.498833160E0,-1.209484863E-1,1.403774616E1
9.848312542E0,-1.450393890E1,1.043929138E0,-9.714797974E-2,1.454178357E1
9.858380542E0,-1.419019135E1,5.947132874E-1,-4.924758911E-2,1.420273353E1
9.868449542E0,-1.330837509E1,1.561253357E-1,1.917512512E-1,1.331067208E1
9.878517542E0,-1.227806763E1,-2.483335876E-1,4.165837097E-1,1.228764242E1
9.888586542E0,-1.129835495E1,-4.734654236E-1,4.323010254E-1,1.131653119E1
9.898654542E0,-1.046728317E1,-6.098318481E-1,3.644920349E-1,1.049136628E1
9.908722542E0,-9.866881714E0,-6.477030945E-1,2.601589966E-1,9.891539656E0
9.918791542E0,-9.214687958E0,-7.743397522E-1,1.083746338E-1,9.247800888E0
9.928859542E0,-8.457861786E0,-8.854087830E-1,-1.317260742E-2,8.504090088E0
9.938928542E0,-7.695497131E0,-9.159452820E-1,-3.013233948E-1,7.755670677E0
9.948996542E0,-7.033723297E0,-7.393125916E-1,-4.805007935E-1,7.088774756E0
9.959065542E0,-6.336622925E0,-4.134402466E-1,-4.700225830E-1,6.367467641E0
9.969133542E0,-6.009104004E0,-2.784210205E-2,-7.828720093E-2,6.009678444E0
9.979202542E0,-5.836961975E0,2.047741699E-1,6.611750793E-1,5.877857607E0
9.989270542E0,-5.597460022E0,1.282832336E-1,1.201102295E0,5.726313125E0
9.999339542E0,-5.392386475E0,-1.709445190E-1,1.493294678E0,5.597944526E0
1.000940754E1,-5.259313202E0,-3.950285339E-1,1.632056122E0,5.520872221E0
1.001947654E1,-4.989274750E0,-5.490582275E-1,1.651815033E0,5.284204800E0
1.002954454E1,-4.796475677E0,-6.179150391E-1,1.636397095E0,5.105467008E0
1.003961354E1,-4.719835052E0,-5.504054260E-1,1.677561493E0,5.039246136E0
1.004968154E1,-4.684508514E0,-3.957769775E-1,1.611249390E0,4.969646268E0
1.005975054E1,-4.780908051E0,-1.707948303E-1,1.467398529E0,5.003949551E0
1.006981854E1,-5.091362457E0,5.493576050E-2,1.306932220E0,5.256715841E0
1.007988654E1,-5.496270447E0,1.782792664E-1,1.211281128E0,5.630983421E0
1.008995554E1,-6.054908752E0,2.160008240E-1,1.302142181E0,6.197108246E0
1.010002317E1,-6.682254181E0,1.688488770E-1,1.465153198E0,6.843077142E0
1.011009217E1,-7.234755249E0,-1.047821045E-2,1.711840210E0,7.434526899E0
1.012016017E1,-7.636220398E0,-4.005670166E-1,1.961970062E0,7.894405768E0
1.013022917E1,-7.906857605E0,-8.183482361E-1,2.341430969E0,8.286759922E0
1.014029717E1,-8.184081116E0,-1.073717194E0,2.752476196E0,8.701044623E0
1.015036617E1,-8.598120117E0,-1.185834045E0,3.189118195E0,9.246856049E0
1.016043417E1,-8.828341370E0,-1.055305481E0,3.571423187E0,9.581667109E0
1.017050317E1,-9.043144684E0,-7.670050049E-1,4.006568298E0,9.920652800E0
1.018057117E1,-9.379345551E0,-4.471202087E-1,4.730163574E0,1.051410894E1
1.019064017E1,-9.850715332E0,-8.846603394E-2,6.165828094E0,1.162161154E1
1.020070817E1,-1.060769119E1,3.532653809E-2,8.151598663E0,1.337807614E1
1.021077717E1,-1.145927032E1,-5.281018066E-1,9.687404938E0,1.501464559E1
1.022084517E1,-1.199470688E1,-1.085841980E0,9.897118835E0,1.558861787E1
1.023091417E1,-1.172152496E1,-8.689430237E-1,9.065747681E0,1.484375257E1
1.024098217E1,-1.119342316E1,-2.601589966E-1,8.174201660E0,1.386282718E1
1.025105017E1,-1.101244949E1,3.576063538E-1,7.706424408E0,1.344585078E1
1.026111917E1,-1.082264420E1,7.083270264E-1,7.542664948E0,1.321072099E1
1.027118717E1,-1.071277267E1,7.366181946E-1,7.498506775E0,1.309708779E1
1.028125617E1,-1.085213287E1,2.529739380E-1,7.333250427E0,1.309997502E1
1.029132417E1,-1.127769791E1,-5.670208740E-1,6.972949677E0,1.327139819E1
1.030139317E1,-1.224393860E1,-1.621128845E0,6.529122620E0,1.397038057E1
1.031146117E1,-1.382255585E1,-2.024839325E0,6.235882416E0,1.529866837E1
1.032153017E1,-1.519699768E1,-1.499132538E0,5.776188354E0,1.632668027E1
1.033159817E1,-1.501767059E1,-7.381150818E-1,5.026247864E0,1.585365609E1
1.034166717E1,-1.367870499E1,-4.343966675E-1,4.379891968E0,1.436938148E1
1.035173517E1,-1.215801727E1,-6.819818115E-1,3.747008057E0,1.274058682E1
1.036180417E1,-1.070154602E1,-1.471739502E0,2.805316315E0,1.116059604E1
1.037187217E1,-9.627230072E0,-1.927242279E0,1.495390320E0,9.931465847E0
1.038194117E1,-8.957971802E0,-1.784738617E0,1.681004333E-1,9.135579264E0
1.039200917E1,-8.943901062E0,-1.565594330E0,-6.071374512E-1,9.100168553E0
1.040207817E1,-9.464368744E0,-1.462608490E0,-4.278103638E-1,9.586267314E0
1.041214617E1,-1.000833755E1,-1.347048798E0,2.389031982E-1,1.010140762E1
1.042221517E1,-1.044842239E1,-1.205293579E0,9.428892517E-1,1.055989125E1
1.043228317E1,-1.106813370E1,-1.153650970E0,1.045426025E0,1.117709308E1
1.044235117E1,-1.199695221E1,-9.223818970E-1,6.837780762E-1,1.205177178E1
1.045242017E1,-1.249391876E1,-5.312452698E-1,2.454895020E-1,1.250761739E1
1.046248817E1,-1.277204041E1,-2.318678284E-1,-3.861968994E-1,1.277998149E1
1.047255717E1,-1.247909958E1,8.891510010E-2,-8.208929443E-1,1.250638627E1
1.048262517E1,-1.195818283E1,3.394940186E-1,-1.342558136E0,1.203810015E1
1.049269417E1,-1.130748596E1,4.966671753E-1,-1.579066315E0,1.142800803E1
1.050276217E1,-1.030367340E1,6.050418091E-1,-1.680405579E0,1.045731916E1
1.051283117E1,-9.581425323E0,7.553292847E-1,-1.716031494E0,9.763144865E0
1.052289917E1,-8.686137085E0,8.343649292E-1,-1.600022736E0,8.871595970E0
1.053296817E1,-7.660020905E0,9.553134155E-1,-1.314416656E0,7.830468385E0
1.054303617E1,-6.846612396E0,1.110540619E0,-9.524693298E-1,7.001185585E0
1.055310517E1,-6.020031281E0,1.253044281E0,-4.830455017E-1,6.168000450E0
1.056317317E1,-5.272336121E0,1.277742920E0,-2.574645996E-2,5.425017790E0
1.057324217E1,-4.787644043E0,1.359772339E0,2.962339783E-1,4.985806942E0
1.058331017E1,-4.526886292E0,1.474882965E0,5.282514954E-1,4.790305721E0
1.059337817E1,-4.469405823E0,1.610051880E0,8.021818542E-1,4.817816019E0
1.060344717E1,-4.653522949E0,1.750310211E0,1.121916962E0,5.096818551E0
1.061351517E1,-5.086722107E0,1.823358307E0,1.341660004E0,5.567713074E0
1.062358417E1,-5.728287964E0,1.826352081E0,1.530417480E0,6.204113360E0
1.063365217E1,-6.342460785E0,1.783990173E0,1.826501770E0,6.837070898E0
1.064372117E1,-6.897955627E0,1.688488770E0,2.448009338E0,7.511693277E0
1.065378917E1,-7.530540161E0,1.699865112E0,2.888543243E0,8.242709420E0
1.066385817E1,-8.161627808E0,1.782642975E0,3.148253174E0,8.927568678E0
1.067392617E1,-8.523126068E0,1.954186249E0,3.317401428E0,9.352415415E0
1.068399517E1,-8.716374207E0,2.298919373E0,3.307971039E0,9.602233177E0
1.069406317E1,-8.718769226E0,2.706521759E0,3.107537842E0,9.643598306E0
1.070413217E1,-8.634045410E0,3.084186401E0,2.963387604E0,9.635383334E0
1.071420017E1,-8.537196808E0,3.401077423E0,2.863694916E0,9.625580790E0
1.072426917E1,-8.462502136E0,3.612886963E0,2.679428101E0,9.583643856E0
1.073433717E1,-8.772657166E0,3.413651276E0,2.441123657E0,9.724793750E0
1.074440617E1,-9.169332275E0,2.906954956E0,2.384691010E0,9.910287216E0
1.075447417E1,-9.366322632E0,2.462978210E0,2.399360504E0,9.977534372E0
1.076454217E1,-9.501341858E0,2.265089722E0,2.373913422E0,1.005194476E1
1.077461117E1,-9.510472870E0,2.170636139E0,2.080822906E0,9.974496450E0
1.078467917E1,-9.791887665E0,2.261796570E0,1.604812775E0,1.017704337E1
1.079474817E1,-1.024409729E1,2.332299957E0,1.157692566E0,1.056983465E1
1.080481617E1,-1.073298065E1,2.398462372E0,7.762857056E-1,1.102506757E1
1.081488517E1,-1.155746613E1,2.580034790E0,5.092410278E-1,1.185288696E1
1.082495317E1,-1.255768616E1,3.029400330E0,3.382965088E-1,1.292235244E1
1.083502217E1,-1.334205505E1,3.601510620E0,2.776725769E-1,1.382238814E1
1.084509017E1,-1.366583176E1,3.966302032E0,7.638615417E-1,1.425026294E1
1.085515917E1,-1.340103241E1,3.781885529E0,2.067350922E0,1.407708307E1
1.086522717E1,-1.326272003E1,3.191513214E0,3.283721466E0,1.403097737E1
1.087529617E1,-1.345641724E1,2.718945923E0,3.873644714E0,1.426439466E1
1.088536417E1,-1.392898453E1,2.646346893E0,3.323538666E0,1.456247476E1
1.089543317E1,-1.443029205E1,2.837050323E0,2.046394501E0,1.484822931E1
1.090550117E1,-1.418779633E1,2.717598724E0,1.276695099E0,1.450202944E1
1.091556917E1,-1.324849960E1,2.362088013E0,1.116079102E0,1.350362300E1
1.092563817E1,-1.231698669E1,2.205214233E0,9.683363342E-1,1.255025124E1
1.093570617E1,-1.140104141E1,2.086960144E0,7.255412292E-1,1.161316314E1
1.094577517E1,-1.064182022E1,1.766626282E0,3.785627747E-1,1.079410097E1
1.095584317E1,-9.697284393E0,1.327589264E0,1.020877075E-1,9.788270519E0
1.096591217E1,-8.921148376E0,9.234297180E-1,-2.204914856E-1,8.971523131E0
1.097598017E1,-8.798403625E0,6.203100586E-1,-5.309458923E-1,8.836209281E0
1.098604917E1,-9.478289795E0,5.275030518E-1,-7.455995178E-1,9.522192791E0
1.099611717E1,-1.064601151E1,5.147795105E-1,-9.346563721E-1,1.069935238E1
1.100618617E1,-1.202449493E1,4.131408691E-1,-1.071172485E0,1.207917937E1
1.101625417E1,-1.279748749E1,1.856140137E-1,-8.219407654E-1,1.282519884E1
1.102632317E1,-1.300271072E1,-5.523513794E-2,-4.972659302E-1,1.301233302E1
1.103639117E1,-1.279449371E1,-2.900967407E-1,-2.097138977E-1,1.279950020E1
1.104646017E1,-1.227956451E1,-5.328918457E-1,1.143621826E-1,1.229165396E1
1.105652817E1,-1.169278473E1,-7.119195557E-1,2.484832764E-1,1.171707251E1
1.106659717E1,-1.090961334E1,-5.795947266E-1,2.347119141E-1,1.092751953E1
1.107666517E1,-1.030666718E1,-2.725831604E-1,9.295669556E-2,1.031069012E1
1.108673317E1,-1.006941055E1,2.769241333E-2,1.041833496E-1,1.006998758E1
1.109680217E1,-9.560768280E0,3.833528137E-1,1.230441284E-1,9.569241837E0
1.110687079E1,-8.759334869E0,7.240443420E-1,1.812730408E-1,8.791077720E0
1.111693979E1,-7.976911926E0,9.678872681E-1,2.710862732E-1,8.039988645E0
1.112700779E1,-7.437433777E0,9.671388245E-1,6.966513062E-1,7.532337070E0
1.113707679E1,-6.963219910E0,6.731501770E-1,1.310075684E0,7.117293093E0
1.114714479E1,-6.611900482E0,3.725752258E-1,1.741927643E0,6.847653043E0
1.115721379E1,-6.361471252E0,1.585203552E-1,1.995051270E0,6.668858581E0
1.116728179E1,-6.152505798E0,1.047821045E-3,2.208806763E0,6.536983709E0
1.117735079E1,-5.846392365E0,-3.757186890E-2,2.309696960E0,6.286208346E0
1.118741879E1,-5.366640015E0,-8.622070312E-2,2.265538788E0,5.825884058E0
1.119748779E1,-5.300178223E0,-1.655557251E-1,2.193538513E0,5.738545905E0
1.120755579E1,-5.274431763E0,-4.849914551E-2,1.972148895E0,5.631283499E0
1.121762479E1,-5.335355072E0,-1.510359192E-1,1.786085815E0,5.628403693E0
1.122769279E1,-5.352120209E0,-3.041674805E-1,1.607956238E0,5.596716166E0
1.123776079E1,-5.496719513E0,-4.819976807E-1,1.462907867E0,5.708445200E0
1.124782979E1,-5.591921539E0,-6.188131714E-1,1.286724243E0,5.771323550E0
1.125789779E1,-5.831722870E0,-7.783813477E-1,1.131347351E0,5.991228253E0
1.126796679E1,-6.277046814E0,-1.038091278E0,1.092128906E0,6.455361783E0
1.127803479E1,-6.333928528E0,-1.319057007E0,1.145418091E0,6.570429559E0
1.128810379E1,-6.447542267E0,-1.559756470E0,1.331481171E0,6.765832073E0
1.129817179E1,-6.743327179E0,-1.732197876E0,1.619182892E0,7.148057370E0
1.130824079E1,-6.961723022E0,-1.816472626E0,1.936972046E0,7.450974497E0
1.131830879E1,-7.281607819E0,-1.713337097E0,2.313888245E0,7.830160614E0
1.132837779E1,-7.864196320E0,-1.449884949E0,2.898722076E0,8.505900293E0
1.133844579E1,-8.529562683E0,-9.693841553E-1,3.625161438E0,9.318526743E0
1.134851479E1,-9.392069092E0,-3.763174438E-1,4.603826294E0,1.046650817E1
1.135858279E1,-1.008632538E1,1.749861145E-1,5.763315125E0,1.161810574E1
1.136865179E1,-1.074211166E1,6.059399414E-1,6.947502594E0,1.280733846E1
1.137871979E1,-1.110630432E1,7.568261719E-1,7.688761139E0,1.352922131E1
1.138878779E1,-1.128233826E1,6.457571411E-1,7.480843506E0,1.355253402E1
1.139885679E1,-1.168455185E1,6.822811890E-1,6.641239471E0,1.345735194E1
1.140892479E1,-1.208616669E1,9.921368408E-1,6.120023346E0,1.358360948E1
1.141899379E1,-1.215412537E1,1.191522217E0,6.204747162E0,1.369822528E1
1.142906179E1,-1.202569244E1,1.101259918E0,6.763834534E0,1.384122501E1
1.143913079E1,-1.167901337E1,9.015751648E-1,7.521259460E0,1.392054363E1
1.144919879E1,-1.120824234E1,4.888833618E-1,8.248746643E0,1.392499639E1
1.145926779E1,-1.124147324E1,-3.773652649E-1,8.525521088E0,1.411373922E1
1.146933579E1,-1.214319809E1,-1.494192810E0,7.990832977E0,1.461312026E1
1.147940479E1,-1.348889969E1,-1.820364532E0,6.810537415E0,1.521997246E1
1.148947279E1,-1.432565964E1,-1.632205811E0,5.414839783E0,1.540159439E1
1.149954179E1,-1.395083908E1,-1.430425415E0,4.125870209E0,1.461830472E1
1.150960979E1,-1.306737625E1,-1.150657196E0,3.184777222E0,1.349900515E1
1.151967879E1,-1.184561691E1,-1.097966766E0,2.390528870E0,1.213419958E1
1.152974679E1,-1.086844894E1,-1.312321014E0,1.554966431E0,1.105727315E1
1.153981579E1,-9.874066772E0,-1.483115845E0,5.222639465E-1,9.998479228E0
1.154988379E1,-9.083860016E0,-1.580862579E0,-5.333409119E-1,9.235804882E0
1.155995179E1,-9.266031189E0,-1.692081299E0,-1.130149841E0,9.486817790E0
1.157002079E1,-9.926158447E0,-1.540296936E0,-1.026714935E0,1.009729071E1
1.158008879E1,-1.061233154E1,-1.150507507E0,-3.706292725E-1,1.068094632E1
1.159015779E1,-1.126961472E1,-9.767189026E-1,4.111949158E-1,1.131933200E1
1.160022579E1,-1.185115540E1,-9.624984741E-1,6.701564026E-1,1.190904686E1
1.161029479E1,-1.252625153E1,-7.593708801E-1,5.715115356E-1,1.256225485E1
1.162036279E1,-1.306153839E1,-4.468208313E-1,2.062710571E-1,1.307080647E1
1.163043179E1,-1.293789551E1,-6.391708374E-2,-2.713856506E-1,1.294089934E1
1.164049979E1,-1.227043350E1,1.969903564E-1,-8.253836060E-1,1.229973990E1
1.165056879E1,-1.165641037E1,3.680845642E-1,-1.205443268E0,1.172435424E1
1.166063679E1,-1.108699448E1,4.349954224E-1,-1.414109344E0,1.118527482E1
1.167070579E1,-1.027553192E1,5.065466309E-1,-1.513352966E0,1.039872026E1
1.168077379E1,-9.449399872E0,6.048921204E-1,-1.517244873E0,9.589529937E0
1.169084179E1,-8.793463898E0,7.334747314E-1,-1.486259308E0,8.948293649E0
1.170091079E1,-8.053253174E0,9.265731812E-1,-1.453477478E0,8.235655488E0
1.171097879E1,-7.342231750E0,1.024170227E0,-1.136436768E0,7.499918683E0
1.172104779E1,-6.425987091E0,1.075363770E0,-7.346722412E-1,6.556634856E0
1.173111579E1,-5.609734497E0,1.085841980E0,-1.691482544E-1,5.716361173E0
1.174118479E1,-5.126539307E0,1.087189178E0,3.809577942E-1,5.254380498E0
1.175125279E1,-4.815635834E0,1.050814819E0,7.707472229E-1,4.988848720E0
1.176132179E1,-4.680017853E0,1.002615051E0,1.056952057E0,4.901525446E0
1.177138979E1,-4.857249298E0,9.583071899E-1,1.127305756E0,5.077601962E0
1.178145879E1,-5.309608612E0,8.928932190E-1,1.172062683E0,5.510257058E0
1.179152679E1,-5.744005280E0,8.286767578E-1,1.255738678E0,5.937775800E0
1.180159579E1,-6.014792175E0,8.424481201E-1,1.428479462E0,6.239230507E0
1.181166379E1,-6.212381287E0,9.583071899E-1,1.720671844E0,6.517111747E0
1.182173279E1,-6.320157166E0,1.115330658E0,2.279609528E0,6.810651120E0
1.183180079E1,-6.696474609E0,1.362466736E0,2.548600159E0,7.293452582E0
1.184186879E1,-7.125931549E0,1.626068573E0,2.676284637E0,7.783668731E0
1.185193779E1,-7.476352844E0,1.960024109E0,2.703527985E0,8.188199431E0
1.186200579E1,-7.777676239E0,2.348616028E0,2.570903778E0,8.521607311E0
1.187207479E1,-8.012687531E0,2.678679657E0,2.354304199E0,8.770475154E0
1.188214279E1,-8.376281433E0,2.911595306E0,2.100731506E0,9.113317219E0
1.189221179E1,-8.778045959E0,2.911146240E0,1.909878387E0,9.443330914E0
1.190227979E1,-9.402996368E0,2.620301056E0,1.902543640E0,9.944947995E0
1.191234879E1,-9.961185608E0,2.096989288E0,2.047442322E0,1.038338109E1
1.192241679E1,-1.047716263E1,1.766177216E0,2.280956726E0,1.086706411E1
1.193248579E1,-1.072399933E1,1.981728973E0,2.279160461E0,1.114118413E1
1.194255379E1,-1.057565781E1,2.299069061E0,1.872755585E0,1.098350901E1
1.195262279E1,-1.051518356E1,2.362088013E0,1.301842804E0,1.085556723E1
1.196269079E1,-1.076710968E1,2.451302490E0,8.758287048E-1,1.107730160E1
1.197275979E1,-1.132559830E1,2.700983276E0,6.382727051E-1,1.166069807E1
1.198282779E1,-1.214723969E1,3.063229980E0,4.742138672E-1,1.253649427E1
1.199289579E1,-1.314686096E1,3.668720856E0,3.821553040E-1,1.365450506E1
1.200296479E1,-1.395622787E1,4.237238617E0,8.020321655E-1,1.460731814E1
1.201303279E1,-1.443178894E1,4.461322632E0,1.749561768E0,1.520660705E1
1.202310179E1,-1.473251358E1,4.039948883E0,2.985691223E0,1.556542629E1
1.203316979E1,-1.410920975E1,3.090922394E0,3.536396027E0,1.487043032E1
1.204323879E1,-1.348500778E1,2.324965210E0,2.954855347E0,1.399935956E1
1.205330679E1,-1.377525421E1,2.229912872E0,1.138682098E0,1.400095486E1
1.206337579E1,-1.453088287E1,2.282603302E0,-3.601510620E-1,1.471348170E1
1.207344379E1,-1.461216385E1,2.014061737E0,-5.553451538E-1,1.476076506E1
1.208351279E1,-1.405292679E1,1.893113251E0,6.002517700E-2,1.417999408E1
1.209358079E1,-1.324700272E1,2.058668976E0,6.774911499E-1,1.342312159E1
1.210364954E1,-1.220786362E1,2.110161896E0,1.035995636E0,1.243213595E1
1.211371754E1,-1.058912979E1,1.779050446E0,8.565188599E-1,1.077164401E1
1.212378654E1,-8.721912689E0,1.196761322E0,4.152365112E-1,8.813422717E0
1.213385454E1,-7.290439453E0,7.490423584E-1,-7.619155884E-2,7.329213943E0
1.214392254E1,-6.901099091E0,6.086343384E-1,-4.813989258E-1,6.944591373E0
1.215399154E1,-7.852969666E0,7.310797119E-1,-9.451345825E-1,7.943355053E0
1.216405954E1,-9.601932678E0,7.839198303E-1,-1.440304871E0,9.740950651E0
1.217412854E1,-1.164697998E1,6.177653503E-1,-1.627266083E0,1.177632250E1
1.218419654E1,-1.358335327E1,1.818717957E-1,-1.463057556E0,1.366312925E1
1.219426554E1,-1.464928665E1,-3.927832031E-1,-1.147663422E0,1.469942208E1
1.220433354E1,-1.463267120E1,-8.361611938E-1,-8.077203369E-1,1.467878211E1
1.221440254E1,-1.358305389E1,-1.111738129E0,-4.966671753E-1,1.363752151E1
1.222447054E1,-1.198437836E1,-1.225800934E0,-1.339714050E-1,1.204764960E1
1.223453954E1,-1.066098038E1,-1.222807159E0,1.990859985E-2,1.073089727E1
1.224460754E1,-9.771380310E0,-1.199455719E0,-7.948471069E-2,9.845043677E0
1.225467654E1,-8.919352112E0,-1.141226807E0,-2.254312134E-1,8.994890769E0
1.226474454E1,-8.291557617E0,-1.078357544E0,-2.020797729E-1,8.363828008E0
1.227481254E1,-7.904462585E0,-8.776249695E-1,-7.484436035E-2,7.953386450E0
1.228488154E1,-7.452402649E0,-7.203021240E-1,1.097218323E-1,7.487935581E0
1.229494954E1,-7.037914581E0,-7.961943054E-1,4.939727783E-1,7.100012404E0
1.230501854E1,-6.518644409E0,-9.054670715E-1,8.753796387E-1,6.639193103E0
1.231508654E1,-6.002817078E0,-9.686357117E-1,1.109492798E0,6.180860966E0
1.232515554E1,-5.589825897E0,-8.439450073E-1,1.142723694E0,5.767513691E0
1.233522354E1,-5.442083130E0,-7.135661316E-1,1.124611359E0,5.602695434E0
1.234529254E1,-5.493126984E0,-4.787045288E-1,1.093176727E0,5.621266534E0
1.235536054E1,-5.625900879E0,-1.799258423E-1,1.180295563E0,5.751193930E0
1.236542954E1,-5.652096405E0,7.259902954E-2,1.137185211E0,5.765817773E0
1.237549754E1,-5.918841705E0,3.257226562E-1,1.099912720E0,6.028979215E0
1.238556654E1,-6.135740662E0,4.561015320E-1,1.175804901E0,6.264013030E0
1.239563454E1,-6.283483429E0,5.159770203E-1,1.350341949E0,6.447621241E0
1.240570354E1,-6.253545685E0,4.029620361E-1,1.553918610E0,6.456305064E0
1.241577154E1,-6.256539459E0,1.486408997E-1,1.673070831E0,6.478081979E0
1.242583954E1,-6.161487122E0,-2.493814087E-1,1.742077332E0,6.407881714E0
1.243590854E1,-6.008355560E0,-6.917115784E-1,1.870061188E0,6.330555291E0
1.244597654E1,-5.983207855E0,-1.087189178E0,2.048190765E0,6.416840497E0
1.245604554E1,-6.196813660E0,-1.339115295E0,2.325563965E0,6.752923594E0
1.246611354E1,-6.631360016E0,-1.427731018E0,2.581681366E0,7.257990782E0
1.247618254E1,-7.092251587E0,-1.462608490E0,2.901715851E0,7.801231380E0
1.248625054E1,-7.337591400E0,-1.400487671E0,3.274740143E0,8.156318794E0
1.249631954E1,-7.712112579E0,-1.256038055E0,3.711232452E0,8.650292385E0
1.250638754E1,-8.259374542E0,-1.027313690E0,4.280199280E0,9.359099696E0
1.251645654E1,-9.111402740E0,-6.858737183E-1,5.059927826E0,1.044466142E1
1.252652454E1,-1.010563522E1,-3.823049927E-1,6.061644745E0,1.179040107E1
1.253659354E1,-1.089943451E1,-2.586621094E-1,7.178023224E0,1.305329828E1
1.254666154E1,-1.130269592E1,-4.453239441E-1,7.915090485E0,1.380572004E1
1.255672954E1,-1.133233429E1,-7.819738770E-1,7.707172852E0,1.372711903E1
1.256679854E1,-1.148830994E1,-9.815089417E-1,6.829996948E0,1.340124932E1
1.257686654E1,-1.193632828E1,-1.011296997E0,6.019731903E0,1.340655909E1
1.258693554E1,-1.220397171E1,-1.153950348E0,5.794600067E0,1.355897920E1
1.259700354E1,-1.221564743E1,-1.446741486E0,6.226152649E0,1.378695325E1
1.260707254E1,-1.205039108E1,-1.676363983E0,7.184160461E0,1.412919966E1
1.261714054E1,-1.108205475E1,-1.557511139E0,8.178093567E0,1.386069958E1
1.262720954E1,-1.002944366E1,-9.056167603E-1,9.041498108E0,1.353360890E1
1.263727754E1,-9.643097076E0,-4.385879517E-1,9.289682007E0,1.339700983E1
1.264734654E1,-1.055215668E1,-1.080303497E0,8.647068329E0,1.368527884E1
1.265741454E1,-1.263297958E1,-1.783690796E0,7.332501984E0,1.471527476E1
1.266748354E1,-1.381462234E1,-1.336720276E0,5.893244934E0,1.507849288E1
1.267755154E1,-1.371732468E1,-1.193168793E0,4.729864197E0,1.455885515E1
1.268762054E1,-1.226549377E1,-1.625769196E0,3.721560974E0,1.292035135E1
1.269768854E1,-1.058059753E1,-2.389031982E0,2.593207397E0,1.115263389E1
1.270775654E1,-9.527238007E0,-2.795137482E0,1.423539734E0,1.003033015E1
1.271782554E1,-8.969946899E0,-2.803220673E0,2.154020691E-1,9.400233591E0
1.272789354E1,-8.337811432E0,-2.478695526E0,-7.827223206E-1,8.733595206E0
1.273796254E1,-8.476423187E0,-2.199975128E0,-1.269809418E0,8.848844929E0
1.274803054E1,-9.529483337E0,-2.062560883E0,-1.044527893E0,9.805929257E0
1.275809954E1,-1.059736267E1,-1.795366516E0,-1.995350647E-1,1.075022096E1
1.276816754E1,-1.191731781E1,-1.575623474E0,5.050497437E-1,1.203163033E1
1.277823654E1,-1.345432159E1,-1.578916626E0,9.014254761E-1,1.357660912E1
1.278830454E1,-1.458971054E1,-1.365759888E0,7.873626709E-1,1.467463436E1
1.279837354E1,-1.428509399E1,-9.383985901E-1,3.710783386E-1,1.432069138E1
1.280844154E1,-1.356778564E1,-3.781137085E-1,-3.951782227E-2,1.357311088E1
1.281851054E1,-1.288086411E1,5.373825073E-2,-3.829037476E-1,1.288666610E1
1.282857854E1,-1.177885574E1,3.568579102E-1,-7.795788574E-1,1.181001835E1
1.283864754E1,-1.084165466E1,5.574407959E-1,-1.165626068E0,1.091837443E1
1.284871554E1,-1.041489212E1,7.851173401E-1,-1.428180084E0,1.054163581E1
1.285878354E1,-9.689201202E0,9.572593689E-1,-1.537153473E0,9.856967396E0
1.286885254E1,-8.781039734E0,1.175954590E0,-1.366508331E0,8.964199519E0
1.287892054E1,-7.817194061E0,1.324745178E0,-1.276096344E0,8.030684570E0
1.288898954E1,-6.887028351E0,1.333427124E0,-8.821156311E-1,7.070170817E0
1.289905754E1,-5.982160034E0,1.367556152E0,-4.611909485E-1,6.153791156E0
1.290912654E1,-5.178630981E0,1.361718292E0,-9.280700684E-3,5.354678485E0
1.291919454E1,-4.605023804E0,1.340462494E0,4.986131287E-1,4.822001554E0
1.292926354E1,-4.218078461E0,1.442250824E0,9.113049316E-1,4.550027474E0
1.293933154E1,-4.136647797E0,1.541494446E0,1.224603424E0,4.581234950E0
1.294940054E1,-4.262536011E0,1.553319855E0,1.381028137E0,4.742283683E0
1.295946854E1,-4.779710541E0,1.521885223E0,1.517993317E0,5.240808258E0
1.296953654E1,-5.378465424E0,1.438807983E0,1.665436707E0,5.811345640E0
1.297960554E1,-5.879922638E0,1.329385529E0,1.726060638E0,6.270569467E0
1.298967354E1,-6.486611023E0,1.211131439E0,1.815873871E0,6.844001742E0
1.299974254E1,-7.033124542E0,1.093625793E0,1.969155121E0,7.385013886E0
1.300981054E1,-7.464976501E0,1.050365753E0,2.262245636E0,7.870635152E0
1.301987954E1,-7.751031647E0,1.107546844E0,2.440824280E0,8.201388588E0
1.302994754E1,-7.986641693E0,1.239572296E0,2.503843231E0,8.461218348E0
1.304001654E1,-8.141868896E0,1.548829193E0,2.507884827E0,8.659006138E0
1.305008454E1,-8.208330688E0,2.001188507E0,2.415676575E0,8.787317079E0
1.306015354E1,-8.381071472E0,2.381397858E0,2.356699219E0,9.025931862E0
1.307022154E1,-8.568930817E0,2.608475647E0,2.372715912E0,9.266094179E0
1.308029054E1,-8.800199890E0,2.634521484E0,2.416425018E0,9.498596287E0
1.309035854E1,-9.214089203E0,2.250270538E0,2.363285522E0,9.774879835E0
1.310042754E1,-9.749974823E0,1.607656860E0,2.362686768E0,1.016016035E1
1.311049604E1,-1.005504044E1,1.097667389E0,2.388732605E0,1.039301474E1
1.312056404E1,-1.035726196E1,7.782316589E-1,2.332150269E0,1.064506669E1
1.313063304E1,-1.095227463E1,7.503895569E-1,2.144739990E0,1.118549568E1
1.314070104E1,-1.158530823E1,1.016087036E0,1.720222778E0,1.175631600E1
1.315077004E1,-1.219289474E1,1.471290436E0,1.158890076E0,1.233589899E1
1.316083804E1,-1.273566605E1,2.262694702E0,7.864645386E-1,1.295899315E1
1.317090704E1,-1.301498520E1,3.389102325E0,6.117778015E-1,1.346291671E1
1.318097504E1,-1.330583038E1,4.307592316E0,5.267546082E-1,1.399564018E1
1.319104404E1,-1.362421829E1,4.856800232E0,8.767268372E-1,1.449056529E1
1.320111204E1,-1.360580658E1,5.000501404E0,1.655856628E0,1.458988856E1
1.321118104E1,-1.351359833E1,4.531376953E0,2.569706268E0,1.448289015E1
1.322124904E1,-1.356194778E1,3.823948059E0,3.065026245E0,1.442024245E1
1.323131804E1,-1.363439713E1,3.507057037E0,2.456840973E0,1.429098673E1
1.324138604E1,-1.389485550E1,3.488645325E0,1.406624908E0,1.439500779E1
1.325145404E1,-1.402777908E1,3.305576019E0,7.464976501E-1,1.443130893E1
1.326152304E1,-1.368154907E1,2.945125580E0,6.198609924E-1,1.400866794E1
1.327159104E1,-1.304282730E1,2.540516968E0,6.821315002E-1,1.330544527E1
1.328166004E1,-1.218241653E1,2.157912598E0,6.104306030E-1,1.238710963E1
1.329172804E1,-1.080243622E1,1.771566010E0,2.662962341E-1,1.094997662E1
1.330179704E1,-9.246122589E0,1.250349884E0,-2.573149109E-1,9.333829264E0
1.331186504E1,-7.919581146E0,6.759942627E-1,-6.162684631E-1,7.972234354E0
1.332193404E1,-7.627538452E0,3.362008667E-1,-6.872209167E-1,7.665810228E0
1.333200204E1,-8.517288208E0,2.737806702E-1,-9.071136475E-1,8.569831354E0
1.334207104E1,-9.935289459E0,3.158432007E-1,-1.249152374E0,1.001848867E1
1.335213904E1,-1.176179123E1,2.288740540E-1,-1.405128021E0,1.184763694E1
1.336220804E1,-1.353066284E1,-5.987548828E-4,-1.434167633E0,1.360645707E1
1.337227604E1,-1.468820572E1,-3.797602844E-1,-1.196312256E0,1.474173559E1
1.338234504E1,-1.498144592E1,-8.973838806E-1,-8.307723999E-1,1.503127415E1
1.339241304E1,-1.411250290E1,-1.282532959E0,-4.293072510E-1,1.417716240E1
1.340248104E1,-1.244661713E1,-1.659299469E0,-4.161346436E-2,1.255680231E1
1.341255004E1,-1.101753891E1,-1.777852936E0,1.221459961E-1,1.116072777E1
1.342261804E1,-1.008153534E1,-1.773511963E0,1.425036621E-1,1.023733397E1
1.343268704E1,-9.416318665E0,-1.740131378E0,9.071136475E-2,9.576186243E0
1.344275504E1,-8.800050201E0,-1.560504913E0,9.131011963E-2,8.937807151E0
1.345282404E1,-7.896080017E0,-1.271006927E0,1.495390320E-1,7.999118712E0
1.346289204E1,-7.171436920E0,-9.711804199E-1,2.466870117E-1,7.241101670E0
1.347296104E1,-6.644382935E0,-8.657995605E-1,5.574407959E-1,6.723702380E0
1.348302904E1,-6.204298096E0,-1.040486298E0,1.179846497E0,6.400622185E0
1.349309804E1,-5.816005554E0,-1.295855255E0,1.641336823E0,6.180545932E0
1.350316604E1,-5.676495667E0,-1.407223663E0,1.797761536E0,6.118400774E0
1.351323504E1,-5.480403442E0,-1.420695648E0,1.854792938E0,5.957638363E0
1.352330304E1,-5.233866119E0,-1.239721985E0,1.731748810E0,5.650594579E0
1.353337104E1,-5.139113159E0,-9.970765686E-1,1.491648102E0,5.443313311E0
1.354344004E1,-5.037773895E0,-8.280780029E-1,1.276695099E0,5.262587707E0
1.355350804E1,-5.077441406E0,-4.842430115E-1,1.048419800E0,5.207118839E0
1.356357704E1,-5.256768494E0,-1.957928467E-1,9.071136475E-1,5.338052548E0
1.357364504E1,-5.327271881E0,5.089416504E-3,7.807763672E-1,5.384186413E0
1.358371404E1,-5.485193481E0,1.068777466E-1,7.441026306E-1,5.536466301E0
1.359378204E1,-5.792055359E0,1.432521057E-1,8.349636841E-1,5.853681816E0
1.360385104E1,-6.231990509E0,7.544311523E-2,1.028211823E0,6.316693512E0
1.361391904E1,-6.722071381E0,-5.553451538E-2,1.326391754E0,6.851907969E0
1.362398804E1,-6.897805939E0,-2.776725769E-1,1.700912933E0,7.109847652E0
1.363405604E1,-6.929839325E0,-6.610253906E-1,1.998793488E0,7.242568815E0
1.364412504E1,-7.093449097E0,-1.136137390E0,2.354453888E0,7.559846650E0
1.365419304E1,-7.279811554E0,-1.512305145E0,2.769840088E0,7.934402134E0
1.366426104E1,-7.616760864E0,-1.687141571E0,3.065774689E0,8.382151704E0
1.367433004E1,-7.988887024E0,-1.687291260E0,3.453019409E0,8.865247358E0
1.368439804E1,-8.463250580E0,-1.397493896E0,3.743415527E0,9.359100351E0
1.369446704E1,-9.135352936E0,-9.110055542E-1,4.050726471E0,1.003458964E1
1.370453504E1,-9.658065948E0,-4.294569397E-1,4.509223022E0,1.066750971E1
1.371460404E1,-1.039393570E1,5.298980713E-2,5.226980438E0,1.163434707E1
1.372467204E1,-1.107906097E1,5.062472534E-1,6.262676697E0,1.273667923E1
1.373474104E1,-1.153037247E1,7.307803345E-1,7.390581207E0,1.371510918E1
1.374480904E1,-1.189231979E1,5.837860107E-1,8.171207886E0,1.444080034E1
1.375487804E1,-1.242176880E1,-3.367996216E-2,8.578510895E0,1.509610293E1
1.376494604E1,-1.251427643E1,-7.388635254E-1,8.822054443E0,1.532911212E1
1.377501504E1,-1.226788879E1,-1.411414948E0,8.669821014E0,1.508837248E1
1.378508304E1,-1.169772446E1,-1.837129669E0,7.768096161E0,1.416174851E1
1.379515104E1,-1.129610962E1,-1.997745667E0,6.728807373E0,1.329924543E1
1.380522004E1,-1.146076721E1,-2.131866760E0,5.886508942E0,1.305928897E1
1.381528804E1,-1.216714828E1,-2.318079529E0,5.266049194E0,1.345898452E1
1.382535704E1,-1.350970642E1,-2.380948792E0,5.088967438E0,1.463142762E1
1.383542504E1,-1.481169891E1,-2.136207733E0,4.924309845E0,1.575432117E1
1.384549404E1,-1.473041794E1,-1.795366516E0,4.458927612E0,1.549485686E1
1.385556204E1,-1.377435608E1,-1.287322998E0,3.954776001E0,1.438854889E1
1.386563104E1,-1.250574417E1,-6.688092041E-1,3.612886963E0,1.303433524E1
1.387569904E1,-1.072414902E1,-6.598278809E-1,3.238365784E0,1.122184289E1
1.388576804E1,-8.829987946E0,-1.283580780E0,2.448308716E0,9.252593275E0
1.389583604E1,-7.600744171E0,-1.939816132E0,1.258582764E0,7.944698179E0
1.390590504E1,-7.225324860E0,-2.271376648E0,2.621049500E-1,7.578467537E0
1.391597304E1,-8.034841461E0,-2.254611511E0,-4.067042542E-1,8.355079815E0
1.392604104E1,-9.279802551E0,-1.976639557E0,-2.875520325E-1,9.492340359E0
1.393611004E1,-1.038405624E1,-1.693727875E0,1.273851013E-1,1.052205138E1
1.394617804E1,-1.141825562E1,-1.622775421E0,4.453239441E-1,1.154158892E1
1.395624704E1,-1.244242584E1,-1.503623199E0,4.825964355E-1,1.254223835E1
1.396631504E1,-1.317889435E1,-1.243913269E0,3.260220337E-1,1.324148280E1
1.397638404E1,-1.309327240E1,-7.442523193E-1,-5.104385376E-2,1.311450720E1
1.398645204E1,-1.291963348E1,-2.248324585E-1,-5.134323120E-1,1.293178610E1
1.399652104E1,-1.222537720E1,5.837860107E-3,-1.072220306E0,1.227230777E1
1.400658904E1,-1.162632294E1,1.739382935E-1,-1.417851562E0,1.171375015E1
1.401665804E1,-1.100601288E1,2.034269714E-1,-1.762884064E0,1.114815959E1
1.402672604E1,-1.046533722E1,4.587959290E-1,-1.996548157E0,1.066395712E1
1.403679504E1,-9.689650269E0,8.565188599E-1,-2.028581543E0,9.936704180E0
1.404686304E1,-8.845555573E0,1.124761047E0,-1.941462708E0,9.125690015E0
1.405693204E1,-8.137228546E0,1.203796692E0,-1.789678345E0,8.418228048E0
1.406700004E1,-7.350165253E0,1.238674164E0,-1.408421173E0,7.585703206E0
1.407706804E1,-6.481521606E0,1.261576538E0,-8.967851257E-1,6.663776801E0
1.408713704E1,-5.759273529E0,1.249152374E0,-3.849993896E-1,5.905746165E0
1.409720504E1,-5.314548340E0,1.251397705E0,1.727407837E-1,5.462623880E0
1.410727354E1,-4.980293427E0,1.339714050E0,7.653584290E-1,5.213821044E0
1.411734154E1,-4.791236572E0,1.484313354E0,1.175804901E0,5.151859003E0
1.412741054E1,-4.959935760E0,1.601819000E0,1.331630859E0,5.379593628E0
1.413747854E1,-5.561983795E0,1.692230988E0,1.641187134E0,6.040927467E0
1.414754754E1,-6.073769531E0,1.663490753E0,1.946103058E0,6.591296907E0
1.415761554E1,-6.542594604E0,1.669029236E0,2.187850342E0,7.097738504E0
1.416768454E1,-6.861431580E0,1.612746277E0,2.761307831E0,7.570007583E0
1.417775254E1,-7.063211975E0,1.542392578E0,3.162922668E0,7.891262135E0
1.418782054E1,-7.530091095E0,1.485959930E0,3.220552826E0,8.323599541E0
1.419788954E1,-7.804470520E0,1.385668488E0,3.137026520E0,8.524715399E0
1.420795754E1,-7.786807251E0,1.428030396E0,2.868035889E0,8.420170297E0
1.421802654E1,-7.930807800E0,1.672621765E0,2.520907745E0,8.488247864E0
1.422809454E1,-8.168663177E0,1.947749634E0,2.236050110E0,8.690265061E0
1.423816354E1,-8.430917816E0,2.208806763E0,2.013013916E0,8.944910707E0
1.424823154E1,-8.702303467E0,2.345771942E0,1.826501770E0,9.196131814E0
1.425830054E1,-8.856632538E0,2.368524628E0,1.689386902E0,9.322224891E0
1.426836854E1,-8.962911530E0,2.170785828E0,1.619631958E0,9.363188660E0
1.427843754E1,-9.165590057E0,1.711241455E0,1.649420013E0,9.468736706E0
1.428850554E1,-9.344617767E0,1.215322723E0,1.707199860E0,9.576712479E0
1.429857454E1,-9.835147705E0,8.565188599E-1,1.776805115E0,1.003099154E1
1.430864254E1,-1.056907150E1,7.277865601E-1,1.783241730E0,1.074313254E1
1.431871154E1,-1.138951538E1,9.394464111E-1,1.630858612E0,1.154397332E1
1.432877954E1,-1.229408432E1,1.467548218E0,1.161434784E0,1.243572024E1
1.433884754E1,-1.302576279E1,2.217488708E0,7.047344971E-1,1.323194631E1
1.434891654E1,-1.374037674E1,3.163222046E0,5.553451538E-1,1.411071702E1
1.435898454E1,-1.410591660E1,4.033512268E0,7.497908020E-1,1.469041492E1
1.436905354E1,-1.411235321E1,4.685706024E0,1.230441284E0,1.492073523E1
1.437912154E1,-1.368050125E1,5.110971680E0,2.020049286E0,1.474309144E1
1.438919054E1,-1.312096481E1,5.131778412E0,2.691103821E0,1.434353189E1
1.439925854E1,-1.289508453E1,4.962031403E0,2.666554871E0,1.407179717E1
1.440932754E1,-1.294253586E1,4.936434631E0,1.757495270E0,1.396303731E1
1.441939554E1,-1.302202057E1,4.792134705E0,8.352630615E-1,1.390090785E1
1.442946454E1,-1.281485138E1,4.150868225E0,5.800437927E-1,1.348282514E1
1.443953254E1,-1.250170258E1,3.268453217E0,8.607101440E-1,1.295052801E1
1.444960154E1,-1.231474136E1,2.608325958E0,1.257684631E0,1.265061223E1
1.445966954E1,-1.187286026E1,2.167492676E0,1.308279419E0,1.213978708E1
1.446973754E1,-1.084360062E1,1.748513947E0,9.273216248E-1,1.102274470E1
1.447980654E1,-9.665550385E0,1.185235291E0,3.841012573E-1,9.745521059E0
1.448987454E1,-8.990753632E0,5.980064392E-1,-1.511856079E-2,9.010632116E0
1.449994354E1,-9.029972076E0,2.426454163E-1,-3.784130859E-1,9.041154183E0
1.451001154E1,-9.625134430E0,9.056167603E-2,-7.267387390E-1,9.652956200E0
1.452008054E1,-1.045964905E1,-1.437011719E-2,-8.894503784E-1,1.049740857E1
1.453014854E1,-1.141675873E1,-1.336720276E-1,-8.846603394E-1,1.145176283E1
1.454021754E1,-1.229228806E1,-2.722837830E-1,-8.472381592E-1,1.232445928E1
1.455028554E1,-1.299103500E1,-5.102888489E-1,-6.655160522E-1,1.301807577E1
1.456035454E1,-1.324879898E1,-8.427474976E-1,-3.709286499E-1,1.328075622E1
1.457042254E1,-1.282263519E1,-1.200353851E0,-1.119671631E-1,1.287918318E1
1.458049154E1,-1.205712708E1,-1.437311096E0,8.457412720E-2,1.214278919E1
1.459055954E1,-1.117351456E1,-1.494492188E0,1.658551025E-1,1.127423799E1
1.460062754E1,-1.060544586E1,-1.551972656E0,1.649569702E-1,1.071966939E1
1.461069654E1,-1.008722351E1,-1.539099426E0,1.169068909E-1,1.020463485E1
1.462076454E1,-9.364526367E0,-1.473835144E0,-8.696914673E-2,9.480195554E0
1.463083354E1,-8.555758209E0,-1.328487396E0,-2.079176331E-1,8.660779817E0
1.464090154E1,-7.840096436E0,-1.226699066E0,-2.779719543E-1,7.940350819E0
1.465097054E1,-7.323520660E0,-1.140029297E0,-1.712438965E-1,7.413699895E0
1.466103854E1,-6.903494110E0,-1.083147583E0,5.373825073E-2,6.988156224E0
1.467110754E1,-6.627468109E0,-1.141975250E0,4.776567078E-1,6.742076604E0
1.468117554E1,-6.474935303E0,-1.303788757E0,1.065783691E0,6.690332367E0
1.469124454E1,-6.179449768E0,-1.442250824E0,1.594035187E0,6.542677973E0
1.470131254E1,-5.915249176E0,-1.456620941E0,1.891017609E0,6.378704020E0
1.471138154E1,-5.746549988E0,-1.360670471E0,2.090402985E0,6.264506807E0
1.472144954E1,-5.405409393E0,-1.186582489E0,2.069596252E0,5.908439503E0
1.473151754E1,-5.313799896E0,-9.413923645E-1,1.923050995E0,5.728945283E0
1.474158654E1,-5.512885895E0,-6.960525513E-1,1.690584412E0,5.808138746E0
1.475165454E1,-5.742209015E0,-2.954855347E-1,1.510359192E0,5.944868456E0
1.476172354E1,-5.935307465E0,7.798782349E-2,1.326242065E0,6.082176816E0
1.477179154E1,-6.176455994E0,3.188369751E-1,1.216071167E0,6.303101994E0
1.478186054E1,-6.476132812E0,5.719606018E-1,1.215023346E0,6.613903300E0
1.479192854E1,-6.548582153E0,5.846841431E-1,1.362915802E0,6.714411609E0
1.480199754E1,-6.540349274E0,5.469625854E-1,1.767973480E0,6.797136671E0
1.481206554E1,-6.502627716E0,3.812571716E-1,2.207309875E0,6.877626126E0
1.482213454E1,-6.588399353E0,1.103205872E-1,2.579885101E0,7.076367981E0
1.483220254E1,-6.831942902E0,-3.140469360E-1,2.930306396E0,7.440481494E0
1.484227154E1,-7.107220459E0,-7.792794800E-1,3.260220337E0,7.858046564E0
1.485233954E1,-7.385042725E0,-1.185834045E0,3.669469299E0,8.331270213E0
1.486240754E1,-7.802225189E0,-1.402583313E0,4.042044525E0,8.898319043E0
1.487247654E1,-8.256680145E0,-1.315763855E0,4.396956482E0,9.446545816E0
1.488254454E1,-8.533604279E0,-9.810598755E-1,4.777016144E0,9.828772238E0
1.489261354E1,-8.968450012E0,-4.736151123E-1,5.242098999E0,1.039889460E1
1.490268154E1,-9.732760620E0,9.340576172E-2,5.973178711E0,1.141990446E1
1.491275054E1,-1.070409073E1,3.923341370E-1,6.757248230E0,1.266459190E1
1.492281854E1,-1.158994858E1,3.469784546E-1,7.165299683E0,1.363043732E1
1.493288754E1,-1.229528183E1,8.517288208E-2,7.151228943E0,1.422396868E1
1.494295554E1,-1.258223511E1,-1.260379028E-1,7.207811279E0,1.450107132E1
1.495302454E1,-1.235410950E1,-4.188290405E-1,7.292385406E0,1.435194496E1
1.496309254E1,-1.176718002E1,-7.406597900E-1,6.858737183E0,1.364028513E1
1.497316154E1,-1.097637451E1,-9.342073059E-1,5.989494781E0,1.253904257E1
1.498322954E1,-1.089449478E1,-9.114546204E-1,5.546266479E0,1.225894930E1
1.499329754E1,-1.117680771E1,-7.292834473E-1,5.804030457E0,1.261505666E1
1.500336654E1,-1.136945709E1,-8.999285889E-1,6.424939270E0,1.309023570E1
1.501343454E1,-1.182016983E1,-1.835333405E0,7.074588318E0,1.389728979E1
1.502350354E1,-1.274240204E1,-2.670297089E0,7.196734314E0,1.487589597E1
1.503357154E1,-1.357392288E1,-2.497556305E0,6.656807098E0,1.532325849E1
1.504364054E1,-1.348246307E1,-2.008223877E0,5.973178711E0,1.488249433E1
1.505370854E1,-1.310854065E1,-1.763632507E0,5.286107483E0,1.424384674E1
1.506377754E1,-1.241233841E1,-1.749861145E0,4.706812134E0,1.338963178E1
1.507384554E1,-1.117306549E1,-2.101779327E0,3.977378998E0,1.204468399E1
1.508391454E1,-1.007180557E1,-2.414329376E0,3.003803558E0,1.078392738E1
1.509398254E1,-8.875044250E0,-2.536175995E0,1.704804840E0,9.386424168E0
1.510405079E1,-7.884254608E0,-2.430346069E0,6.622229004E-1,8.276870901E0
1.511411979E1,-7.765102386E0,-2.149979095E0,2.146536255E-1,8.060105543E0
1.512418779E1,-8.429720306E0,-1.843715973E0,2.490820312E-1,8.632584485E0
1.513425679E1,-9.266330566E0,-1.420845337E0,5.535488892E-1,9.390958418E0
1.514432479E1,-1.018616776E1,-1.073118439E0,8.701405334E-1,1.027943293E1
1.515439379E1,-1.112531479E1,-9.463320923E-1,8.298742676E-1,1.119628800E1
1.516446179E1,-1.186627396E1,-6.887178040E-1,5.225633240E-1,1.189772509E1
1.517453079E1,-1.233749405E1,-3.381468201E-1,1.857637024E-1,1.234352506E1
1.518459879E1,-1.254481293E1,1.856140137E-2,-3.680845642E-1,1.255022558E1
1.519466779E1,-1.240605148E1,4.644841003E-1,-9.535171509E-1,1.245130731E1
1.520473579E1,-1.176523407E1,7.973918152E-1,-1.459764404E0,1.188223374E1
1.521480479E1,-1.123069565E1,1.102607117E0,-2.118245087E0,1.148177815E1
1.522487279E1,-1.075348801E1,1.500030670E0,-2.439626770E0,1.112831412E1
1.523494179E1,-9.848170624E0,1.698068848E0,-2.536625061E0,1.031040102E1
1.524500979E1,-9.149723053E0,1.761836243E0,-2.294877777E0,9.596247334E0
1.525507779E1,-8.459658051E0,1.704804840E0,-1.960473175E0,8.849611796E0
1.526514679E1,-7.643405457E0,1.645677795E0,-1.408870239E0,7.944483478E0
1.527521479E1,-6.743027802E0,1.585652618E0,-7.777825928E-1,6.970485200E0
1.528528379E1,-5.927523651E0,1.409618683E0,-1.218466187E-1,6.094046936E0
1.529535179E1,-5.352569275E0,1.231189728E0,5.078938293E-1,5.515775751E0
1.530542079E1,-4.944368134E0,1.095571747E0,1.071471863E0,5.176398907E0
1.531548879E1,-4.786895599E0,1.035097504E0,1.387614441E0,5.090311401E0
1.532555779E1,-4.993915100E0,1.081351318E0,1.553170166E0,5.340491201E0
1.533562579E1,-5.507048035E0,1.152752838E0,1.567240906E0,5.840604525E0
1.534569479E1,-6.027066650E0,1.218166809E0,1.587149506E0,6.350472922E0
1.535576279E1,-6.447242889E0,1.232237549E0,1.556014252E0,6.745852845E0
1.536583179E1,-6.904990997E0,1.211281128E0,1.510359192E0,7.171282140E0
1.537589979E1,-7.541766815E0,1.204994202E0,1.584455109E0,7.800048443E0
1.538596779E1,-7.883955231E0,1.194665680E0,1.949246521E0,8.208747661E0
1.539603679E1,-8.081394653E0,1.301244049E0,2.499053192E0,8.558471971E0
1.540610479E1,-7.962092743E0,1.420695648E0,2.695295105E0,8.525134173E0
1.541617379E1,-7.754773865E0,1.570534058E0,2.635269928E0,8.339528914E0
1.542624179E1,-7.826325073E0,1.857936401E0,2.469564514E0,8.414394851E0
1.543631079E1,-8.020770721E0,2.163900146E0,2.311792603E0,8.623201949E0
1.544637879E1,-8.238418121E0,2.352058868E0,2.221979370E0,8.851039848E0
1.545644779E1,-8.404273224E0,2.420316925E0,2.117346954E0,8.998494350E0
1.546651579E1,-8.653654633E0,2.232307892E0,2.018851776E0,9.162134005E0
1.547658479E1,-9.087602234E0,1.846859436E0,2.074236603E0,9.502518699E0
1.548665279E1,-9.401649170E0,1.460512848E0,2.156415710E0,9.755728246E0
1.549672179E1,-9.733509064E0,1.192719727E0,2.285447388E0,1.006911361E1
1.550678979E1,-1.021266266E1,1.120270386E0,2.258054352E0,1.051913940E1
1.551685779E1,-1.079749649E1,1.247056732E0,1.927092590E0,1.103878466E1
1.552692679E1,-1.140358612E1,1.550775146E0,1.439556427E0,1.159823274E1
1.553699479E1,-1.203632034E1,2.207459564E0,9.340576172E-1,1.227266673E1
1.554706379E1,-1.260618530E1,3.423231354E0,4.689747620E-1,1.307112689E1
1.555713179E1,-1.313578400E1,4.639003143E0,2.486329651E-1,1.393308974E1
1.556720079E1,-1.347228424E1,5.602250061E0,6.971003723E-1,1.460731315E1
1.557726879E1,-1.345252533E1,6.194268951E0,1.952389984E0,1.493824729E1
1.558733779E1,-1.321092773E1,6.286477203E0,3.545077972E0,1.505376980E1
1.559740579E1,-1.289882675E1,5.318739624E0,4.999752960E0,1.482114208E1
1.560747479E1,-1.281545013E1,4.178261261E0,4.831203461E0,1.431901380E1
1.561754279E1,-1.298729279E1,3.465593262E0,2.686463470E0,1.370755983E1
1.562761179E1,-1.331855392E1,2.866688690E0,7.720944214E-1,1.364543559E1
1.563767979E1,-1.341121124E1,2.273322601E0,1.363664246E-1,1.360320471E1
1.564774779E1,-1.321886124E1,1.899400177E0,2.640509033E-1,1.335723535E1
1.565781679E1,-1.262759079E1,1.697470093E0,5.511538696E-1,1.275308686E1
1.566788479E1,-1.164563278E1,1.638193359E0,5.084925842E-1,1.177127882E1
1.567795379E1,-1.008767258E1,1.418450317E0,2.445913696E-1,1.018984614E1
1.568802179E1,-8.465196533E0,9.771679688E-1,4.206253052E-2,8.521512709E0
1.569809079E1,-7.639663239E0,6.444099426E-1,-1.037342834E-1,7.667494987E0
1.570815879E1,-7.923622742E0,4.897814941E-1,-3.876937866E-1,7.948206699E0
1.571822779E1,-8.854686584E0,4.393363953E-1,-7.776329041E-1,8.899618189E0
1.572829579E1,-1.034558624E1,5.153782654E-1,-1.075513458E0,1.041410095E1
1.573836479E1,-1.210802124E1,4.773573303E-1,-1.343306580E0,1.219165784E1
1.574843279E1,-1.359592712E1,2.618055725E-1,-1.426982574E0,1.367311434E1
1.575850179E1,-1.433164719E1,-1.140628052E-1,-1.297052765E0,1.439067293E1
1.576856979E1,-1.401924683E1,-5.295986938E-1,-1.047970734E0,1.406833320E1
1.577863779E1,-1.299208282E1,-9.201365662E-1,-7.262896729E-1,1.304485968E1
1.578870679E1,-1.199455719E1,-1.134640503E0,-5.364843750E-1,1.206004257E1
1.579877479E1,-1.125045456E1,-1.331481171E0,-4.873864746E-1,1.133944952E1
1.580884379E1,-1.053419403E1,-1.439107361E0,-6.188131714E-1,1.065003303E1
1.581891179E1,-9.735155640E0,-1.367705841E0,-7.825726318E-1,9.861860601E0
1.582898079E1,-8.965755615E0,-1.210083618E0,-1.034199371E0,9.105967519E0
1.583904879E1,-8.286318512E0,-1.091230774E0,-1.058448944E0,8.424617098E0
1.584911779E1,-7.650590515E0,-1.021326141E0,-9.443861389E-1,7.776021315E0
1.585918579E1,-7.306905212E0,-8.906478882E-1,-7.171586609E-1,7.395838964E0
1.586925479E1,-7.034022675E0,-9.315129089E-1,-1.712438965E-1,7.097500670E0
1.587932279E1,-6.612199860E0,-1.246008911E0,6.673123169E-1,6.761584941E0
1.588939179E1,-6.115382996E0,-1.520238647E0,1.466650085E0,6.469937960E0
1.589945979E1,-5.782175903E0,-1.629960480E0,2.011517029E0,6.335339778E0
1.590952779E1,-5.809868317E0,-1.517394562E0,2.253713379E0,6.413757098E0
1.591959679E1,-5.683081970E0,-1.162781982E0,2.375709686E0,6.268451095E0
1.592966479E1,-5.740263062E0,-7.704478455E-1,2.455344086E0,6.290701430E0
1.593973379E1,-5.511838074E0,-4.092489624E-1,2.600691833E0,6.108309232E0
1.594980179E1,-5.461542664E0,-5.718109131E-2,2.694696350E0,6.090411018E0
1.595987079E1,-5.487289124E0,2.306703186E-1,2.756667480E0,6.145141684E0
1.596993879E1,-5.578299866E0,3.267704773E-1,2.930306396E0,6.309588252E0
1.598000779E1,-5.748795319E0,1.341210938E-1,3.154240723E0,6.558648536E0
1.599007579E1,-6.044131165E0,-4.420307922E-1,3.254232788E0,6.878731263E0
1.600014479E1,-6.302044830E0,-1.026864624E0,3.189866638E0,7.137609486E0
1.601021279E1,-6.451434174E0,-1.431473236E0,3.121458893E0,7.308462502E0
1.602028179E1,-6.600823517E0,-1.571731567E0,3.129542084E0,7.472298500E0
1.603034979E1,-6.896907806E0,-1.464853821E0,3.128494263E0,7.713663874E0
1.604041779E1,-7.175328827E0,-1.257984009E0,3.190315704E0,7.952734236E0
1.605048679E1,-7.461683350E0,-1.040336609E0,3.300187225E0,8.224977471E0
1.606055479E1,-7.783065033E0,-8.948391724E-1,3.473676453E0,8.569904699E0
1.607062379E1,-8.114625549E0,-7.029382324E-1,3.773203583E0,8.976543613E0
1.608069179E1,-8.618627472E0,-3.818559265E-1,4.133953400E0,9.566406021E0
1.609076079E1,-9.264384613E0,1.204994202E-1,4.624782715E0,1.035528645E1
1.610082879E1,-9.963730316E0,5.939648438E-1,5.237608337E0,1.127214519E1
1.611089717E1,-1.097353043E1,7.640112305E-1,5.765261078E0,1.241935258E1
1.612096517E1,-1.207538910E1,5.360353088E-1,6.054459686E0,1.351883271E1
1.613103417E1,-1.293909302E1,-1.683998108E-1,6.482569427E0,1.447315422E1
1.614110217E1,-1.289343796E1,-1.244212646E0,7.263196106E0,1.485068433E1
1.615117117E1,-1.229333588E1,-2.168241119E0,7.467221832E0,1.454602277E1
1.616123917E1,-1.130748596E1,-2.565365295E0,6.904092865E0,1.349469659E1
1.617130817E1,-1.040201889E1,-2.662962341E0,6.147117004E0,1.237256695E1
1.618137617E1,-9.911189575E0,-2.488874359E0,5.701194305E0,1.170170034E1
1.619144417E1,-9.603728943E0,-1.974244537E0,5.704786835E0,1.134344938E1
1.620151317E1,-9.987231445E0,-1.998793488E0,5.849835205E0,1.174566044E1
1.621158117E1,-1.153740784E1,-2.766247559E0,5.915997620E0,1.325756135E1
1.622165017E1,-1.372705444E1,-2.902763672E0,5.743256836E0,1.516057584E1
1.623171817E1,-1.486932907E1,-1.917961578E0,5.473667450E0,1.596046863E1
1.624178717E1,-1.418884415E1,-1.088237000E0,4.898264008E0,1.504993516E1
1.625185517E1,-1.359892090E1,-7.857160950E-1,4.361629944E0,1.430286038E1
1.626192417E1,-1.270048920E1,-9.867480469E-1,3.967798920E0,1.334239580E1
1.627199217E1,-1.090108109E1,-1.582060089E0,3.376977539E0,1.152130462E1
1.628206117E1,-9.136550446E0,-2.154320068E0,2.193239136E0,9.639914258E0
1.629212917E1,-8.263565826E0,-2.276166687E0,8.713380432E-1,8.615490987E0
1.630219817E1,-8.398884430E0,-2.041454773E0,-9.744735718E-2,8.643974389E0
1.631226617E1,-9.383536835E0,-1.625020752E0,-3.284170532E-1,9.528867390E0
1.632233417E1,-1.022778122E1,-9.226812744E-1,-4.535568237E-2,1.026941608E1
1.633240317E1,-1.088311844E1,-5.150788879E-1,3.049159241E-1,1.089956636E1
1.634247117E1,-1.183079773E1,-3.326083374E-1,2.609074402E-1,1.183834769E1
1.635254017E1,-1.276859756E1,-1.429527283E-1,5.298980713E-2,1.276950771E1
1.636260817E1,-1.350222198E1,6.616241455E-2,-3.020718384E-1,1.350576260E1
1.637267717E1,-1.359293335E1,3.203338623E-1,-7.873626709E-1,1.361948570E1
1.638274517E1,-1.338756042E1,6.533912659E-1,-1.452130280E0,1.348192778E1
1.639281417E1,-1.285122574E1,1.044228516E0,-2.121987305E0,1.306702898E1
1.640288217E1,-1.191103088E1,1.494941254E0,-2.605332184E0,1.228394325E1
1.641295117E1,-1.106244553E1,1.872007141E0,-3.021616516E0,1.161947839E1
1.642301917E1,-1.030307465E1,2.013912048E0,-3.025358734E0,1.092529104E1
1.643308817E1,-9.388626251E0,2.044598236E0,-2.823877716E0,1.001503720E1
1.644315617E1,-8.340356140E0,2.055974579E0,-2.323618011E0,8.898751186E0
1.645322417E1,-7.361990662E0,2.032623138E0,-1.779200134E0,7.841939584E0
1.646329317E1,-6.434669037E0,1.899100800E0,-1.195414124E0,6.814731424E0
1.647336117E1,-5.617218933E0,1.697470093E0,-6.548881531E-1,5.904526378E0
1.648343017E1,-4.969515839E0,1.560355225E0,-1.321751404E-1,5.210399828E0
1.649349817E1,-4.515659637E0,1.447340240E0,3.875440979E-1,4.757748014E0
1.650356717E1,-4.213887177E0,1.223854980E0,8.569679260E-1,4.470912678E0
1.651363517E1,-4.172273712E0,1.014440460E0,1.171912994E0,4.450880524E0
1.652370417E1,-4.607269135E0,9.017248535E-1,1.338067474E0,4.881645333E0
1.653377217E1,-5.132676544E0,8.003855896E-1,1.322050781E0,5.360298860E0
1.654384117E1,-5.610333252E0,7.289840698E-1,1.238674164E0,5.791508496E0
1.655390917E1,-6.235583038E0,7.550299072E-1,1.106648712E0,6.377870911E0
1.656397817E1,-6.970255280E0,8.116122437E-1,1.084345093E0,7.100632181E0
1.657404617E1,-7.729326782E0,9.418414307E-1,1.241218872E0,7.884807041E0
1.658411417E1,-8.376131744E0,1.127904510E0,1.901645508E0,8.663025293E0
1.659418317E1,-8.806187439E0,1.427431641E0,2.860401764E0,9.368478881E0
1.660425117E1,-8.654403076E0,1.565744019E0,3.147504730E0,9.341147304E0
1.661432017E1,-8.319699097E0,1.656305695E0,3.299887848E0,9.102197615E0
1.662438817E1,-8.260422363E0,1.901495819E0,3.355572052E0,9.116475622E0
1.663445717E1,-8.395291901E0,2.221081238E0,3.358266449E0,9.310858258E0
1.664452517E1,-8.582253113E0,2.547851715E0,3.251538391E0,9.524658459E0
1.665459417E1,-8.767717438E0,2.774480438E0,3.076402588E0,9.697157504E0
1.666466217E1,-9.008865967E0,2.794838104E0,2.975063324E0,9.890489766E0
1.667473117E1,-9.447304230E0,2.308499451E0,3.000211029E0,1.017752392E1
