"Time (s)","Acceleration x (m/s^2)","Acceleration y (m/s^2)","Acceleration z (m/s^2)","Absolute acceleration (m/s^2)"
3.063332988E-4,-3.434158630E0,1.291214905E0,1.300435730E1,1.351199431E1
1.037533325E-2,-3.863465881E-1,-5.556445312E-1,1.476873825E1,1.478423600E1
2.044533333E-2,-9.285191345E-1,1.199755096E0,9.891730042E0,1.000739143E1
3.051433328E-2,-5.569617920E0,4.863985291E0,1.603121292E1,1.765442677E1
4.058333323E-2,-1.160431870E1,3.755839691E0,2.758867905E1,3.016457783E1
5.065333331E-2,-1.466500397E0,6.600374451E0,2.032189041E1,2.141716125E1
6.072233326E-2,-2.225122833E0,8.402177582E0,1.030023056E1,1.347748156E1
7.079233334E-2,-9.982591095E0,1.062041473E0,8.757837982E0,1.332215385E1
8.086133329E-2,-8.183332672E0,-1.681603088E0,5.279670868E0,9.882795507E0
9.093033324E-2,-7.449857941E0,-2.491269379E0,3.153941345E0,8.464877581E0
1.010003333E-1,-5.933361511E0,2.650987244E-1,4.648134155E0,7.541896796E0
1.110693333E-1,-6.136489105E0,1.495839386E0,3.513194275E0,7.227486978E0
1.211383332E-1,-5.996829529E0,3.083587646E0,5.848637695E0,8.926199643E0
1.312083333E-1,-7.192992096E0,4.237687683E0,1.011790970E1,1.311751611E1
1.412773333E-1,-7.839797058E0,4.275858307E0,8.502319336E0,1.233023991E1
1.513463333E-1,-5.802533569E0,5.010680237E0,9.434431000E0,1.215667720E1
1.614163333E-1,-4.141437836E0,5.638774109E0,9.407037964E0,1.172346553E1
1.714853332E-1,-4.101321259E0,4.159101105E0,8.499026184E0,1.031273020E1
1.815553333E-1,-2.446362762E0,2.165696411E0,6.799460449E0,7.543712224E0
1.916243333E-1,-5.957611084E-2,2.671793976E0,6.505022736E0,7.032592207E0
2.016933333E-1,-2.495310974E-1,3.260220337E0,7.069498901E0,7.789038267E0
2.117633333E-1,-8.547225952E-2,2.725831604E0,6.876400452E0,7.397455415E0
2.218323332E-1,1.145567780E0,2.827170868E0,7.657326508E0,8.242564522E0
2.319013333E-1,3.267555084E0,3.291654968E0,9.263636169E0,1.035986794E1
2.419713333E-1,5.265300751E0,2.152224426E0,1.409648621E1,1.520086791E1
2.520403332E-1,3.821702728E0,1.472487946E0,1.049991531E1,1.127039725E1
2.621093333E-1,2.139351196E0,6.701564026E-1,8.188272400E0,8.489625318E0
2.721793333E-1,7.213499451E-1,-3.341052246E-1,9.298064575E0,9.331986760E0
2.822483333E-1,-1.329385529E0,-1.896855469E0,9.994416504E0,1.025932200E1
2.923183333E-1,-4.179159393E0,-2.919528809E0,1.103265747E1,1.215354074E1
3.023873332E-1,-7.905660095E0,-3.447480927E0,1.134730316E1,1.425292515E1
3.124563333E-1,-1.230830475E1,-3.482208710E0,1.100900665E1,1.687656277E1
3.225263333E-1,-1.468730759E1,-3.962110748E0,1.049482590E1,1.848125256E1
3.325953333E-1,-1.139280853E1,-2.101180573E0,1.255783585E1,1.708538227E1
3.426643333E-1,-6.052663422E0,-4.323010254E-1,9.263935547E0,1.107439030E1
3.527343333E-1,-2.731370087E0,3.867956543E-1,7.835755463E0,8.307169018E0
3.628033333E-1,-1.925745392E0,1.288819885E-1,7.661218414E0,7.900593236E0
3.728723333E-1,-3.277584229E0,-9.930349731E-1,7.090155945E0,7.873943622E0
3.829423332E-1,-2.277962952E0,-9.162446594E-1,8.228838043E0,8.587339229E0
3.930113333E-1,-1.468745728E0,-5.104385376E-2,9.229357452E0,9.345633123E0
4.030813333E-1,-2.718646545E0,1.191073151E0,9.679321747E0,1.012417719E1
4.131503333E-1,-8.395441589E0,1.030157776E0,7.410938873E0,1.124574051E1
4.232193333E-1,-8.378826141E0,1.894759827E0,8.853788452E0,1.233630464E1
4.332893332E-1,-7.652237091E0,1.817370758E0,9.220825195E0,1.211953738E1
4.433583333E-1,-9.360335083E0,6.339317322E-1,7.651788025E0,1.210651074E1
4.534273333E-1,-9.479187927E0,6.057902527E-1,8.312364349E0,1.262209914E1
4.634973332E-1,-7.819289703E0,1.259780273E0,8.989705811E0,1.198094939E1
4.735663333E-1,-6.201154633E0,1.876946869E0,8.818611603E0,1.094281312E1
4.836363333E-1,-4.579876099E0,2.193688202E0,8.348439331E0,9.771590058E0
4.937053333E-1,-2.706671448E0,1.546583862E0,7.346273346E0,7.980333580E0
5.037743333E-1,-1.758094025E0,8.443940735E-1,6.991361389E0,7.258307656E0
5.138443332E-1,-2.346969452E0,4.089495850E-1,6.370302887E0,6.801195795E0
5.239133333E-1,-3.362607422E0,7.170089722E-2,5.765859833E0,6.675133654E0
5.339823333E-1,-3.879033508E0,-9.699829102E-2,5.211113434E0,6.497077254E0
5.440523333E-1,-4.519551544E0,1.800755310E-1,5.187013550E0,6.882142321E0
5.541213333E-1,-4.792583771E0,3.336561584E-1,5.533992004E0,7.328386803E0
5.641903332E-1,-6.363566895E0,5.059478760E-1,6.137985992E0,8.855836432E0
5.742603333E-1,-8.660240936E0,9.583071899E-1,8.604257355E0,1.224546326E1
5.843293333E-1,-7.915988617E0,1.159339142E0,9.870623932E0,1.270575302E1
5.943993332E-1,-8.350984039E0,7.815248108E-1,1.041429337E1,1.337188176E1
6.044683333E-1,-7.704179077E0,6.496490479E-1,1.003977219E1,1.267175776E1
6.145373333E-1,-6.695426788E0,6.870712280E-1,8.935368805E0,1.118667164E1
6.246073333E-1,-6.980733490E0,6.994953918E-1,7.762108612E0,1.046280383E1
6.346763333E-1,-6.973398743E0,9.403445435E-1,6.429130554E0,9.531330315E0
6.447453332E-1,-5.082231445E0,2.106569366E0,6.168372803E0,8.265321167E0
6.548153333E-1,-3.998634796E0,2.668201447E0,5.379962311E0,7.214733097E0
6.648843333E-1,-4.595593414E0,2.459235992E0,6.654711456E0,8.452958362E0
6.749543332E-1,-3.444337463E0,2.500699768E0,7.036268005E0,8.223504565E0
6.850233333E-1,-4.198319550E0,2.631527710E0,6.723119202E0,8.351715807E0
6.950923332E-1,-5.100792847E0,2.269730072E0,6.909331970E0,8.883052997E0
7.051623333E-1,-4.332290955E0,7.707472229E-1,1.073986633E1,1.160635710E1
7.152313333E-1,-4.700824585E0,1.570234680E-1,9.350904694E0,1.046717855E1
7.253003332E-1,-7.615862732E0,1.938319244E0,5.414540405E0,9.543358656E0
7.353703333E-1,-6.436165924E0,1.728006592E0,7.529642029E0,1.005513539E1
7.454393333E-1,-5.480253754E0,1.447340240E0,8.812923431E0,1.047833930E1
7.555083333E-1,-5.342240753E0,1.297651520E0,9.123677216E0,1.065199144E1
7.655783333E-1,-5.812862091E0,1.049467621E0,9.418114929E0,1.111717756E1
7.756466250E-1,-6.619384918E0,7.966433716E-1,9.571845245E0,1.166495258E1
7.857166249E-1,-6.221212921E0,5.620811462E-1,9.399553528E0,1.128587754E1
7.957856250E-1,-6.420747986E0,4.453239441E-1,9.210496674E0,1.123643925E1
8.058546250E-1,-6.548731842E0,-1.218466187E-1,8.498128052E0,1.072934834E1
8.159246249E-1,-5.925577698E0,-1.017883301E0,6.763535156E0,9.049528456E0
8.259936250E-1,-5.285957794E0,-6.325845337E-1,6.399941254E0,8.324707865E0
8.360626249E-1,-4.242777100E0,-2.941383362E-1,7.607480164E0,8.715585426E0
8.461326249E-1,-4.556973724E0,-7.499404907E-2,8.921597443E0,1.001830997E1
8.562016250E-1,-4.725223846E0,1.324745178E-1,9.067094879E0,1.022533615E1
8.662706249E-1,-4.771028595E0,3.532653809E-1,9.848020935E0,1.094856277E1
8.763406250E-1,-5.171745300E0,9.693841553E-1,9.186396790E0,1.058662085E1
8.864096249E-1,-5.992638245E0,1.201251984E0,8.616831207E0,1.056430308E1
8.964796249E-1,-6.206094360E0,1.248104553E0,8.771759033E0,1.081744557E1
9.065486250E-1,-5.679040375E0,1.747915192E0,9.077273712E0,1.084912923E1
9.166176249E-1,-5.873635712E0,2.187850342E0,9.338480530E0,1.124693310E1
9.266876250E-1,-6.535409546E0,1.973196716E0,7.908653870E0,1.044757815E1
9.367566250E-1,-7.334447937E0,6.056405640E-1,4.965773621E0,8.878053541E0
9.468256249E-1,-6.263275452E0,3.248245239E-1,4.909640350E0,7.964841412E0
9.568956250E-1,-4.404889984E0,6.089337158E-1,6.537056122E0,7.906134250E0
9.669646249E-1,-3.822002106E0,9.749226379E-1,8.046517181E0,8.961284115E0
9.770336249E-1,-4.513414307E0,1.223555603E0,7.978857880E0,9.248252272E0
9.871036250E-1,-5.702391815E0,1.633103943E0,8.424780579E0,1.030345712E1
9.971726249E-1,-5.618117065E0,1.975142670E0,8.265811157E0,1.018764261E1
1.007242625E0,-5.518125000E0,1.862876129E0,8.206235046E0,1.006291730E1
1.017311625E0,-5.701942749E0,1.592089233E0,7.779921570E0,9.776199613E0
1.027380625E0,-5.480553131E0,1.845661926E0,7.540868683E0,9.503032730E0
1.037450625E0,-5.687123566E0,2.239043884E0,7.680378571E0,9.815544150E0
1.047519625E0,-5.826633453E0,2.598296814E0,7.986342316E0,1.022166656E1
1.057588625E0,-5.996081085E0,2.740950165E0,8.030949554E0,1.039047386E1
1.067658625E0,-5.779780884E0,3.059338074E0,8.145760803E0,1.044599615E1
1.077727625E0,-4.094285889E0,2.492915955E0,8.915609894E0,1.012254448E1
1.087796625E0,-2.450404358E0,8.318202209E-1,8.586743774E0,8.968197982E0
1.097866625E0,-6.301296387E0,2.138602753E0,7.853867798E0,1.029384269E1
1.107935625E0,-7.530091095E0,2.795586548E0,8.689729614E0,1.183338400E1
1.118005625E0,-7.835456085E0,2.849025421E0,8.955277405E0,1.223553478E1
1.128074625E0,-4.913681946E0,3.239563293E0,9.595346375E0,1.125654088E1
1.138143625E0,-3.636388092E0,3.798351288E0,9.096882935E0,1.050733410E1
1.148213625E0,-4.611460419E0,4.105213165E0,7.667205963E0,9.844002723E0
1.158282625E0,-6.570137329E0,3.831582184E0,5.642815704E0,9.470432705E0
1.168351625E0,-5.947282562E0,4.290228424E0,5.579796753E0,9.214681851E0
1.178421625E0,-5.826783142E0,4.888085175E0,7.478598175E0,1.066649938E1
1.188490625E0,-5.090614014E0,4.043691101E0,9.152267761E0,1.122629921E1
1.198559625E0,-6.736740875E0,2.877017212E0,8.915759583E0,1.153913665E1
1.208629625E0,-8.390501862E0,2.312241669E0,7.323221283E0,1.137438143E1
1.218698625E0,-7.311695251E0,1.784738617E0,6.250102844E0,9.783146986E0
1.228768625E0,-4.145180054E0,6.541397095E-2,7.418872375E0,8.498615416E0
1.238837625E0,-3.822451172E0,-6.707551575E-1,7.233108673E0,8.208465540E0
1.248906625E0,-5.579796753E0,4.617897034E-1,6.514602814E0,8.589961080E0
1.258976625E0,-8.309220886E0,2.775677948E0,4.729564819E0,9.955718115E0
1.269045625E0,-9.198371887E0,4.196523285E0,4.371359711E0,1.101497339E1
1.279114625E0,-9.580826569E0,4.877307587E0,4.059707794E0,1.149180553E1
1.289184625E0,-7.137607269E0,4.406087494E0,4.653073883E0,9.592191673E0
1.299253625E0,-5.475912781E0,3.908971252E0,4.383783875E0,8.030145584E0
1.309322625E0,-4.911137238E0,3.450325012E0,3.841611328E0,7.126148276E0
1.319392625E0,-5.690416718E0,2.690505066E0,4.202810211E0,7.568571437E0
1.329461625E0,-6.243516541E0,2.495011597E0,4.431833954E0,8.052809066E0
1.339531625E0,-6.639892273E0,2.526895294E0,4.387825470E0,8.350232427E0
1.349600625E0,-8.321645050E0,2.240091705E0,5.169799347E0,1.004960758E1
1.359669625E0,-7.887996826E0,2.329006805E0,6.055657196E0,1.021350825E1
1.369739625E0,-6.784790955E0,2.499651947E0,6.970255280E0,1.004321198E1
1.379808625E0,-9.108708344E0,3.783232727E0,6.795418854E0,1.197744276E1
1.389877625E0,-9.454489288E0,4.973258057E0,7.116950226E0,1.283634075E1
1.399947625E0,-8.857830048E0,5.584736481E0,7.367678833E0,1.280363722E1
1.410016625E0,-7.231162720E0,5.144352264E0,7.141050110E0,1.139072742E1
1.420085625E0,-5.517975311E0,3.978277130E0,7.072193298E0,9.812780366E0
1.430155625E0,-5.460794220E0,3.708088989E0,6.975045319E0,9.603200230E0
1.440224625E0,-5.406457214E0,4.019441528E0,6.754553833E0,9.539899753E0
1.450294625E0,-5.911656647E0,4.475243683E0,6.471342773E0,9.841431177E0
1.460363625E0,-6.121220856E0,4.793481903E0,6.074517975E0,9.866437156E0
1.470432625E0,-6.020330658E0,4.983287201E0,5.895340576E0,9.789411273E0
1.480502625E0,-5.866750031E0,4.952451324E0,5.551804962E0,9.474601225E0
1.490571625E0,-5.585933990E0,4.565955048E0,4.821024628E0,8.677147141E0
1.500640625E0,-5.790708160E0,4.314328308E0,4.537514191E0,8.528467903E0
1.510710625E0,-6.083349609E0,4.305646362E0,4.905449066E0,8.922396741E0
1.520779625E0,-7.440577240E0,3.547323303E0,8.256680145E0,1.166698158E1
1.530848625E0,-8.563542023E0,2.620151367E0,9.914333038E0,1.336014389E1
1.540918625E0,-8.465495911E0,2.370919647E0,9.043893127E0,1.261260813E1
1.550987625E0,-8.114924927E0,2.302511902E0,8.610693970E0,1.205394617E1
1.561056625E0,-6.859036560E0,2.036215668E0,7.403005371E0,1.029548665E1
1.571126625E0,-5.150938568E0,1.752106476E0,7.369624786E0,9.160426558E0
1.581195625E0,-4.229005737E0,1.811981964E0,7.123835907E0,8.480377715E0
1.591265625E0,-5.021457825E0,2.341131592E0,6.456224213E0,8.507571152E0
1.601334625E0,-5.358407135E0,2.391576691E0,6.183940430E0,8.524862775E0
1.611403625E0,-5.443879395E0,2.235151978E0,6.177204437E0,8.531681070E0
1.621473625E0,-6.043233032E0,2.105970612E0,7.151378632E0,9.596769979E0
1.631542625E0,-6.920708313E0,2.250569916E0,8.091723175E0,1.088288806E1
1.641611625E0,-7.421267395E0,2.840792542E0,6.796167297E0,1.045625181E1
1.651681625E0,-7.557035065E0,4.106111298E0,6.104455719E0,1.054672028E1
1.661750625E0,-7.883057098E0,4.630321198E0,4.931943970E0,1.038780703E1
1.671819625E0,-7.372768250E0,4.606071625E0,4.064497833E0,9.596548865E0
1.681889625E0,-6.563251648E0,4.322112122E0,3.511098633E0,8.607249212E0
1.691958625E0,-5.417085114E0,4.272565155E0,4.055815887E0,8.003078573E0
1.702028625E0,-4.974904633E0,4.037404175E0,3.930077362E0,7.516369911E0
1.712097625E0,-5.214406586E0,4.026177521E0,3.206033020E0,7.326581003E0
1.722166625E0,-3.998036041E0,3.872896271E0,4.741390228E0,7.311935380E0
1.732236625E0,-5.175637207E0,4.611011353E0,6.252797241E0,9.335208596E0
1.742305625E0,-6.789730682E0,5.291496277E0,8.136031036E0,1.184463493E1
1.752374625E0,-7.098538513E0,5.099146271E0,1.034723282E1,1.354458448E1
1.762444625E0,-7.497608643E0,4.371210022E0,1.035142410E1,1.350827870E1
1.772513625E0,-7.102131042E0,4.161047058E0,9.118138733E0,1.228393389E1
1.782582625E0,-6.950496368E0,3.962260437E0,7.817194061E0,1.118559031E1
1.792652625E0,-7.184609528E0,3.605552216E0,8.498277740E0,1.169783507E1
1.802721625E0,-7.161557465E0,3.994892578E0,8.878636780E0,1.208624272E1
1.812791625E0,-7.112309875E0,4.084705811E0,8.112529907E0,1.153615685E1
1.822860625E0,-6.379284210E0,3.947441254E0,6.725514221E0,1.007522213E1
1.832929625E0,-6.402935028E0,3.836970978E0,5.016967163E0,8.993880296E0
1.842999625E0,-5.230423279E0,3.245999908E0,4.105961609E0,7.399511052E0
1.853068625E0,-6.001918945E0,3.027304688E0,4.694537659E0,8.199163892E0
1.863137625E0,-8.311915283E0,3.633244629E0,5.225633240E0,1.046879386E1
1.873207625E0,-6.251150665E0,3.799698486E0,5.830675049E0,9.354750919E0
1.883276625E0,-5.995182953E0,3.630999298E0,7.477250977E0,1.024869049E1
1.893345625E0,-7.808212738E0,4.310286713E0,8.395142212E0,1.224847625E1
1.903415625E0,-6.224955139E0,4.229604492E0,7.594606934E0,1.069194440E1
1.913484625E0,-6.829697571E0,4.132905579E0,6.278992767E0,1.015634913E1
1.923553625E0,-7.371121674E0,3.961212616E0,4.649930420E0,9.573217486E0
1.933623625E0,-6.054609375E0,3.479664001E0,4.215084686E0,8.156794417E0
1.943692625E0,-6.418203278E0,3.905378723E0,4.840184784E0,8.937153072E0
1.953762625E0,-7.075785828E0,4.316723328E0,4.501588898E0,9.432133797E0
1.963831625E0,-7.429949341E0,4.754862213E0,3.448079681E0,9.471120069E0
1.973900625E0,-7.449558563E0,5.034929810E0,3.016078033E0,9.483837181E0
1.983970625E0,-7.518415375E0,5.366789703E0,3.272794189E0,9.800009351E0
1.994039625E0,-7.121590576E0,5.803880768E0,3.790866852E0,9.938448359E0
2.004108625E0,-5.319488068E0,4.988077240E0,2.814297638E0,7.816529860E0
2.014178625E0,-4.402195587E0,3.640729065E0,9.794132996E-1,5.795988658E0
2.024247625E0,-4.823719025E0,3.001109161E0,1.954934692E-1,5.684464717E0
2.034316625E0,-5.071902924E0,2.533930664E0,2.802172852E-1,5.676576927E0
2.044386625E0,-5.326822815E0,2.326761475E0,1.196611633E0,5.934706367E0
2.054455625E0,-5.821544037E0,2.204166412E0,2.989433441E0,6.905464274E0
2.064525625E0,-7.245832214E0,2.315085754E0,6.648723907E0,1.010283307E1
2.074594625E0,-1.051443512E1,2.133962402E0,2.205648331E1,2.452744580E1
2.084663625E0,-1.089644073E1,2.870430908E0,1.093146790E1,1.569932434E1
2.094733625E0,-8.903485107E0,2.727029114E0,5.215155029E0,1.067270241E1
2.104802625E0,-6.279741211E0,1.943708038E0,6.986122284E0,9.592656315E0
2.114871625E0,-4.870721283E0,2.766397247E0,8.845405884E0,1.046986556E1
2.124941625E0,-5.024601288E0,4.090094604E0,8.515641632E0,1.070007684E1
2.135010625E0,-5.410947876E0,4.795128479E0,6.876400452E0,9.977800219E0
2.145079625E0,-5.991590424E0,5.401517487E0,6.212830353E0,1.018208269E1
2.155149625E0,-5.941145325E0,4.856949921E0,6.174959106E0,9.849735543E0
2.165218625E0,-6.926246796E0,3.509601746E0,4.913232880E0,9.188582938E0
2.175287625E0,-7.974965973E0,2.177821198E0,4.966522064E0,9.644134427E0
2.185357625E0,-8.011040955E0,1.800755310E0,5.660179596E0,9.972819557E0
2.195426625E0,-8.318950653E0,2.431543579E0,5.785768433E0,1.042077063E1
2.205496625E0,-9.051078186E0,3.253634033E0,5.225633240E0,1.094602181E1
2.215565625E0,-9.702224121E0,3.560795288E0,4.340972900E0,1.120965930E1
2.225634625E0,-9.580826569E0,3.319497070E0,4.220024414E0,1.098270935E1
2.235704625E0,-8.964857483E0,2.897823944E0,5.011428680E0,1.067147931E1
2.245773625E0,-8.914262695E0,2.320624237E0,4.977149963E0,1.047002378E1
2.255842625E0,-8.571325836E0,1.998045044E0,4.402045898E0,9.840620848E0
2.265912625E0,-6.708749084E0,2.163750458E0,3.616030426E0,7.922424273E0
2.275981625E0,-7.620203705E0,2.157613220E0,3.983815613E0,8.865302372E0
2.286050625E0,-8.695717163E0,2.516417084E0,3.114872589E0,9.573415439E0
2.296120625E0,-9.236093445E0,2.710263977E0,2.510429535E0,9.947522777E0
2.306189625E0,-9.531878357E0,2.925965424E0,2.273621979E0,1.022679498E1
2.316259625E0,-9.723928986E0,3.230432281E0,2.312091980E0,1.050410667E1
2.326328625E0,-9.749974823E0,3.368594971E0,2.323767700E0,1.057399345E1
2.336397625E0,-9.961934052E0,3.438499603E0,2.360142059E0,1.079970741E1
2.346467625E0,-9.733059998E0,3.461551666E0,2.748434601E0,1.068965339E1
2.356536625E0,-9.379046173E0,3.359314270E0,2.558030548E0,1.028567060E1
2.366605625E0,-9.191186829E0,3.066672821E0,1.876348114E0,9.869299861E0
2.376675625E0,-9.477241974E0,2.196831665E0,1.415905609E0,9.831020979E0
2.386744625E0,-1.070977890E1,1.277443542E0,2.057621155E0,1.098021088E1
2.396813625E0,-1.033495834E1,1.151555328E0,1.675166473E0,1.053297804E1
2.406883625E0,-1.001327728E1,1.436263275E0,9.572593689E-1,1.016095072E1
2.416952625E0,-9.955347748E0,1.991309052E0,9.686357117E-1,1.019865264E1
2.427021625E0,-1.052176987E1,2.521356812E0,1.128503265E0,1.087834550E1
2.437091625E0,-1.074480606E1,3.021915894E0,1.123713226E0,1.121809094E1
2.447160625E0,-1.115390533E1,3.131338348E0,8.701405334E-1,1.161774628E1
2.457230625E0,-1.110166397E1,3.398233337E0,4.971162415E-1,1.162075976E1
2.467299625E0,-5.802234192E0,4.068240051E0,-6.297404480E-1,7.114286455E0
2.477368625E0,-4.922513580E0,2.967129822E0,-7.342231750E-1,5.794314713E0
2.487438625E0,-7.640261993E0,3.349434814E0,-1.490899658E-1,8.343533108E0
2.497507625E0,-9.132658539E0,5.542823639E0,3.192860413E-1,1.068785710E1
2.507576625E0,-1.102173019E1,5.751489716E0,7.397616577E-1,1.245413256E1
2.517646625E0,-1.139520355E1,5.216053162E0,1.101409607E0,1.258057939E1
2.527715625E0,-1.031684601E1,4.011208649E0,1.019230499E0,1.111602164E1
2.537784625E0,-8.236771545E0,2.161505127E0,2.875520325E-1,8.520516186E0
2.547854625E0,-5.919141083E0,1.786235504E0,1.438508606E-1,6.184461295E0
2.557923625E0,-6.065985718E0,1.427132263E0,2.944377136E-1,6.238556146E0
2.567992625E0,-6.695726166E0,9.310638428E-1,2.481838989E-1,6.764704281E0
2.578062625E0,-6.243366852E0,1.633103943E-1,2.743794250E-1,6.251526534E0
2.588131625E0,-6.529871063E0,1.910028076E-1,8.211923218E-1,6.584075866E0
2.598201625E0,-6.252647552E0,7.306306458E-1,1.934427338E0,6.585699027E0
2.608270625E0,-6.099665680E0,2.110610962E-1,4.194128265E0,7.405483110E0
2.618339625E0,-5.960604858E0,-2.703378296E-1,5.671256561E0,8.231952612E0
2.628409625E0,-4.979844360E0,-1.395098877E-1,7.935747528E0,9.369866685E0
2.638478625E0,-5.096152496E0,4.650828552E-1,1.056473053E1,1.173885018E1
2.648547625E0,-7.893984375E0,-3.188369751E-2,1.206521027E1,1.441822821E1
2.658617625E0,-1.156375305E1,-7.325765991E-1,1.223810074E1,1.685313510E1
2.668686625E0,-1.149624344E1,-4.155508575E0,1.130015121E1,1.664708029E1
2.678755625E0,7.873626709E-2,-1.189606201E1,9.301208038E0,1.510082653E1
2.688825625E0,-1.478026428E0,8.016280060E0,6.009553070E0,1.012719291E1
2.698894625E0,-1.234333191E1,5.342091064E0,3.310815125E0,1.385125541E1
2.708964625E0,-1.699700455E1,8.975335693E-1,1.947749634E0,1.713176753E1
2.719033625E0,-1.942435684E1,2.519560547E0,-5.316943359E-1,1.959429823E1
2.729102625E0,-2.018253021E1,3.544329529E0,-1.702559509E0,2.056199179E1
2.739172625E0,-1.832145035E1,2.248324585E0,-3.783831482E0,1.884271443E1
2.749241625E0,-1.630155075E1,7.716453552E-1,-5.405110016E0,1.719160283E1
2.759310625E0,-1.056203613E1,-6.361770630E-2,-2.206561432E0,1.079025337E1
2.769381208E0,-4.609514465E0,-2.032772827E-1,3.946692810E0,6.071682584E0
2.779450208E0,-7.375612335E0,-2.671943665E-1,4.955594788E0,8.889823949E0
2.789519208E0,-1.028196854E1,4.331991577E-1,8.599167938E0,1.341089959E1
2.799589208E0,-1.361194382E1,3.073708191E0,9.656569061E0,1.697003307E1
2.809658208E0,-1.360161530E1,4.640050964E0,9.231902161E0,1.708104297E1
2.819727208E0,-1.057745407E1,4.959486694E0,6.484216003E0,1.336129111E1
2.829797208E0,-8.388855286E0,4.718487854E0,7.177574158E-1,9.651538548E0
2.839866208E0,-7.298522644E0,4.009113007E0,-5.526208191E0,9.994018054E0
2.849936208E0,-6.063141632E0,9.330097961E-1,-7.363337860E0,9.583889512E0
2.860005208E0,-6.458768921E0,-3.188968506E0,-4.736300812E0,8.620774993E0
2.870074208E0,-8.691525879E0,-4.564458160E0,-1.544787598E0,9.937971077E0
2.880144208E0,-8.791667633E0,-3.385509796E0,7.458988953E-1,9.450474142E0
2.890213208E0,-7.456743622E0,-2.471360779E0,2.617307281E0,8.280153800E0
2.900282208E0,-6.642287292E0,-1.739532623E0,3.900738373E0,7.896943338E0
2.910352208E0,-7.563321991E0,-1.024170227E0,4.890779572E0,9.064904247E0
2.920421208E0,-8.738528137E0,-1.646875305E0,5.388045502E0,1.039736056E1
2.930490208E0,-1.084315155E1,-2.767295380E0,5.915997620E0,1.265823396E1
2.940560208E0,-1.370609802E1,-2.984793091E0,6.940616913E0,1.565050402E1
2.950629208E0,-1.499821106E1,-2.162702637E0,5.786367188E0,1.622053214E1
2.960698208E0,-1.522019943E1,4.275109863E-1,2.189047852E0,1.538275550E1
2.970768208E0,-1.239332794E1,3.986360321E0,2.170486450E-2,1.301868339E1
2.980837208E0,-8.866212616E0,4.846322021E0,1.646575928E-1,1.010562593E1
2.990906208E0,-6.968159637E0,2.817141724E0,9.366023254E-1,7.574216800E0
3.000976208E0,-6.558311920E0,1.269060974E0,1.787433014E0,6.914975617E0
3.011045208E0,-7.527995453E0,1.376687164E0,3.607049103E0,8.460306514E0
3.021115208E0,-8.512348480E0,7.557783508E-1,5.548811188E0,1.018923860E1
3.031184208E0,-8.566086731E0,9.370513916E-2,6.950496368E0,1.103159201E1
3.041253208E0,-9.259295197E0,1.763033752E0,7.497758331E0,1.204405312E1
3.051323208E0,-1.059362045E1,4.714446259E0,6.032904510E0,1.307083527E1
3.061392208E0,-1.088760910E1,5.161865845E0,4.496499481E0,1.286092526E1
3.071461208E0,-1.017389328E1,3.207679596E0,2.425705719E0,1.093989767E1
3.081531208E0,-9.054970093E0,-1.760339355E-1,-1.091829529E0,9.122256467E0
3.091600208E0,-8.505612488E0,-1.292412415E0,-1.547931061E0,8.741388003E0
3.101669208E0,-9.481283569E0,-1.724713440E0,1.453028412E0,9.745802488E0
3.111739208E0,-1.081905167E1,-1.747466125E0,2.879412231E0,1.133121933E1
3.121808208E0,-1.273342072E1,-2.602338409E0,3.866609344E0,1.355960310E1
3.131877208E0,-1.432625839E1,-2.988385620E0,6.366111603E0,1.595930779E1
3.141947208E0,-1.485406082E1,-2.381697235E0,1.143442200E1,1.889607396E1
3.152016208E0,-1.335103638E1,-2.884950714E0,1.453492447E1,1.994585527E1
3.162086208E0,-1.174068512E1,-4.925956421E0,1.774499908E1,2.184018604E1
3.172155208E0,-1.059092606E1,-6.337970123E0,2.309981369E1,2.619043666E1
3.182224208E0,-5.073100433E0,-4.600084076E0,1.788660461E1,1.915274774E1
3.192294208E0,-2.740052032E0,-1.554217987E0,1.444511124E1,1.478461083E1
3.202363208E0,-1.674867096E0,-8.896000671E-1,7.432643738E0,7.670773168E0
3.212432208E0,-2.092798004E0,-1.116677856E-1,2.403851166E0,3.189165033E0
3.222502208E0,-2.291434937E0,1.306932220E0,-3.248544617E0,4.184708834E0
3.232571208E0,1.236428833E0,2.827470245E0,-9.943522339E0,1.041138707E1
3.242640208E0,3.240461426E0,4.430486755E0,-1.209799210E1,1.328499966E1
3.252710208E0,2.675386505E0,5.272186432E0,-1.036923706E1,1.193627747E1
3.262779208E0,2.905607758E0,5.522915039E0,-1.028750702E1,1.203237082E1
3.272848208E0,2.657872925E0,5.325475616E0,-1.021146515E1,1.181943313E1
3.282918208E0,2.812201996E0,4.450095978E0,-7.754474487E0,9.372497471E0
3.292987208E0,2.995420990E0,3.276686096E0,-5.222340088E0,6.854345678E0
3.303056208E0,1.973346405E0,2.298619995E0,-4.870571594E0,5.735871126E0
3.313126208E0,9.039701843E-1,1.113085327E0,-3.932173004E0,4.185463603E0
3.323195208E0,-6.116281128E-1,4.891827393E-1,-2.514770508E0,2.633905733E0
3.333265208E0,-2.052531738E0,9.560618591E-1,-1.176403656E0,2.551639939E0
3.343334208E0,-2.780467987E0,1.292711792E0,-1.119671631E-1,3.068328967E0
3.353403208E0,-3.626658325E0,1.024170227E0,1.577270050E0,4.085260833E0
3.363473208E0,-5.652695160E0,4.800517273E-1,5.130131836E0,7.648638107E0
3.373542208E0,-8.355923767E0,-9.601034546E-1,1.355596024E1,1.595328551E1
3.383611208E0,-1.331810486E1,-4.903503113E0,2.233071304E1,2.645896832E1
3.393681208E0,-1.526540543E1,-1.187914719E1,3.073513596E1,3.631522164E1
3.403750208E0,-1.041429337E1,-8.675808563E0,2.763942352E1,3.078416627E1
3.413819208E0,-5.272785187E0,9.877958679E-1,2.595258133E1,2.650121661E1
3.423889208E0,-3.183879089E-1,8.115823059E0,2.381712204E1,2.516392770E1
3.433958208E0,2.806663513E0,1.134460876E1,2.033820648E1,2.345677196E1
3.444027208E0,2.684068451E0,9.954150238E0,2.024734543E1,2.272101070E1
3.454097208E0,2.183060303E0,7.237749023E0,2.072455307E1,2.206032328E1
3.464166208E0,1.165326691E0,5.277425537E0,2.021950333E1,2.092934594E1
3.474236208E0,3.888164520E0,3.778292999E0,2.361983231E1,2.423406279E1
3.484305208E0,9.663305054E0,5.051245880E0,2.875969391E1,3.075734942E1
3.494374208E0,1.184082687E1,7.695497131E0,3.077824631E1,3.386334749E1
3.504444208E0,1.046159500E1,9.374256134E0,3.176559311E1,3.473290304E1
3.514513208E0,6.481222229E0,1.029454239E1,2.930875214E1,3.173305526E1
3.524582208E0,4.742737427E0,9.863438873E0,2.860207169E1,3.062449166E1
3.534652208E0,5.484145660E0,7.551945648E0,3.025119232E1,3.165821179E1
3.544721208E0,5.485193481E0,3.820505219E0,3.236255173E1,3.304570111E1
3.554790208E0,2.492466888E0,8.390052795E-1,2.989493317E1,3.001038737E1
3.564860208E0,4.640350342E-2,-5.032534790E-1,2.666180649E1,2.666659601E1
3.574929208E0,-1.687291260E0,-1.369651794E-1,2.430855011E1,2.436742333E1
3.584998208E0,-1.639390869E0,7.888595581E-1,2.258698013E1,2.266013180E1
3.595068208E0,6.604266357E-1,2.045945435E0,1.698607727E1,1.712159096E1
3.605137208E0,1.356928253E0,2.957400055E0,1.298310150E1,1.338463275E1
3.615207208E0,2.811154175E-1,2.657573547E0,9.307345276E0,9.683408445E0
3.625276208E0,-5.580395508E-1,2.615810394E0,7.274422760E0,7.750554732E0
3.635345208E0,-8.243357849E-1,2.725232849E0,5.271587677E0,5.991332089E0
3.645415208E0,-1.439257050E0,2.588417358E0,1.183289337E0,3.189285019E0
3.655484208E0,-1.925745392E0,1.079105988E0,-3.134930878E0,3.834156577E0
3.665553208E0,-1.968406677E0,-3.562591553E-1,-1.879790955E0,2.745024493E0
3.675623208E0,-1.459614716E0,-1.178050232E-1,-1.244811401E0,1.921954361E0
3.685692208E0,-1.604812775E0,2.281256104E-1,-2.889591064E0,3.313186058E0
3.695761208E0,-9.041198730E-1,6.078858948E-1,-3.186274109E0,3.367387816E0
3.705831208E0,1.513352966E-1,1.014141083E0,-2.708767090E0,2.896343152E0
3.715900208E0,1.617236938E0,1.577120361E0,-1.822909241E0,2.902716323E0
3.725969208E0,2.770438843E0,1.668729858E0,-1.669777679E0,3.639800574E0
3.736039208E0,3.310515747E0,1.694326630E0,-1.897454224E0,4.174995781E0
3.746108208E0,3.664679260E0,1.534608765E0,-1.696272583E0,4.319981345E0
3.756177208E0,3.322191467E0,1.089883575E0,-2.045646057E0,4.050860420E0
3.766247208E0,2.328707428E0,8.446934509E-1,-2.548450470E0,3.554009723E0
3.776316125E0,1.442550201E0,5.529501343E-1,-2.862796783E0,3.253046320E0
3.786386125E0,2.025288391E0,4.788542175E-1,-2.542911987E0,3.285954322E0
3.796455125E0,2.540666656E0,3.733236694E-1,-2.151026917E0,3.349817072E0
3.806524125E0,3.395838318E0,4.785548401E-1,-1.614392853E0,3.790382157E0
3.816594125E0,3.765719147E0,2.543211365E-1,-1.309177551E0,3.994904979E0
3.826663125E0,3.409609680E0,-2.552192688E-1,-6.298901367E-1,3.476684718E0
3.836732125E0,3.136427765E0,-4.983137512E-1,-2.878514099E-1,3.188785686E0
3.846802125E0,2.733316040E0,-5.819897461E-1,-4.685256958E-2,2.794981897E0
3.856871125E0,2.247426453E0,-4.574487305E-1,3.882925415E-1,2.326146190E0
3.866940125E0,1.594484253E0,-3.126997375E-1,6.048921204E-1,1.733798038E0
3.877010125E0,1.109343109E0,-1.353186035E-1,6.968009949E-1,1.316998438E0
3.887079125E0,3.418890381E-1,-3.706292725E-1,8.708889771E-1,1.006330851E0
3.897148125E0,1.098715210E-1,-4.340972900E-1,6.833290100E-1,8.169765873E-1
3.907218125E0,-1.860630798E-1,-5.020559692E-1,6.390211487E-1,8.336832099E-1
3.917287125E0,-5.990542603E-1,-5.505551147E-1,7.300318909E-1,1.093125566E0
3.927356125E0,-4.837939453E-1,-2.911445618E-1,7.036866760E-1,9.022176430E-1
3.937426125E0,-5.956114197E-1,-4.890330505E-1,8.683442688E-1,1.161003039E0
3.947495125E0,-4.659809875E-1,-6.153703308E-1,7.402107239E-1,1.069453524E0
3.957565125E0,-1.088237000E-1,-2.531236267E-1,3.350033569E-1,4.337527144E-1
3.967634125E0,-4.252656555E-1,-3.484753418E-1,6.056405640E-1,8.179770378E-1
3.977703125E0,-4.727169800E-1,-5.192701721E-1,1.085093536E0,1.292490169E0
3.987773125E0,-3.141966248E-1,-6.668632507E-1,1.576371918E0,1.740222554E0
3.997842125E0,-2.959346008E-1,-7.472460938E-1,1.589095459E0,1.780780276E0
4.007911125E0,-4.954696655E-1,-6.783892822E-1,5.369334412E-1,9.969953500E-1
4.017981125E0,2.742297363E-1,-7.713459778E-1,9.873468018E-1,1.282587335E0
4.028050125E0,1.363963623E0,-5.593867493E-1,1.579216003E0,2.160378089E0
4.038119125E0,1.727258148E0,-1.764830017E-1,2.768792267E0,3.268145893E0
4.048189125E0,1.126108246E0,2.017803955E-1,3.911066895E0,4.074957590E0
4.058258125E0,1.809736633E-1,3.215313721E-1,5.551804962E0,5.564051782E0
4.068327125E0,-9.729766846E-3,9.705816650E-1,6.376589813E0,6.450040394E0
4.078397125E0,-5.456153870E-1,1.573827209E0,4.870122528E0,5.147108088E0
4.088466125E0,-2.842888184E0,1.780547333E0,5.431006165E0,6.383430895E0
4.098535125E0,-2.455044708E0,2.212249603E0,9.786648560E0,1.032955870E1
4.108605125E0,-1.283431091E0,3.051404572E0,2.137644745E1,2.163124524E1
4.118674125E0,-3.200644226E0,3.201392670E0,4.646233109E1,4.668234408E1
4.128743125E0,4.668940887E0,4.945415955E0,4.776327576E1,4.824506875E1
4.138813125E0,1.879551453E1,1.134026779E1,3.922293549E1,4.494787768E1
4.148882125E0,1.950174591E1,1.018092865E1,4.554069763E1,5.057592849E1
4.158952125E0,1.029559021E1,4.377946014E0,5.259627548E1,5.377298377E1
4.169021125E0,5.716312866E0,2.485730896E0,3.227887573E1,3.287523246E1
4.179090125E0,5.558540955E0,3.003354492E0,1.825783264E1,1.932009235E1
4.189160125E0,7.805069275E0,2.880460052E0,2.077125595E1,2.237546045E1
4.199229125E0,8.892108765E0,2.967878265E0,2.443818054E1,2.617446404E1
4.209298125E0,9.157806244E0,2.682122498E0,2.403147629E1,2.585674088E1
4.219368125E0,1.087308929E1,2.853965149E0,2.400079010E1,2.650296424E1
4.229437125E0,1.257909164E1,3.269201660E0,2.618085663E1,2.922941121E1
4.239506125E0,1.279344589E1,3.383563843E0,2.803115891E1,3.099784882E1
4.249576125E0,1.143951141E1,2.800077209E0,2.848157227E1,3.082049338E1
4.259645125E0,9.471254425E0,1.916165314E0,2.866883286E1,3.025356718E1
4.269714125E0,7.044949951E0,9.424401855E-1,2.713093094E1,2.804651363E1
4.279784125E0,5.111570435E0,7.108717346E-1,2.454056763E1,2.507733938E1
4.289853125E0,4.607269135E0,5.884263611E-1,2.346340759E1,2.391870963E1
4.299923125E0,3.814218292E0,-4.890330505E-1,2.317061646E1,2.348754737E1
4.309992125E0,2.435585175E0,-1.132544861E0,2.002296204E1,2.020232021E1
4.320061125E0,3.954776001E-1,-1.423390045E0,1.574545715E1,1.581460915E1
4.330131125E0,-1.326990509E0,-1.830393677E0,1.339504486E1,1.358449379E1
4.340200125E0,-2.714006195E0,-1.820963287E0,1.295570847E1,1.336159118E1
4.350269125E0,-4.137096863E0,-8.716374207E-1,1.199545532E1,1.271873699E1
4.360339125E0,-4.365372162E0,-5.553451538E-2,9.271419983E0,1.024786742E1
4.370408125E0,-3.867657166E0,-2.348616028E-1,5.627248077E0,6.832265572E0
4.380477125E0,-2.409838715E0,-1.779798889E-1,1.539249115E0,2.865010874E0
4.390547125E0,1.288370819E0,6.891668701E-1,-3.083587646E-1,1.493296846E0
4.400616125E0,5.727539520E0,1.894909515E0,-1.418450317E0,6.197369791E0
4.410685125E0,9.385333099E0,2.606529694E0,-3.447780304E0,1.033274714E1
4.420755125E0,1.043644730E1,2.512525177E0,-6.071823578E0,1.233285273E1
4.430824125E0,9.681716766E0,2.634970551E0,-7.790998535E0,1.270347856E1
4.440893125E0,7.253316650E0,2.551294556E0,-8.650361481E0,1.157361050E1
4.450963125E0,3.847000122E0,1.769170990E0,-8.173453217E0,9.205146029E0
4.461032125E0,1.340612183E0,1.326242065E0,-7.381450195E0,7.618527812E0
4.471101125E0,-5.837860107E-2,1.277742920E0,-6.736740875E0,6.857092142E0
4.481171125E0,-7.810757446E-1,1.318757629E0,-5.663323059E0,5.867063071E0
4.491240125E0,-1.057999878E0,1.136287079E0,-5.365891571E0,5.585991803E0
4.501310125E0,-1.143172760E0,1.153201904E0,-4.529580688E0,4.811841623E0
4.511379125E0,-1.279988251E0,1.001118164E0,-3.268602905E0,3.650256491E0
4.521448125E0,-1.368454285E0,5.858816528E-1,-2.445314941E0,2.862776555E0
4.531518125E0,-1.420545959E0,2.872526550E-1,-2.065404968E0,2.523165194E0
4.541587125E0,-1.061143341E0,2.739303589E-1,-2.252665558E0,2.505107812E0
4.551656125E0,-5.956114197E-1,2.918930054E-1,-2.486778717E0,2.573717715E0
4.561726125E0,-4.052073669E-1,2.929408264E-1,-2.280507660E0,2.334678249E0
4.571795125E0,-5.569917297E-1,4.049079895E-1,-1.613943787E0,1.754709324E0
4.581864125E0,-1.424138489E0,-1.624122620E-1,-9.386979675E-1,1.713389055E0
4.591934125E0,-2.018253021E0,4.326004028E-2,-1.362167358E-1,2.023307117E0
4.602003125E0,-9.301657104E-1,5.544470215E-1,4.076023865E-1,1.157047732E0
4.612072125E0,-1.140328674E0,-4.182302856E-1,3.830534363E-1,1.273576065E0
4.622142125E0,-1.459614716E0,-6.420149231E-1,1.110690308E-1,1.598435050E0
4.632211125E0,-1.653611298E0,-6.497987366E-1,-6.945556641E-2,1.778058716E0
4.642280125E0,-1.750160522E0,-6.441105652E-1,-4.745132446E-2,1.865527245E0
4.652350125E0,-1.648671570E0,-5.161267090E-1,6.331832886E-2,1.728731887E0
4.662419125E0,-1.398541718E0,-4.077520752E-1,1.227447510E-2,1.456822348E0
4.672489125E0,-1.229393463E0,-4.617897034E-1,-7.858657837E-2,1.315611595E0
4.682558125E0,-1.074765015E0,-4.391867065E-1,-1.425036621E-1,1.169748731E0
4.692627125E0,-9.005273438E-1,-4.026626587E-1,-4.092489624E-1,1.067975387E0
4.702697125E0,-6.688092041E-1,-3.752696228E-1,-6.268963623E-1,9.905211206E-1
4.712766125E0,-5.429209900E-1,-2.838098145E-1,-6.237528992E-1,8.742876480E-1
4.722835125E0,-4.107458496E-1,-2.853067017E-1,-6.441105652E-1,8.154694888E-1
4.732905125E0,9.265731812E-2,-1.944456482E-1,-3.415896606E-1,4.038291532E-1
4.742974125E0,7.526348877E-1,-5.688171387E-3,4.608915710E-1,8.825602924E-1
4.753043125E0,7.276368713E-1,1.142124939E-1,1.152004395E0,1.367338303E0
4.763113125E0,5.352868652E-1,1.636097717E-1,2.034419403E0,2.110014809E0
4.773182208E0,4.691244507E-1,1.877096558E-1,2.851869507E0,2.896285958E0
4.783251208E0,8.985813904E-1,2.791694641E-1,3.548371124E0,3.671010997E0
4.793321208E0,1.902393951E0,1.267863464E-1,5.149291992E0,5.490936673E0
4.803390208E0,3.116818542E0,-4.703219604E-1,8.182584229E0,8.768719703E0
4.813459208E0,5.145998840E0,-1.724863129E0,1.200877762E1,1.317828505E1
4.823529208E0,7.847281494E0,-4.129013672E0,1.748109787E1,1.960146330E1
4.833598208E0,1.505823624E1,-9.633217621E0,3.137355835E1,3.610885658E1
4.843667208E0,2.409988403E1,-1.513038620E1,4.530778198E1,5.350259905E1
4.853737208E0,2.251962021E1,-9.943372650E0,4.070799728E1,4.757252355E1
4.863806208E0,2.458622269E1,1.073702225E1,3.304094101E1,4.256136482E1
4.873876208E0,3.929164261E1,1.583212692E1,4.640035995E1,6.282899670E1
4.883945208E0,3.226285904E1,7.167994080E0,3.618170975E1,4.900396242E1
4.894014208E0,1.147902924E1,1.015039215E0,1.618314697E1,1.986687350E1
4.904084208E0,4.646038513E0,-2.950963440E0,1.285436920E1,1.398315653E1
4.914153208E0,8.127349091E0,-4.844226379E0,1.931313812E1,2.150622321E1
4.924222208E0,1.392434418E1,-2.532882843E0,2.492661484E1,2.866424573E1
4.934292208E0,1.672352325E1,1.152603149E-2,2.808295120E1,3.268529503E1
4.944361208E0,1.554562271E1,-4.869374084E-1,2.916759567E1,3.305528900E1
4.954430208E0,1.339983490E1,-1.543590088E0,2.590078903E1,2.920255328E1
4.964500208E0,1.405262741E1,-1.191971283E0,2.395408722E1,2.779739965E1
4.974569208E0,1.503653137E1,-4.778063965E-1,2.416245392E1,2.846312973E1
4.984638208E0,1.553065384E1,-2.508782959E-1,2.546369797E1,2.982723693E1
4.994708208E0,1.370564896E1,-1.236428833E-1,2.508782959E1,2.858774728E1
5.004777208E0,1.045560745E1,-3.543132019E-1,2.188119781E1,2.425349630E1
5.014846208E0,8.702453156E0,-5.929170227E-1,1.942330902E1,2.129199791E1
5.024916208E0,9.109606476E0,-9.316625977E-1,1.677321991E1,1.911004530E1
5.034985208E0,1.146900009E1,-1.292861481E0,1.536285278E1,1.921527256E1
5.045055208E0,1.166958298E1,-2.324366455E0,1.376417725E1,1.819435136E1
5.055124208E0,9.714049530E0,-3.150049438E0,1.180520096E1,1.560923891E1
5.065193208E0,7.935148773E0,-2.447260895E0,1.012509476E1,1.309477819E1
5.075263208E0,5.891149292E0,-1.239721985E0,7.987689514E0,1.000228646E1
5.085332208E0,4.280648346E0,-2.085163879E-1,7.100933533E0,8.294015094E0
5.095401208E0,1.708696747E0,7.503895569E-1,4.126618652E0,4.528985600E0
5.105471208E0,-7.583230591E-1,1.485959930E0,2.202220459E0,2.762771385E0
5.115540208E0,-2.136806488E0,1.805844727E0,6.625222778E-1,2.875057028E0
5.125609208E0,-2.531236267E0,2.819686432E0,-2.321672058E-1,3.796273202E0
5.135679208E0,-4.886288910E0,3.365451508E0,-1.537602539E0,6.129135724E0
5.145748208E0,-6.904990997E0,2.901566162E0,-1.999092865E0,7.752055156E0
5.155817208E0,-5.536985779E0,2.747835846E0,-1.886077881E0,6.462669969E0
5.165887208E0,-2.584675140E0,2.944077759E0,-2.586621094E0,4.694544505E0
5.175956208E0,-9.898915100E-1,3.128793640E0,-2.368674316E0,4.047203091E0
5.186025208E0,8.068222046E-2,3.664230194E0,-1.425635376E0,3.932623649E0
5.196095208E0,-1.026864624E-1,3.137625275E0,-2.725681915E0,4.157472643E0
5.206164208E0,-2.112257538E0,2.029030609E0,-3.474275208E0,4.544137469E0
5.216233208E0,-6.731202393E0,5.906716919E-1,-1.059541672E1,1.256665565E1
5.226303208E0,-2.257949570E1,-2.774330750E0,-3.241135025E1,3.959831009E1
5.236372208E0,-7.144492950E0,-2.885100403E0,-2.502945099E0,8.101377538E0
5.246441208E0,2.217488708E0,-1.517095184E0,2.504292297E-1,2.698434504E0
5.256511208E0,3.334615631E0,-1.561103668E0,-3.842210083E0,5.321586642E0
5.266580208E0,3.402125244E0,-1.988614655E0,-2.612966309E0,4.728280591E0
5.276650208E0,2.163600769E0,-2.069596252E0,-6.616241455E-2,2.994791212E0
5.286719208E0,1.592837677E0,-2.043999481E0,-4.655319214E-2,2.591762517E0
5.296788208E0,1.812580719E0,-2.032174072E0,-3.665876770E-1,2.747647512E0
5.306858208E0,1.522633667E0,-1.963017883E0,5.703140259E-2,2.484975870E0
5.316927208E0,1.301393738E0,-1.812880096E0,-2.140548706E-1,2.241869620E0
5.326996208E0,1.233435059E0,-1.563199310E0,-8.219407654E-1,2.154191437E0
5.337066208E0,1.913021851E-1,-1.522633667E0,3.224295044E-1,1.568110518E0
5.347135208E0,-5.087919617E-1,-1.407223663E0,9.505233765E-1,1.772749951E0
5.357204208E0,-8.822653198E-1,-1.046623535E0,1.237925720E-1,1.374458992E0
5.367274208E0,-1.430275726E0,-1.010997620E0,-3.848497009E-1,1.793297001E0
5.377343208E0,-1.638941803E0,-1.188528442E0,1.451980591E-1,2.029732142E0
5.387412208E0,-1.632355499E0,-1.275347900E0,8.122109985E-1,2.225035606E0
5.397482208E0,-1.653162231E0,-1.229692841E0,1.482966156E0,2.538558344E0
5.407551208E0,-2.239792328E0,-1.312919769E0,1.429078217E0,2.963560788E0
5.417620208E0,-2.891237640E0,-1.341360626E0,4.538562012E-1,3.219392625E0
5.427690208E0,-3.005300446E0,-1.423839111E0,-2.227368164E-1,3.332980689E0
5.437759208E0,-2.532882843E0,-1.293011169E0,-2.627037048E-1,2.855938833E0
5.447828208E0,-1.995500336E0,-8.249345398E-1,2.559677124E-2,2.159442933E0
5.457898208E0,-1.919608154E0,-5.364843750E-1,-2.844085693E-2,1.993368966E0
5.467967208E0,-1.047521667E0,-1.697470093E-1,-1.071771240E-1,1.066584562E0
5.478036208E0,-1.095721436E-1,3.210823059E-1,-1.167572021E-2,3.394646141E-1
5.488106208E0,2.713856506E0,8.312214661E-1,1.025517426E0,3.017885394E0
5.498175208E0,1.930670151E1,2.598147125E0,8.778644714E0,2.136735114E1
5.508245208E0,3.349883881E1,4.100123749E0,8.360713806E0,3.476902000E1
5.518314208E0,3.436718307E1,3.913910980E0,2.205363922E0,3.465956725E1
5.528383208E0,3.373340103E1,3.599564667E0,3.684737549E0,3.412442676E1
5.538453208E0,3.368699753E1,7.000941467E0,6.428531799E0,3.500218572E1
5.548522208E0,2.778162781E1,1.413330963E1,9.146729279E0,3.248433378E1
5.558591208E0,2.433205124E1,1.947465225E1,1.773886185E1,3.586053566E1
5.568661208E0,1.822250610E1,1.288131317E1,3.668376572E1,4.293817212E1
5.578730208E0,8.053103485E0,6.323749695E0,4.918277390E1,5.023731217E1
5.588799208E0,1.677112427E0,5.408702545E0,4.992223618E1,5.024237688E1
5.598869208E0,3.308569794E0,6.553372192E0,3.561289261E1,3.636167544E1
5.608938208E0,6.408623199E0,7.533533936E0,2.265793259E1,2.472259076E1
5.619007208E0,5.547613678E0,8.127049713E0,1.667996384E1,1.936610823E1
5.629077208E0,4.307742004E0,7.224726105E0,1.945878525E1,2.119900073E1
5.639146208E0,6.930138702E0,6.014043732E0,2.620765091E1,2.776754420E1
5.649215208E0,1.079794556E1,4.643942871E0,3.169314377E1,3.380262113E1
5.659285208E0,1.401310959E1,4.260440369E0,3.101774826E1,3.430188478E1
5.669354208E0,1.964874023E1,5.314847717E0,2.518093597E1,3.237900764E1
5.679423208E0,2.649370605E1,7.918683014E0,1.994901581E1,3.409670414E1
5.689493208E0,2.496388733E1,8.128247223E0,1.606938354E1,3.078131188E1
5.699562208E0,1.611249390E1,6.820117493E0,1.519071075E1,2.317076079E1
5.709632208E0,5.429060211E0,4.409081268E0,1.631921402E1,1.775475820E1
5.719701208E0,-2.759810944E0,2.619402924E0,1.871842484E1,1.910123704E1
5.729770208E0,-6.403533783E0,1.462458801E0,1.789962753E1,1.906674321E1
5.739840208E0,-8.325387268E0,-7.593708801E-1,1.427281952E1,1.654092181E1
5.749909208E0,-8.972491608E0,-3.666475525E0,7.459737396E0,1.223095787E1
5.759978208E0,-3.891757050E0,-5.556295624E0,3.297193451E0,7.542524686E0
5.770048208E0,2.694396973E-2,-5.492677917E0,1.379381561E0,5.663296758E0
5.780117500E0,1.000070343E0,-4.451742554E0,6.300398254E-1,4.605985523E0
5.790186500E0,1.199904785E0,-2.196831665E0,5.212161255E-1,2.556854925E0
5.800256500E0,2.606978760E0,-4.110452271E-1,1.935475159E-1,2.646272298E0
5.810325500E0,4.430037689E0,1.124311981E0,1.198707275E0,4.725061956E0
5.820394500E0,4.651576996E0,2.890189819E0,1.791025543E0,5.761782557E0
5.830464500E0,5.646258545E0,4.808301086E0,8.143066406E-1,7.460770081E0
5.840533500E0,6.361620941E0,5.895939331E0,-7.185058594E-2,8.673954352E0
5.850602500E0,4.995861053E0,5.636528778E0,-9.151968384E-1,7.587270233E0
5.860672500E0,3.305276642E0,4.507277069E0,-2.079026642E0,5.963451353E0
5.870741500E0,3.307971039E0,2.736908569E0,-5.630990295E0,7.081058722E0
5.880810500E0,2.403551788E0,1.412163391E0,-8.993747406E0,9.415878028E0
5.890880500E0,-1.168021088E0,-4.655319214E-2,-1.242610977E1,1.248097130E1
5.900949500E0,1.007554779E0,-4.555027771E-1,-1.295376251E1,1.300086969E1
5.911018500E0,4.762346649E0,-1.904938660E0,-1.081336349E1,1.196818980E1
5.921088500E0,3.956871643E0,-4.218826904E0,-8.170459442E0,1.001058146E1
5.931157500E0,1.415606232E0,-4.618944855E0,-5.734724579E0,7.498377062E0
5.941226500E0,1.262324982E0,-1.447639618E0,-4.084406433E0,4.513479892E0
5.951296500E0,2.579585724E0,8.756790161E-1,-3.319497070E0,4.294198068E0
5.961365500E0,3.219505005E0,1.211879883E0,-1.868115234E0,3.914552319E0
5.971435500E0,2.225422211E0,1.598675537E0,-1.198407898E0,2.990727166E0
5.981504500E0,1.192570038E0,1.709295502E0,-3.733236694E-1,2.117376908E0
5.991573500E0,1.378633118E-1,8.370593262E-1,-1.619631958E-1,8.636588939E-1
6.001643500E0,-4.564009094E-1,-3.713777161E-1,-4.942721558E-1,7.684583021E-1
6.011712500E0,-1.454824677E0,-1.202449493E0,5.493576050E-2,1.888231332E0
6.021781500E0,-2.801723785E0,-1.446591797E0,1.986369324E-1,3.159389281E0
6.031851500E0,-4.414020996E0,-1.658101959E0,1.420396271E0,4.924470431E0
6.041920500E0,-4.778513031E0,-1.434766388E0,2.438279572E0,5.553192653E0
6.051989500E0,-3.139571228E0,-3.270698547E-1,2.429148560E0,3.983044678E0
6.062059500E0,-2.812501373E0,3.436853027E-1,2.225122833E0,3.602701096E0
6.072128500E0,-2.362237701E0,2.761756897E-1,1.507365417E0,2.815775288E0
6.082197500E0,-1.283880157E0,4.733157349E-1,1.095871124E0,1.753085727E0
6.092267500E0,-5.197192383E-1,9.756710815E-1,9.627978516E-1,1.465954245E0
6.102336500E0,-2.978805542E-1,1.210532684E0,7.270381165E-1,1.443158559E0
6.112405500E0,-6.457571411E-1,1.262624359E0,5.502557373E-1,1.521185043E0
6.122475500E0,-1.491947479E0,1.100511475E0,3.119512939E-1,1.879985744E0
6.132544500E0,-1.818418579E0,7.939489746E-1,4.572990417E-1,2.036203211E0
6.142613500E0,-1.641187134E0,4.516108704E-1,1.063089294E0,2.006889741E0
6.152683500E0,-1.053359528E0,4.819976807E-2,1.471290436E0,1.810133989E0
6.162752500E0,-4.559518433E-1,-2.335144043E-1,2.482587433E0,2.534888838E0
6.172821500E0,-2.076182556E-1,-4.580474854E-2,3.894601135E0,3.900400161E0
6.182891500E0,1.257684631E0,1.435215454E0,5.421126709E0,5.747193126E0
6.192960500E0,4.694088593E0,4.429438934E0,7.947572937E0,1.023808149E1
6.203030500E0,5.310057678E0,9.052724762E0,1.432955154E1,1.776188576E1
6.213099500E0,5.279970245E0,1.321781342E1,2.611918488E1,2.974559624E1
6.223168500E0,7.510032806E0,1.344369370E1,3.616359741E1,3.930571550E1
6.233238500E0,1.222822128E1,1.183409088E1,4.145838684E1,4.481487412E1
6.243307500E0,1.582733688E1,5.737269287E0,4.565580826E1,4.866080229E1
6.253376500E0,1.056577835E1,-2.323767700E0,4.776492233E1,4.897472179E1
6.263446500E0,4.002377014E0,-7.769293671E0,4.993316345E1,5.069222582E1
6.273515500E0,4.580025787E0,-5.431455231E0,4.874463501E1,4.925968721E1
6.283584500E0,7.025340729E0,4.216731262E-1,4.228167480E1,4.286342549E1
6.293654500E0,6.895859985E0,5.032983856E0,3.710229538E1,3.807182861E1
6.303723500E0,6.094875641E0,6.665638733E0,3.192411346E1,3.317721009E1
6.313792500E0,6.534361725E0,6.356082458E0,3.052182953E1,3.185403813E1
6.323862500E0,5.648354187E0,4.769531708E0,3.265234909E1,3.347877296E1
6.333931500E0,3.996688843E0,2.628833313E0,3.151666077E1,3.187764408E1
6.344000500E0,2.476599884E0,6.268963623E-1,2.740950165E1,2.752830047E1
6.354070500E0,1.258133698E0,-9.912387085E-1,2.496059418E1,2.501193148E1
6.364139500E0,1.266815643E0,-1.384920044E0,2.293919769E1,2.301585576E1
6.374208500E0,2.283800812E0,-4.595443726E-2,2.097318604E1,2.109721286E1
6.384278500E0,2.259251862E0,1.618434448E0,2.121523270E1,2.139648680E1
6.394347500E0,2.285597076E0,1.642684021E0,1.993404694E1,2.013178065E1
6.404417500E0,1.809886322E0,1.924996948E0,1.696781525E1,1.717230491E1
6.414486500E0,1.280287628E0,7.990383911E-1,1.270033951E1,1.278969204E1
6.424555500E0,5.987548828E-2,-4.236190796E-1,6.962920532E0,6.976051930E0
6.434625500E0,-7.978408813E-1,-8.976832581E-1,1.910028076E0,2.256234154E0
6.444694500E0,-6.680607605E-1,-7.391629028E-1,-1.924547882E0,2.167152862E0
6.454763500E0,4.346960449E-1,1.297801208E-1,-3.791914673E0,3.818955409E0
6.464833500E0,1.735790405E0,1.542691956E0,-4.208797760E0,4.806958018E0
6.474902500E0,2.205812988E0,2.294578400E0,-5.253325653E0,6.142322964E0
6.484971500E0,1.962568817E0,2.315534821E0,-5.966742096E0,6.694429707E0
6.495041500E0,2.021097107E0,1.830094299E0,-6.857389984E0,7.379557985E0
6.505110500E0,2.542911987E0,1.340013428E0,-9.496551819E0,9.922022667E0
6.515179500E0,2.912044373E0,1.332079926E0,-1.025682083E1,1.074508320E1
6.525249500E0,2.678979034E0,1.756746826E0,-8.781638489E0,9.347741044E0
6.535318500E0,2.923271027E0,2.057621155E0,-4.080065460E0,5.424596987E0
6.545387500E0,2.185904388E0,1.472338257E0,-6.972500610E-1,2.726190673E0
6.555457500E0,1.502425690E0,6.489006042E-1,4.086502075E-2,1.637078159E0
6.565526500E0,1.719025269E0,-1.049317932E-1,3.917353821E-1,1.766214926E0
6.575595500E0,2.105072479E0,-7.768844604E-1,9.244775391E-1,2.426837104E0
6.585665500E0,2.308050385E0,-1.288071442E0,1.593436432E0,3.086302687E0
6.595734500E0,2.493365021E0,-1.565893707E0,2.153571625E0,3.647843606E0
6.605803500E0,2.269730072E0,-2.434237976E0,2.709515533E0,4.291697048E0
6.615873500E0,1.344055023E0,-3.743565216E0,2.633623352E0,4.770402121E0
6.625942500E0,7.274871826E-1,-3.703598328E0,2.511776733E0,4.533751265E0
6.636011500E0,5.411247253E-1,-2.350262604E0,2.537074127E0,3.500470740E0
6.646081500E0,3.857478333E-1,-1.295106812E0,2.478396149E0,2.822862114E0
6.656150500E0,-6.421646118E-2,-2.853067017E-1,1.994302826E0,2.015630777E0
6.666219500E0,-6.330335999E-1,9.798623657E-1,1.016985168E0,1.547617726E0
6.676289500E0,-1.236877899E0,1.564995575E0,3.411405945E-1,2.023723052E0
6.686358500E0,-1.343605957E0,1.441801758E0,3.162922668E-1,1.996023566E0
6.696427500E0,-1.180445251E0,1.421893158E0,8.006849670E-1,2.014032661E0
6.706497500E0,-1.123862915E0,1.412762146E0,1.233135681E0,2.186226965E0
6.716566500E0,-1.226100311E0,1.870809631E0,6.039939880E-1,2.316907289E0
6.726636500E0,-2.055525513E0,1.618883514E0,-8.463400269E-1,2.749956437E0
6.736705500E0,-3.050207062E0,-3.489244080E-1,-2.032922516E0,3.682157699E0
6.746774500E0,-3.119363251E0,-1.409169617E0,-2.747087402E0,4.388926440E0
6.756844500E0,-2.520159302E0,-1.411414948E0,-2.742596741E0,3.983105816E0
6.766913500E0,-1.134939880E0,-3.811074829E-1,-1.707948303E0,2.085765771E0
6.776981833E0,-5.155279541E-1,6.182144165E-1,-9.922865295E-1,1.277728724E0
6.787051833E0,-6.670129395E-1,6.608757019E-1,-1.253343658E0,1.566056602E0
6.797120833E0,-7.896080017E-1,1.398092651E-1,-1.088536377E0,1.352012896E0
6.807189833E0,-9.822573853E-1,-3.153941345E-1,-6.798861694E-1,1.235535606E0
6.817259833E0,-4.155358887E-1,-4.453239441E-1,-2.537223816E-1,6.598170480E-1
6.827328833E0,4.499642944E-1,-4.394860840E-1,4.245172119E-1,7.588351254E-1
6.837397833E0,8.382568359E-1,3.480262756E-1,1.229692841E0,1.528378649E0
6.847467833E0,5.049000549E-1,8.872050476E-1,2.764151917E0,2.946623946E0
6.857536833E0,4.254153442E-1,1.504521332E0,4.956193542E0,5.196962294E0
6.867605833E0,1.027014313E0,2.813399506E0,7.912396088E0,8.460259276E0
6.877675833E0,2.583627319E-1,4.534221039E0,1.158830200E1,1.244647159E1
6.887744833E0,-1.251697083E0,4.740641785E0,1.258747421E1,1.350869857E1
6.897813833E0,-3.770808563E0,3.456611938E0,1.575324097E1,1.656296363E1
6.907883833E0,-7.243137817E0,2.334096222E0,1.757659927E1,1.915327368E1
6.917952833E0,-1.134191437E1,1.592687988E0,2.254536667E1,2.528772894E1
6.928021833E0,-1.056712555E1,1.606159973E-1,2.928584976E1,3.113440117E1
6.938091833E0,-1.064945435E1,-3.293151855E0,4.434333755E1,4.572294077E1
6.948160833E0,-1.122800125E1,-6.509663086E0,6.637332596E1,6.763033435E1
6.958229833E0,-1.325029587E1,-7.461833038E0,6.786302811E1,6.954595514E1
6.968299833E0,-1.825438980E1,-4.593497772E0,4.432687180E1,4.815801628E1
6.978368833E0,-1.609048965E1,-1.785187683E0,3.420791428E1,3.784537160E1
6.988437833E0,-8.242459717E0,-1.440454559E0,3.721755569E1,3.814655297E1
6.998507833E0,-6.575077057E0,-2.830913086E0,3.848347321E1,3.914362550E1
7.008576833E0,-8.079897766E0,-4.264182587E0,3.735347305E1,3.845451794E1
7.018646833E0,-9.108708344E0,-2.902314606E0,3.300127350E1,3.435805656E1
7.028715833E0,-9.731563110E0,-6.795867920E-1,2.818174576E1,2.982240689E1
7.038784833E0,-9.504036255E0,6.071374512E-1,2.579900070E1,2.750061378E1
7.048854833E0,-9.382339325E0,4.806504822E-1,2.177117661E1,2.371167322E1
7.058923833E0,-8.022267609E0,3.957769775E-1,1.768871613E1,1.942689103E1
7.068992833E0,-6.619684296E0,7.349716187E-2,1.659449158E1,1.786624674E1
7.079062833E0,-6.234684906E0,-2.758763123E-1,1.466036362E1,1.593341348E1
7.089131833E0,-5.640121307E0,2.447410583E-1,1.251487518E1,1.372927410E1
7.099200833E0,-6.843618622E0,1.169368286E0,9.796827393E0,1.200751286E1
7.109270833E0,-7.647896118E0,1.889670410E0,7.522007904E0,1.089228039E1
7.119339833E0,-6.506519623E0,1.492097168E0,5.392087097E0,8.581127829E0
7.129408833E0,-4.920717316E0,4.942721558E-1,2.934647369E0,5.750645098E0
7.139478833E0,-3.542533264E0,6.346801758E-2,4.001179504E-1,3.565622595E0
7.149547833E0,-1.559756470E0,4.999603271E-2,-1.794318695E0,2.378007449E0
7.159616833E0,8.158035278E-1,7.107220459E-1,-2.852468262E0,3.050776361E0
7.169686833E0,1.160686340E0,1.514400787E0,-3.646716614E0,4.115719206E0
7.179755833E0,2.493963776E0,1.686243439E0,-4.744533691E0,5.619063285E0
7.189824833E0,4.613256683E0,2.851420441E0,-5.050796814E0,7.411024505E0
7.199894833E0,6.029461670E0,4.739593964E0,-3.534899139E0,8.444742204E0
7.209963833E0,7.608228607E0,6.888974304E0,-2.439626770E0,1.054963925E1
7.220032833E0,1.041070084E1,8.813073120E0,-3.379073181E0,1.405244055E1
7.230102833E0,1.211430817E1,8.815917206E0,-5.222340088E0,1.586662203E1
7.240171833E0,1.089973389E1,6.432573395E0,-7.172933807E0,1.454761763E1
7.250240833E0,6.696773987E0,1.190025330E0,-6.937772827E0,9.715741553E0
7.260310833E0,3.942351837E0,-2.912493439E0,-2.032323761E0,5.306137570E0
7.270379833E0,3.295097809E0,-3.960913239E0,2.285597076E0,5.636528830E0
7.280449833E0,3.358266449E0,-3.838617554E0,2.751578064E0,5.795180766E0
7.290518833E0,2.238295441E0,-3.684587860E0,2.232607269E0,4.854965437E0
7.300587833E0,1.319655762E0,-2.991080017E0,2.128274231E0,3.900974519E0
7.310657833E0,5.900729370E-1,-1.982477417E0,1.127605133E0,2.355821750E0
7.320726833E0,-1.697470093E-1,-1.424737244E0,9.297166443E-1,1.709696844E0
7.330795833E0,-6.364764404E-1,-1.081650696E0,1.335822144E0,1.832891510E0
7.340865833E0,-1.062041473E0,-4.052073669E-1,1.660796356E0,2.012553015E0
7.350934833E0,-9.548643494E-1,3.800596619E-1,1.188678131E0,1.571358321E0
7.361003833E0,-8.674461365E-1,1.075812836E0,6.116281128E-1,1.511266027E0
7.371073833E0,-1.637295227E0,1.487606506E0,8.966354370E-2,2.213989234E0
7.381142833E0,-2.955903168E0,1.456770630E0,8.666976929E-2,3.296521781E0
7.391211833E0,-4.340374146E0,1.085542603E0,-4.046086121E-1,4.492322183E0
7.401281833E0,-5.041216736E0,6.412664795E-1,-9.750723267E-1,5.174539102E0
7.411350833E0,-5.037474518E0,3.382965088E-1,-1.152603149E0,5.178714905E0
7.421419833E0,-4.272565155E0,4.397854614E-1,-7.713459778E-1,4.363851381E0
7.431489833E0,-3.492537231E0,2.770738220E-1,-7.643106079E-1,3.585910891E0
7.441558833E0,-2.747536469E0,4.281097412E-2,-5.294490051E-1,2.798411277E0
7.451627833E0,-2.193089447E0,8.158035278E-2,-2.149530029E-1,2.205108040E0
7.461697833E0,-1.725312195E0,-8.936416626E-2,-2.255809021E-1,1.742290121E0
7.471766833E0,-9.443861389E-1,-2.706372070E-1,-7.753875732E-2,9.854551923E-1
7.481835833E0,-3.317102051E-1,-3.796105957E-1,-3.682342529E-2,5.054619958E-1
7.491905833E0,-6.727011108E-1,-9.827064514E-1,-4.164340210E-1,1.261608516E0
7.501974833E0,-8.577163696E-1,-1.397643585E0,-2.965333557E-1,1.666438416E0
7.512043833E0,-6.884184265E-1,-1.855990448E0,-7.065307617E-2,1.980811028E0
7.522113833E0,-1.863624573E-1,-2.010319519E0,1.883084106E-1,2.027702047E0
7.532182833E0,4.713697815E-1,-1.716779938E0,1.666035461E-1,1.788093836E0
7.542251833E0,9.951306152E-1,-1.263223114E0,4.718188477E-1,1.675896955E0
7.552321833E0,8.032296753E-1,-7.009922791E-1,7.788304138E-1,1.320282129E0
7.562390833E0,1.137783966E0,1.496887207E-1,2.023941193E0,2.326649311E0
7.572459833E0,1.428030396E0,7.512876892E-1,4.277804260E0,4.572014139E0
7.582529833E0,1.367705841E0,1.160386963E0,6.815776520E0,7.047831350E0
7.592598833E0,1.378333740E0,1.865420837E0,9.955198059E0,1.022181819E1
7.602668833E0,8.910969543E-1,1.797761536E0,1.925999863E1,1.936423372E1
7.612737833E0,3.399131470E0,7.348219299E-1,3.969430527E1,3.984635402E1
7.622806833E0,8.864416351E0,-1.039588165E0,5.719007263E1,5.788232052E1
7.632876833E0,-2.010469208E0,-1.863474884E0,6.137132767E1,6.143251895E1
7.642945833E0,-1.469239700E1,-2.214644623E0,4.637431412E1,4.869649053E1
7.653014833E0,-4.016148376E0,-2.061513062E0,3.550257202E1,3.578843254E1
7.663084833E0,3.291654968E-1,-1.725461884E0,3.238350815E1,3.243111421E1
7.673153833E0,-3.909120941E0,-3.474275208E-1,3.362637360E1,3.385461466E1
7.683222833E0,-3.035537567E0,1.036145325E0,3.142415314E1,3.158742607E1
7.693292833E0,-2.713257751E0,3.520229645E0,2.795616486E1,2.830725945E1
7.703361833E0,-3.252885590E0,6.316564636E0,2.582759125E1,2.678702528E1
7.713430833E0,-4.340972900E0,7.117249603E0,2.639266617E1,2.767800779E1
7.723500833E0,-3.900289307E0,6.286776581E0,2.852902359E1,2.947271626E1
7.733569833E0,-2.098336487E0,4.011657715E0,3.158417038E1,3.190699347E1
7.743638833E0,-1.507964172E0,5.734574890E-1,3.228591110E1,3.232619472E1
7.753708833E0,-1.319955139E0,-3.075803833E0,3.065744751E1,3.083961638E1
7.763777833E0,-1.667831726E0,-6.239175568E0,2.922283081E1,2.992796042E1
7.773846833E0,-2.679727478E0,-8.229137421E0,2.675251785E1,2.811755419E1
7.783916708E0,-3.757486267E0,-8.301736450E0,2.357103378E1,2.527115282E1
7.793985708E0,-3.982618103E0,-6.262227631E0,2.056079361E1,2.185916228E1
7.804054708E0,-3.371139679E0,-3.724405060E0,1.792148209E1,1.861223511E1
7.814124708E0,-3.303779755E0,-1.582958221E0,1.475556564E1,1.520353363E1
7.824193708E0,-2.958896942E0,6.655160522E-1,1.190624084E1,1.228643780E1
7.834262708E0,-2.038311310E0,2.033820648E0,9.543254700E0,9.968191897E0
7.844332708E0,-4.858895874E-1,2.083966370E0,7.762258301E0,8.051810880E0
7.854401708E0,2.096689911E0,2.027384033E0,5.128036194E0,5.899419447E0
7.864470708E0,3.956123199E0,1.753753052E0,1.460363159E0,4.567189627E0
7.874540708E0,5.108127594E0,1.513203278E0,-2.170336761E0,5.752661413E0
7.884609708E0,5.545218658E0,1.550475769E0,-5.333858185E0,7.848787691E0
7.894679708E0,5.018763428E0,1.713636475E0,-7.548353119E0,9.225083800E0
7.904748708E0,4.214485931E0,1.778900757E0,-8.564739532E0,9.709847724E0
7.914817708E0,3.037333832E0,2.697839813E0,-8.076604614E0,9.040756526E0
7.924887708E0,2.467319183E0,2.808160400E0,-7.175328827E0,8.090659588E0
7.934956708E0,1.724414063E0,3.213068390E0,-4.879852295E0,6.091828195E0
7.945025708E0,4.622387695E-1,2.703228607E0,-4.007466431E0,4.856016554E0
7.955095708E0,-7.237449646E-1,2.201322327E0,-3.563789062E0,4.250908049E0
7.965164708E0,-3.275189209E0,1.192869415E0,-5.128335571E0,6.200776365E0
7.975233708E0,-5.420527954E0,7.334747314E-3,-7.911497955E0,9.590306408E0
7.985303708E0,-3.415896606E0,-3.290158081E-1,-7.642956390E0,8.378029805E0
7.995372708E0,-3.640429688E-1,-3.754193115E-1,-6.048322449E0,6.070887199E0
8.005441708E0,1.507515106E0,-4.903802490E-1,-4.459526367E0,4.732911367E0
8.015511708E0,2.902613983E0,-2.691403198E-1,-3.797303467E0,4.787182686E0
8.025580708E0,3.608246613E0,1.425036621E-1,-3.379821625E0,4.946002944E0
8.035649708E0,3.892206116E0,5.240602112E-1,-2.483934631E0,4.646917129E0
8.045719708E0,3.260968781E0,9.138496399E-1,-1.632804565E0,3.759666116E0
8.055788708E0,2.053878937E0,1.332828369E0,-1.296454010E0,2.770495109E0
8.065857708E0,1.170715485E0,1.742975464E0,-5.845344543E-1,2.179499654E0
8.075927708E0,5.571414185E-1,1.986968079E0,3.664379883E-1,2.095882989E0
8.085996708E0,2.594105530E-1,2.137704620E0,7.394622803E-1,2.276813419E0
8.096065708E0,-1.317260742E-2,2.088307343E0,9.864486694E-1,2.309606471E0
8.106135708E0,-7.261399841E-1,1.869462433E0,1.491348724E0,2.499257906E0
8.116204708E0,-1.388811951E0,1.609602814E0,2.050136719E0,2.953418429E0
8.126273708E0,-1.836381226E0,1.328487396E0,2.386786652E0,3.291492866E0
8.136343708E0,-1.986069946E0,1.024020538E0,2.643053741E0,3.461043914E0
8.146412708E0,-1.544488220E0,7.614665222E-1,2.648442535E0,3.159038301E0
8.156481708E0,-8.681945801E-1,8.448431396E-1,2.411485291E0,2.698663200E0
8.166551708E0,-5.324427795E-1,6.381230164E-1,2.253563690E0,2.401925395E0
8.176620708E0,-4.754113770E-1,2.013313293E-1,2.058219910E0,2.121984797E0
8.186689708E0,-4.492158508E-1,-1.267863464E-1,1.616338806E0,1.682385448E0
8.196759708E0,-7.137158203E-1,-3.849993896E-1,1.340911560E0,1.567054120E0
8.206828708E0,-1.085243225E0,-5.917195129E-1,1.031504974E0,1.609933959E0
8.216897708E0,-1.122815094E0,-6.354286194E-1,4.691244507E-1,1.372793144E0
8.226967708E0,-9.413923645E-1,-6.288423157E-1,1.886077881E-2,1.132262324E0
8.237036708E0,-6.518943787E-1,-5.432203674E-1,5.508544922E-1,1.011679455E0
8.247106708E0,-7.484436035E-2,-5.492079163E-1,1.718426514E0,1.805608124E0
8.257175708E0,8.261320496E-1,-6.888674927E-1,2.609673157E0,2.822663028E0
8.267244708E0,1.947300568E0,-3.653901672E-1,3.302731934E0,3.851431903E0
8.277314708E0,4.029320984E0,3.444337463E-1,4.271816711E0,5.882387289E0
8.287383708E0,8.539891205E0,6.987469482E-1,7.778873749E0,1.157276397E1
8.297452708E0,1.748019974E1,1.455573120E0,1.648581757E1,2.407193920E1
8.307522708E0,4.315346191E1,1.316661987E0,2.697944595E1,5.091016969E1
8.317591708E0,6.078679321E1,7.161108398E-1,2.405288177E1,6.537651081E1
8.327660708E0,5.739664307E1,3.447181549E0,1.699445984E1,5.995889726E1
8.337730708E0,3.541156128E1,-1.602118378E0,1.261741196E1,3.762638091E1
8.347799708E0,2.379197433E1,-4.345762939E0,1.035830978E1,2.631042151E1
8.357868708E0,2.859548538E1,-2.561772766E0,1.110705276E1,3.078361715E1
8.367938708E0,3.185046661E1,-2.225871277E-1,1.833222794E1,3.675013401E1
8.378007708E0,3.043171692E1,1.986069946E0,1.775892014E1,3.529041106E1
8.388076708E0,2.902613983E1,3.586092682E0,1.567106186E1,3.318070274E1
8.398146708E0,3.026256866E1,4.948110352E0,1.688533676E1,3.500602028E1
8.408215708E0,3.059847015E1,5.232818298E0,2.000380188E1,3.692967442E1
8.418284708E0,3.123045593E1,3.784879303E0,2.278007858E1,3.884068317E1
8.428354708E0,3.175496521E1,3.270698547E-1,2.369138351E1,3.962027818E1
8.438423708E0,3.114722900E1,-3.862567749E0,2.262395325E1,3.868995431E1
8.448492708E0,2.975093262E1,-6.494993591E0,1.851769226E1,3.563997559E1
8.458562708E0,2.123723694E1,-9.362580414E0,1.699475922E1,2.876629948E1
8.468631708E0,1.297412018E1,-1.032373169E1,1.693293777E1,2.369876816E1
8.478700708E0,1.121213425E1,-8.069569244E0,1.460587692E1,2.010376937E1
8.488770708E0,1.116453323E1,-5.786666565E0,1.252235962E1,1.774659975E1
8.498839708E0,8.175698547E0,-2.650089111E0,1.284942947E1,1.545874694E1
8.508908708E0,4.933740234E-1,-7.337741089E-1,1.307815384E1,1.310801092E1
8.518978708E0,-5.102888489E-1,-2.752775574E-1,7.814799042E0,7.836278230E0
8.529047708E0,4.633015594E0,2.534978485E0,5.754034424E-1,5.312441862E0
8.539117708E0,7.557334442E0,3.661386108E0,-3.429817657E0,9.070981274E0
8.549186708E0,6.645730133E0,3.121309204E0,-5.241949310E0,9.021437398E0
8.559255708E0,4.460873566E0,2.305355988E0,-6.099815369E0,7.900747226E0
8.569325708E0,1.852248230E0,1.649420013E0,-6.705455933E0,7.149443975E0
8.579394708E0,7.200027466E-1,1.697320404E0,-7.291038208E0,7.520541115E0
8.589463708E0,1.910028076E-1,2.091600494E0,-7.406597900E0,7.698634110E0
8.599533708E0,-6.620732117E-1,2.707719269E0,-7.150181122E0,7.674319165E0
8.609602708E0,-2.887944489E0,1.983225861E0,-4.897814941E0,6.021793701E0
8.619671708E0,-3.164120178E0,1.770817566E0,-3.615581360E0,5.120535121E0
8.629741708E0,9.268725586E-1,3.616479492E0,-4.164789276E0,5.593164254E0
8.639810708E0,3.945195923E0,5.082081757E0,-5.098397827E0,8.208884593E0
8.649879708E0,4.595294037E0,5.130880280E0,-5.216202850E0,8.640106012E0
8.659949708E0,5.732628937E0,5.031037903E0,-5.857768707E0,9.617059381E0
8.670018708E0,8.609945526E0,5.107079773E0,-6.860683136E0,1.213599600E1
8.680087708E0,1.272219406E1,4.432732086E0,-7.585026855E0,1.546078807E1
8.690157708E0,7.197931824E0,2.057471466E0,-7.214696960E0,1.039688721E1
8.700226708E0,2.131717072E0,1.246008911E0,-6.520889740E0,6.972715316E0
8.710295708E0,5.956114197E-1,1.347647552E0,-4.548740845E0,4.781417171E0
8.720365708E0,-5.929170227E-1,1.242117004E0,-1.943408661E0,2.381437060E0
8.730434708E0,-1.958227844E0,1.136736145E0,7.006929016E-1,2.370189000E0
8.740503708E0,-2.621199188E0,9.135502625E-1,2.280058594E0,3.592203566E0
8.750573708E0,-1.193468170E0,1.000369720E0,2.859952698E0,3.256445191E0
8.760642708E0,-2.032922516E0,1.035845947E0,3.356619873E0,4.058650977E0
8.770711708E0,-3.828738098E0,3.938310242E-1,3.673061829E0,5.320312162E0
8.780782333E0,-4.183350677E0,-2.947370911E-1,3.154091034E0,5.247435859E0
8.790851333E0,-2.824925537E0,-2.851570129E-1,2.596051483E0,3.847207054E0
8.800920333E0,-1.556463318E0,-3.577560425E-1,2.331102448E0,2.825704526E0
8.810990333E0,-7.653584290E-1,-3.290158081E-1,1.583706665E0,1.789455707E0
8.821059333E0,-6.147715759E-1,-1.215472412E-1,1.100361786E0,1.266299286E0
8.831128333E0,-1.232387238E0,5.748046875E-2,8.794212341E-1,1.515078881E0
8.841198333E0,-1.131347351E0,5.749543762E-1,8.755293274E-1,1.541775265E0
8.851267333E0,-1.315763855E-1,1.436263275E0,2.099384308E0,2.547072636E0
8.861336333E0,5.098397827E-1,9.610015869E-1,1.307381287E0,1.700795838E0
8.871406333E0,6.929090881E-1,-7.158114624E-1,-6.909631348E-1,1.212410453E0
8.881475333E0,1.012344818E0,-2.508633270E0,-1.246308289E0,2.978484055E0
8.891544333E0,6.197113037E-1,-3.280877380E0,-3.037184143E-1,3.352677044E0
8.901614333E0,5.489085388E-1,-3.222498779E0,-1.673519897E-1,3.273195022E0
8.911683333E0,2.724634094E0,-2.595602417E0,-3.209326172E-1,3.776742062E0
8.921752333E0,4.511468353E0,-2.284848633E0,9.768685913E-1,5.150548730E0
8.931822333E0,2.950963440E0,-2.175575867E0,3.063679047E0,4.777807539E0
8.941891333E0,2.500699768E0,-2.129920807E0,4.041445770E0,5.208007862E0
8.951961333E0,1.943708038E0,-2.681074677E0,6.584956512E0,7.370740440E0
8.962030333E0,2.158361664E0,-3.108885040E0,9.040599976E0,9.800823393E0
8.972099333E0,3.561992798E0,-3.595223694E0,1.048853897E1,1.164572350E1
8.982169333E0,4.514761505E0,-3.634292450E0,1.357497070E1,1.476045333E1
8.992238333E0,5.032534790E0,-3.888014832E0,1.799722458E1,1.908777510E1
9.002307333E0,8.064030762E0,-6.000422058E0,1.944695984E1,2.189104621E1
9.012377333E0,1.176478500E1,-1.063553329E1,2.113619705E1,2.642467711E1
9.022446333E0,1.346929047E1,-1.484373230E1,2.183404587E1,2.963922626E1
9.032515333E0,1.055769516E1,-1.560115723E1,2.167328018E1,2.871571186E1
9.042585333E0,3.108585663E0,-1.329385529E1,2.081990479E1,2.489695420E1
9.052654333E0,-1.135448822E1,-1.104568039E1,2.876014297E1,3.283408720E1
9.062723333E0,-2.720352997E1,-7.876470795E0,4.211492157E1,5.075172365E1
9.072793333E0,-3.000196060E1,-1.740580444E0,4.623181046E1,5.514097894E1
9.082862333E0,-2.362058075E1,1.426982574E0,5.023807938E1,5.553226750E1
9.092931333E0,-1.692799805E1,-3.058140564E-1,4.778947128E1,5.069994286E1
9.103001333E0,-9.138646088E0,-1.788480835E0,2.031545380E1,2.234795693E1
9.113070333E0,-3.649261322E0,-2.649490356E0,6.704707489E0,8.080223379E0
9.123139333E0,-3.498375092E0,-3.251239014E0,1.525612473E1,1.598619795E1
9.133209333E0,-6.098318481E0,-3.598516846E0,3.780373672E1,3.846116642E1
9.143278333E0,-1.178409485E1,-1.470092926E0,4.521332840E1,4.674688364E1
9.153347333E0,-1.146780258E1,-1.982627106E0,2.596261047E1,2.845168622E1
9.163417333E0,-1.045590683E1,-4.754413147E0,1.569740707E1,1.945093882E1
9.173486333E0,-8.426576843E0,-7.488028564E0,1.477038483E1,1.858068990E1
9.183555333E0,-5.124144287E0,-6.531517639E0,1.530432449E1,1.741091398E1
9.193625333E0,-4.042643280E0,-3.342100067E0,1.541973450E1,1.628744331E1
9.203694333E0,-5.489085388E0,-1.574276276E0,1.467458405E1,1.574648599E1
9.213763333E0,-5.551505585E0,-5.780978394E-1,1.230411346E1,1.351090743E1
9.223833333E0,-3.909719696E0,5.867797852E-2,7.915539551E0,8.828653215E0
9.233902333E0,-3.110232239E0,1.381776581E0,5.990692291E0,6.889937970E0
9.243971333E0,-1.632954254E0,2.327360229E0,2.342329102E0,3.683700701E0
9.254041333E0,4.680766296E-1,3.208128662E0,5.471122742E-1,3.287935079E0
9.264110333E0,2.140548706E-1,3.520978088E0,-7.074288940E-1,3.597716196E0
9.274180333E0,2.567161560E-1,4.146377563E0,-2.695295105E0,4.952066820E0
9.284249333E0,1.105301514E0,4.983586578E0,-4.159999237E0,6.585090757E0
9.294318333E0,8.003855896E-1,5.129982147E0,-4.211342468E0,6.685262845E0
9.304388333E0,-4.201762390E-1,5.299429779E0,-5.268294525E0,7.484345747E0
9.314457333E0,-6.092330933E-2,5.343887329E0,-4.771178284E0,7.164145842E0
9.324526333E0,8.014334106E-1,5.237608337E0,-1.207389221E0,5.434392822E0
9.334596333E0,1.414259033E0,4.314028931E0,2.140548706E0,5.019255223E0
9.344665333E0,3.243155823E0,2.805166626E0,1.895059204E0,4.688098642E0
9.354734333E0,5.133275299E0,1.505868530E0,8.187973022E-1,5.411892862E0
9.364804333E0,5.599705353E0,8.090675354E-1,1.081950073E0,5.760373797E0
9.374873333E0,5.444478149E0,2.451901245E-1,1.728755035E0,5.717609158E0
9.384942333E0,4.460274811E0,-5.233117676E-1,1.813029785E0,4.843034544E0
9.395012333E0,3.903582458E0,-1.498533783E0,5.397775269E-1,4.216031225E0
9.405081333E0,4.339026947E0,-2.719095612E0,-4.532574463E-1,5.140630127E0
9.415150333E0,4.767585754E0,-3.612737274E0,-6.810836792E-1,6.020433499E0
9.425220333E0,4.901856537E0,-3.444187775E0,-7.843688965E-1,6.042008069E0
9.435289333E0,4.810845795E0,-2.514471130E0,-9.821076965E-1,5.516460627E0
9.445358333E0,3.968697052E0,-1.448537750E0,-1.141975250E0,4.376405532E0
9.455428333E0,3.218756561E0,-4.489164734E-1,-1.042132874E0,3.412910888E0
9.465497333E0,2.415676575E0,4.565505981E-1,-5.742059326E-1,2.524607735E0
9.475566333E0,1.842069397E0,1.681303711E0,1.841171265E-2,2.494061110E0
9.485636333E0,6.010002136E-1,1.966610413E0,-1.332229614E-1,2.060705250E0
9.495705333E0,-1.678010559E-1,1.954335938E0,-1.073417816E0,2.236025930E0
9.505774333E0,-1.408570862E-1,1.493444366E0,-1.441203003E0,2.080212222E0
9.515844333E0,-3.857478333E-1,1.035247192E0,-8.346643066E-1,1.384630870E0
9.525913333E0,-8.002359009E-1,7.602690125E-1,-5.116360474E-1,1.216617406E0
9.535982333E0,-1.567390594E0,8.666976929E-1,-4.014651489E-1,1.835497870E0
9.546052333E0,-2.054926758E0,1.310225372E0,-3.153941345E-1,2.457414895E0
9.556121333E0,-2.873724060E0,1.248403931E0,-9.277706909E-1,3.267653715E0
9.566190333E0,-3.786525879E0,1.040037231E0,-1.126557312E0,4.085166710E0
9.576260333E0,-4.034709778E0,1.219663696E0,-7.038363647E-1,4.273388369E0
9.586329333E0,-3.698957977E0,1.395697632E0,9.340576172E-2,3.954615864E0
9.596398333E0,-3.575913849E0,1.310225372E0,1.913021851E-1,3.813193794E0
9.606468333E0,-3.172353058E0,1.235830078E0,2.835104370E-1,3.416354501E0
9.616537333E0,-2.456541595E0,1.123862915E0,7.185058594E-1,2.795338107E0
9.626606333E0,-2.127825165E0,9.029223633E-1,1.502725067E0,2.757007681E0
9.636676333E0,-2.304008789E0,7.327262878E-1,3.073109436E0,3.910159321E0
9.646745333E0,-3.294798431E0,9.298663330E-1,6.488856354E0,7.336593547E0
9.656815333E0,-4.137246552E0,1.833237762E0,1.218481155E1,1.299796916E1
9.666884333E0,-1.137694153E1,-6.236032104E-1,2.563030151E1,2.804881522E1
9.676953333E0,-1.965757187E1,-1.131871262E1,5.983597046E1,6.399122399E1
9.687023333E0,-8.557255096E0,-1.358859238E1,6.361396408E1,6.560954872E1
9.697092333E0,1.530716858E0,-6.360423431E0,4.194218079E1,4.244931813E1
9.707161333E0,6.425837402E0,-8.579708405E0,4.621010559E1,4.743708087E1
9.717231333E0,1.480421448E0,-1.463446747E1,5.377477478E1,5.575020797E1
9.727300333E0,2.415975952E-1,-7.752229156E0,4.729160660E1,4.792339179E1
9.737369333E0,1.902992706E0,-5.902226257E-1,3.948384293E1,3.953408145E1
9.747439333E0,-1.707948303E-1,3.914360046E-1,3.480921387E1,3.481183366E1
9.757508333E0,1.107696533E-2,8.162525940E-1,3.232423141E1,3.233453769E1
9.767577333E0,-1.479074249E0,6.741979980E-1,3.433170685E1,3.437016582E1
9.777646833E0,-4.457879791E0,-5.780978394E-1,3.854439651E1,3.880563609E1
9.787715833E0,-7.962990875E0,-2.286644897E0,3.723896118E1,3.814941937E1
9.797784833E0,-8.862470398E0,-3.502416687E0,3.211676285E1,3.350069790E1
9.807854833E0,-6.999893646E0,-3.371588745E0,2.640703629E1,2.752630900E1
9.817923833E0,-5.811963959E0,-3.053949280E0,1.912842224E1,2.022379956E1
9.827992833E0,-4.669539642E0,-1.331181793E0,1.359038864E1,1.443174656E1
9.838062833E0,-1.950294342E0,5.986051941E-1,9.572294312E0,9.787277179E0
9.848131833E0,-8.993298340E-1,1.070573730E0,5.204676819E0,5.389209873E0
9.858200833E0,-1.024918671E0,1.154100037E0,7.680528259E-1,1.724038955E0
9.868270833E0,1.740879822E-1,1.204245758E0,-2.249671783E0,2.557642978E0
9.878339833E0,1.276545410E0,1.216669922E0,-4.494553528E0,4.828132693E0
9.888408833E0,1.763632507E0,1.008901978E0,-6.241420898E0,6.563811214E0
9.898478833E0,2.252366180E0,1.087787933E0,-7.545509033E0,7.949285664E0
9.908547833E0,1.663790131E0,1.358724518E0,-7.987839203E0,8.271632550E0
9.918616833E0,2.164049835E0,2.112107849E0,-7.237749023E0,7.844050113E0
9.928686833E0,2.491419067E0,2.764900360E0,-6.693630524E0,7.658755288E0
9.938755833E0,3.647015991E0,3.419489136E0,-5.375621338E0,7.341044637E0
9.948824833E0,5.281916199E0,3.896547089E0,-4.164489899E0,7.773332237E0
9.958894833E0,7.769892426E0,4.743186493E0,-2.785108337E0,9.519762332E0
9.968963833E0,9.639803925E0,4.859494629E0,-2.153421936E0,1.100807584E1
9.979032833E0,1.070229446E1,3.942800903E0,-2.406695251E0,1.165662763E1
9.989102833E0,1.035112473E1,3.075504456E0,-2.893333282E0,1.117926152E1
9.999171833E0,7.217840424E0,1.448388062E0,-3.139720917E0,8.003305304E0
1.000924183E1,4.154610443E0,-8.506809998E-1,-2.685415649E0,5.019552102E0
1.001931083E1,2.673440552E0,-2.731370087E0,-1.001118164E0,3.950937169E0
1.002937983E1,2.107168121E0,-4.076023865E0,8.240364075E-1,4.661884173E0
1.003944983E1,1.876797180E0,-4.376149750E0,1.280886383E0,4.930894870E0
1.004951883E1,1.407822418E0,-3.654051361E0,1.279539185E0,4.119620836E0
1.005958783E1,8.668473816E-1,-2.593806152E0,1.193318481E0,2.983833731E0
1.006965783E1,5.523513794E-1,-1.553020477E0,9.868977356E-1,1.921179791E0
1.007972683E1,3.544628906E-1,-6.649172974E-1,6.505471802E-1,9.954750558E-1
1.008979583E1,-5.643264771E-2,-6.706054688E-2,6.676116943E-2,1.101762879E-1
1.009986583E1,-4.552033997E-1,6.038442993E-1,-4.424798584E-1,8.761429666E-1
1.010993483E1,-1.432820435E0,1.104253693E0,-8.235873413E-1,1.987623386E0
1.012000383E1,-2.696043549E0,1.090781708E0,-9.044192505E-1,3.045723187E0
1.013007383E1,-3.282074890E0,9.309141541E-1,-7.075785828E-1,3.484147557E0
1.014014283E1,-3.429518280E0,4.096980286E-1,-2.537223816E-1,3.463209950E0
1.015021183E1,-3.437152405E0,-2.582130432E-1,1.098715210E-1,3.448588462E0
1.016028183E1,-2.959495697E0,-7.614665222E-1,2.715353394E-1,3.067927230E0
1.017035083E1,-2.180814972E0,-1.188827820E0,3.032693481E-1,2.502246555E0
1.018041983E1,-1.147364044E0,-1.227447510E0,5.242098999E-1,1.760076038E0
1.019048983E1,1.095721436E-1,-8.562194824E-1,3.450325012E-1,9.296049073E-1
1.020055883E1,8.204438782E-1,-2.993774414E-1,2.347119141E-1,9.043476612E-1
1.021062783E1,6.256988525E-1,1.107696533E-2,3.589535522E-1,7.214356561E-1
1.022069783E1,2.791694641E-1,-1.794767761E-1,6.809339905E-1,7.575081533E-1
1.023076683E1,-1.092727661E-2,-3.977229309E-1,1.636397095E0,1.684071966E0
1.024083583E1,-1.115779724E0,-5.162763977E-1,3.139870605E0,3.371986526E0
1.025090583E1,-2.549049225E0,-7.250921631E-1,4.509821777E0,5.230860642E0
1.026097483E1,-3.379372559E0,-5.324427795E-1,6.259982300E0,7.133795105E0
1.027104383E1,-3.653003540E0,-1.875599670E-1,8.787626038E0,9.518507498E0
1.028111383E1,-3.643872528E0,-2.805166626E-1,1.089524323E1,1.149185892E1
1.029118283E1,-3.830384674E0,-6.439608765E-1,1.128308670E1,1.193291992E1
1.030125183E1,-3.514242096E0,-1.297052765E0,1.271336243E1,1.325374768E1
1.031132183E1,-1.128802643E0,-2.517165527E0,1.883203857E1,1.903302379E1
1.032139083E1,2.676284637E0,-4.002676392E0,2.763897446E1,2.805524598E1
1.033145983E1,5.827381897E0,-4.071383514E0,3.553250977E1,3.623663607E1
1.034152983E1,7.608527985E0,-3.632945251E0,3.895319641E1,3.985523178E1
1.035159883E1,5.922134857E0,-3.969146118E0,3.985282562E1,4.048547285E1
1.036166783E1,8.225395203E-1,-4.891977081E0,3.793845657E1,3.826139697E1
1.037173783E1,-2.051184540E0,-4.128863983E0,3.422303284E1,3.453217127E1
1.038180683E1,7.110214233E-2,-2.397863617E0,3.056104797E1,3.065505601E1
1.039187583E1,-8.574169922E-1,-1.204844513E0,3.248769150E1,3.252133012E1
1.040194583E1,-1.916464691E0,-8.210426331E-1,3.416151077E1,3.422507511E1
1.041201483E1,1.035845947E-1,-7.997868347E-1,3.624323181E1,3.625220326E1
1.042208483E1,1.084644470E0,-1.371597748E0,4.035024124E1,4.038811338E1
1.043215383E1,4.837939453E-1,-2.255958710E0,4.151362198E1,4.157768892E1
1.044222283E1,-4.754113770E-1,-2.991828461E0,3.920691879E1,3.932377824E1
1.045229283E1,-1.560804291E0,-2.998863831E0,3.497716461E1,3.514016703E1
1.046236183E1,-2.899320831E0,-2.317480774E0,2.943658630E1,2.966967124E1
1.047243083E1,-3.519032135E0,-1.368753662E0,2.575843506E1,2.603370989E1
1.048250083E1,-3.680396576E0,-2.103126526E-1,2.351639740E1,2.380358160E1
1.049256983E1,-3.852837982E0,2.297721863E-1,2.097962265E1,2.133170697E1
1.050263883E1,-3.685336304E0,-1.984872437E-1,1.814077606E1,1.851239739E1
1.051270883E1,-2.656974792E0,-7.780819702E-1,1.536075714E1,1.560826020E1
1.052277783E1,-1.411414948E0,-1.367705841E0,1.220337296E1,1.236062389E1
1.053284683E1,-2.782713318E-1,-1.669478302E0,8.742420044E0,8.904745980E0
1.054291683E1,-1.811233521E-2,-2.117646332E0,5.504653015E0,5.897962263E0
1.055298583E1,1.000369720E0,-2.281705170E0,3.135978699E0,4.005156733E0
1.056305483E1,1.912572784E0,-1.389410706E0,6.152206421E-1,2.442722498E0
1.057312483E1,2.213896179E0,-4.096980286E-1,-1.757794647E0,2.856401720E0
1.058319383E1,2.682721252E0,9.666897583E-1,-3.487896881E0,4.505208881E0
1.059326283E1,2.075733490E0,1.676513672E0,-5.636977844E0,6.236576531E0
1.060333283E1,1.545386353E0,1.796713715E0,-7.599396973E0,7.960353855E0
1.061340183E1,1.681303711E0,1.400787048E0,-9.458979950E0,9.708825275E0
1.062347083E1,2.279160461E0,1.159339142E0,-9.051976318E0,9.406216823E0
1.063354083E1,2.655178528E0,1.441801758E0,-6.194568329E0,6.892128996E0
1.064360983E1,3.200644226E0,1.378184052E0,-5.385650482E0,6.414728822E0
1.065367883E1,3.271746368E0,9.306147766E-1,-5.339396667E0,6.330839197E0
1.066374883E1,3.394042053E0,9.753717041E-1,-4.650978241E0,5.839732016E0
1.067381783E1,3.763473816E0,9.407936096E-1,-4.464466095E0,5.914413351E0
1.068388683E1,4.006268921E0,1.204994202E-1,-4.497996368E0,6.024672780E0
1.069395683E1,4.531826019E0,-2.091151428E-1,-3.544030151E0,5.756850348E0
1.070402583E1,4.724625092E0,-5.879772949E-1,-2.489772491E0,5.372780157E0
1.071409483E1,4.206851807E0,-1.208137665E0,-1.459614716E0,4.613856723E0
1.072416483E1,3.675157471E0,-1.713636475E0,-6.325845337E-1,4.104082796E0
1.073423383E1,3.105891266E0,-2.510130157E0,4.565505981E-1,4.019421900E0
1.074430283E1,2.271226959E0,-2.849025421E0,2.297572174E0,4.307465107E0
1.075437283E1,1.030457153E0,-2.611020355E0,3.776347046E0,4.705323182E0
1.076444183E1,5.313949585E-2,-2.117945709E0,3.737128601E0,4.295887337E0
1.077451183E1,-7.400610352E-1,-1.275796967E0,2.282154236E0,2.717273669E0
1.078458158E1,-1.208736420E0,-3.864962769E-1,1.131646729E0,1.700308038E0
1.079465058E1,-1.408720551E0,3.052153015E-1,7.673043823E-1,1.632913343E0
1.080472058E1,-1.518442383E0,7.460485840E-1,7.942483521E-1,1.868979990E0
1.081478958E1,-1.884730682E0,7.936495972E-1,7.029382324E-1,2.162454991E0
1.082485858E1,-1.987117767E0,8.732839966E-1,8.279283142E-1,2.323085718E0
1.083492858E1,-2.327509918E0,7.253915405E-1,7.056326294E-1,2.537993837E0
1.084499758E1,-3.089874573E0,1.437011719E-1,1.002914429E0,3.251739881E0
1.085506658E1,-3.675606537E0,-1.204994202E-1,1.532064056E0,3.983945757E0
1.086513658E1,-3.600313110E0,2.098635864E-1,1.470092926E0,3.894543674E0
1.087520558E1,-2.991229706E0,6.297404480E-1,6.152206421E-1,3.118096314E0
1.088527458E1,-2.261946259E0,9.319619751E-1,-4.107458496E-1,2.480658411E0
1.089534458E1,-1.952090607E0,9.976753235E-1,-9.837542725E-1,2.402870420E0
1.090541358E1,-1.754950562E0,9.750723267E-1,-1.333576813E0,2.410195974E0
1.091548258E1,-1.339714050E0,7.457492065E-1,-1.580563202E0,2.202079847E0
1.092555258E1,-1.029708710E0,-5.538482666E-2,-1.809736633E0,2.082910029E0
1.093562158E1,-1.354682922E-1,-1.108145599E0,-1.963167572E0,2.258398823E0
1.094569058E1,1.564995575E0,-1.511257324E0,-1.155896301E0,2.463575878E0
1.095576058E1,2.861449585E0,-1.837429047E0,-5.403762817E-2,3.401023272E0
1.096582958E1,3.768413544E0,-1.768721924E0,1.056053925E0,4.294713934E0
1.097589858E1,4.311035156E0,-1.059347076E0,2.510878601E0,5.100171732E0
1.098596858E1,3.333867188E0,9.624984741E-2,5.393434296E0,6.341377450E0
1.099603758E1,1.954335938E0,9.566606140E-1,1.063882645E1,1.085906334E1
1.100610658E1,1.818867645E0,1.243913269E0,2.094534393E1,2.106093617E1
1.101617658E1,3.251239014E0,5.653742981E-1,3.409370178E1,3.425303935E1
1.102624558E1,5.483397217E0,-1.206341400E0,4.198424332E1,4.235799324E1
1.103631458E1,3.864663391E0,-5.393284607E0,4.732229279E1,4.778517068E1
1.104638458E1,2.129471741E0,-9.352850647E0,4.563455246E1,4.663177933E1
1.105645358E1,-2.874023438E-2,-1.010234207E1,4.013798264E1,4.138980299E1
1.106652258E1,-6.047424316E-2,-5.480104065E0,3.763698349E1,3.803390230E1
1.107659258E1,2.081271973E0,-1.145118713E0,3.781945404E1,3.789398493E1
1.108666158E1,1.581161957E0,-4.426295471E-1,3.451268051E1,3.455171646E1
1.109673058E1,1.522933044E0,-6.867718506E-1,3.268318497E1,3.272585461E1
1.110680058E1,2.710713043E0,-5.559439087E-1,3.216660919E1,3.228541135E1
1.111686958E1,3.127446442E0,-6.572831726E-1,3.175271988E1,3.191313463E1
1.112693958E1,2.465522919E0,-8.942404175E-1,3.156066925E1,3.166945394E1
1.113700858E1,1.054107971E0,-1.479373627E0,3.182367233E1,3.187547350E1
1.114707758E1,4.480183411E-1,-2.704875183E0,3.149779999E1,3.161690172E1
1.115714658E1,1.001866608E0,-4.212839355E0,3.052587112E1,3.083148650E1
1.116721658E1,1.429676971E0,-5.514831848E0,2.883019730E1,2.938771210E1
1.117728558E1,7.943980408E-1,-5.899082794E0,2.643832123E1,2.710009364E1
1.118735558E1,-2.833607483E-1,-5.477559357E0,2.298440369E1,2.362978550E1
1.119742458E1,-1.770967255E0,-4.076921997E0,1.964335144E1,2.013998197E1
1.120749358E1,-4.587809601E0,-1.871707764E0,1.573707458E1,1.649869096E1
1.121756358E1,-7.651039581E0,1.161135406E0,1.240739868E1,1.462293350E1
1.122763258E1,-8.683442688E0,3.957470398E0,9.244476013E0,1.328623670E1
1.123770158E1,-7.007976837E0,3.326682129E0,5.029541016E0,9.245260200E0
1.124777158E1,-3.532803497E0,6.991960144E-1,6.821315002E-1,3.665362056E0
1.125784058E1,9.216334534E-1,-1.374142456E-1,-2.457140350E0,2.627894518E0
1.126790958E1,4.734654236E0,3.531156921E-1,-5.088218994E0,6.959282575E0
1.127797958E1,7.617060242E0,1.542542267E0,-7.622149658E0,1.088559639E1
1.128804858E1,8.372239838E0,2.910547485E0,-8.869954834E0,1.253960866E1
1.129811758E1,8.899892578E0,4.390070801E0,-8.760083313E0,1.323706422E1
1.130818758E1,8.463100891E0,4.792883148E0,-7.105573883E0,1.204512290E1
1.131825658E1,8.009993134E0,4.469405823E0,-4.997357941E0,1.044553325E1
1.132832558E1,7.656128998E0,3.880979462E0,-3.466641083E0,9.257208716E0
1.133839558E1,6.713239746E0,2.336042175E0,-2.439327393E0,7.514984967E0
1.134846458E1,6.663243713E0,6.477030945E-1,-1.807940369E0,6.934477951E0
1.135853358E1,7.244634705E0,-1.018931122E0,-1.444346466E0,7.457150216E0
1.136860358E1,7.491172028E0,-2.231858826E0,-1.632804565E0,7.985292913E0
1.137867258E1,6.119424591E0,-3.122806091E0,-1.645827484E0,7.064561085E0
1.138874158E1,4.284091187E0,-3.626658325E0,-1.124761047E0,5.724611368E0
1.139881158E1,2.930156708E0,-3.464395752E0,-6.719526672E-1,4.586870027E0
1.140888058E1,2.666105804E0,-2.769091644E0,-6.394702148E-1,3.896782115E0
1.141894958E1,2.753673706E0,-1.913620605E0,-5.605842590E-1,3.399840792E0
1.142901958E1,2.200723572E0,-8.231382751E-1,-4.953199768E-1,2.401266903E0
1.143908858E1,1.546284485E0,1.703457642E-1,-6.493496704E-1,1.685724883E0
1.144915758E1,1.171912994E0,1.030606842E0,-2.145039368E-1,1.575291233E0
1.145922758E1,-5.852828979E-2,6.010002136E-1,2.475851440E-1,6.526294669E-1
1.146929658E1,-8.821156311E-1,-3.363505554E-1,8.053253174E-1,1.240890225E0
1.147936558E1,-1.806293793E0,-2.704875183E-1,8.361611938E-1,2.008737490E0
1.148943558E1,-2.117796021E0,1.709445190E-1,8.472381592E-1,2.287377212E0
1.149950458E1,-1.581311646E0,4.959187317E-1,9.479786682E-1,1.909226405E0
1.150957358E1,-1.895059204E0,1.321751404E-1,1.309925995E0,2.307515063E0
1.151964358E1,-1.393601990E0,-1.939965820E-1,1.162183228E0,1.824946858E0
1.152971258E1,-1.482217712E0,-4.887336731E-1,1.936223602E0,2.486924162E0
1.153978158E1,-1.668580170E0,-4.809498596E-1,2.168690186E0,2.778252989E0
1.154985158E1,-1.791923676E0,-1.712438965E-1,1.797761536E0,2.544063967E0
1.155992058E1,-1.827699280E0,4.355941772E-1,1.640289001E0,2.494148142E0
1.156998958E1,-1.972148895E0,8.391549683E-1,1.868115234E0,2.843133281E0
1.158005958E1,-2.496957550E0,9.964778137E-1,1.254990234E0,2.966945488E0
1.159012858E1,-2.431094513E0,1.373394012E0,-1.401086426E-1,2.795722103E0
1.160019858E1,-1.746717682E0,1.958676910E0,-6.222560120E-1,2.697154138E0
1.161026758E1,-9.551637268E-1,2.374512177E0,-1.395098877E-1,2.563222353E0
1.162033658E1,-5.900729370E-1,2.144590302E0,1.048719177E0,2.459118855E0
1.163040658E1,-5.569917297E-1,2.115251312E0,2.714155884E0,3.485852846E0
1.164047558E1,-1.619931335E0,2.059716797E0,4.065695343E0,4.836991776E0
1.165054458E1,-4.390669556E0,1.576222229E0,6.764283600E0,8.216933022E0
1.166061458E1,-1.042207718E1,-2.174977112E-1,1.811038925E1,2.089624839E1
1.167068358E1,-1.113594269E1,-2.961441650E0,2.307721069E1,2.579412742E1
1.168075258E1,-3.942950592E0,-8.734336853E-1,2.149440216E1,2.187050685E1
1.169082258E1,1.402583313E0,1.359622650E0,2.964315674E1,2.970744949E1
1.170089158E1,1.272009842E1,4.504133606E0,2.967548950E1,3.259942945E1
1.171096058E1,1.930610275E1,3.305576019E0,2.130324966E1,2.893926196E1
1.172103058E1,1.123353973E1,-4.272714844E0,3.769730804E1,3.956684901E1
1.173109958E1,9.580676880E0,-7.601492615E0,4.816638748E1,4.969479794E1
1.174116858E1,9.010213165E0,-4.940775604E0,3.653018509E1,3.794798582E1
1.175123858E1,8.929980011E0,-2.980302429E-1,3.200225098E1,3.322615585E1
1.176130758E1,8.392148438E0,9.006770325E-1,3.316802673E1,3.422509857E1
1.177137658E1,6.628216553E0,9.520202637E-1,3.193414261E1,3.262865399E1
1.178144621E1,5.542374573E0,2.430944824E-1,3.381198761E1,3.426408494E1
1.179151521E1,5.090164948E0,-1.142723694E0,3.747516998E1,3.783654268E1
1.180158421E1,4.095782776E0,-3.460653534E0,3.889900909E1,3.926683674E1
1.181165421E1,1.907183990E0,-5.115013275E0,3.932008347E1,3.969722503E1
1.182172321E1,1.060394897E0,-5.387746124E0,3.692251923E1,3.732860393E1
1.183179221E1,4.412823486E-1,-5.951623535E0,3.289095291E1,3.342800228E1
1.184186221E1,6.798861694E-1,-5.726940765E0,2.785347839E1,2.844426751E1
1.185193121E1,5.902226257E-1,-5.115462341E0,2.329934875E1,2.386160033E1
1.186200021E1,6.294410706E-1,-4.200115814E0,1.945309708E1,1.991130721E1
1.187207021E1,8.232879639E-1,-3.309318237E0,1.620125931E1,1.655627354E1
1.188213921E1,8.092172241E-1,-2.399061127E0,1.312350952E1,1.336550893E1
1.189220821E1,7.963439941E-1,-1.367406464E0,1.039737854E1,1.051710249E1
1.190227821E1,8.216413879E-1,-6.033952332E-1,7.655380554E0,7.722954862E0
1.191234721E1,8.999285889E-1,6.990463257E-2,4.967569885E0,5.048911634E0
1.192241621E1,1.514849854E0,7.722441101E-1,2.493814087E0,3.018317370E0
1.193248621E1,1.290765839E0,9.376501465E-1,6.324348450E-1,1.716169595E0
1.194255521E1,1.027014313E0,1.293609924E0,-7.402107239E-1,1.809999158E0
1.195262421E1,5.363346863E-1,1.420995026E0,-2.266885986E0,2.728672541E0
1.196269421E1,7.783813477E-2,1.466799774E0,-3.228336639E0,3.546789789E0
1.197276321E1,-1.392105103E-1,1.409319305E0,-4.411925354E0,4.633642822E0
1.198283221E1,-7.349716187E-2,1.202748871E0,-5.696853333E0,5.822898296E0
1.199290221E1,1.033001862E0,1.604962463E0,-7.262447662E0,7.509070742E0
1.200297121E1,2.175426178E0,2.440375214E0,-8.439150696E0,9.050258267E0
1.201304121E1,2.775228882E0,3.109034729E0,-9.607770538E0,1.047269053E1
1.202311021E1,2.316882019E0,3.538641357E0,-1.014664993E1,1.099292635E1
1.203317921E1,1.810934143E0,3.811523895E0,-9.894125061E0,1.075643564E1
1.204324921E1,1.007405090E0,4.111051025E0,-8.654253387E0,9.633883290E0
1.205331821E1,-4.619393921E-1,3.683989105E0,-7.997568970E0,8.817384712E0
1.206338721E1,-9.160949707E-1,2.524799652E0,-7.290738831E0,7.769730753E0
1.207345721E1,-1.647474060E0,1.425635376E0,-6.487658844E0,6.843706911E0
1.208352621E1,-1.660197601E0,7.390132141E-1,-5.291496277E0,5.594848475E0
1.209359521E1,-1.030307465E0,4.659809875E-1,-4.147575073E0,4.298959262E0
1.210366521E1,-9.247769165E-1,2.145039368E-1,-3.392096100E0,3.522433851E0
1.211373421E1,-6.068380737E-1,5.882766724E-2,-2.703827362E0,2.771713468E0
1.212380321E1,1.071771240E-1,1.404080200E-1,-2.148033142E0,2.155283677E0
1.213387321E1,9.506730652E-1,2.671943665E-1,-1.563798065E0,1.849496281E0
1.214394221E1,1.626817017E0,-3.577560425E-2,-9.134005737E-1,1.866042365E0
1.215401121E1,1.723665619E0,-5.390290833E-1,-3.619473267E-1,1.841896139E0
1.216408121E1,1.475332031E0,-8.436456299E-1,3.188369751E-2,1.699811496E0
1.217415021E1,8.346643066E-1,-1.080902252E0,3.644920349E-1,1.413459807E0
1.218421921E1,7.185058594E-3,-1.202449493E0,6.251000977E-1,1.355244089E0
1.219428921E1,-8.666976929E-1,-1.225651245E0,8.405021667E-1,1.720415577E0
1.220435821E1,-1.386267242E0,-1.135838013E0,1.196012878E0,2.154602438E0
1.221442721E1,-1.508862305E0,-9.747729492E-1,1.765279083E0,2.518542832E0
1.222449721E1,-1.792073364E0,-5.873785400E-1,2.739453278E0,3.325829934E0
1.223456621E1,-1.522933044E0,-4.296066284E-1,3.062930603E0,3.447525314E0
1.224463521E1,-8.978329468E-1,-5.893244934E-1,2.718646545E0,2.923088503E0
1.225470521E1,-2.056723022E-1,-5.921685791E-1,2.765798492E0,2.835948875E0
1.226477421E1,1.947450256E-1,-5.228627014E-1,2.889141998E0,2.942524854E0
1.227484321E1,-3.049159241E-1,-5.001100159E-1,3.003504181E0,3.060085148E0
1.228491321E1,-8.072712708E-1,-2.595602417E-1,3.209924927E0,3.320041635E0
1.229498221E1,-1.196312256E0,7.244934082E-2,3.225193176E0,3.440680593E0
1.230505121E1,-9.349557495E-1,2.335144043E-2,3.149151306E0,3.285093833E0
1.231512121E1,-9.370513916E-2,-1.463955688E-1,3.203039246E0,3.207751974E0
1.232519021E1,4.197271729E-1,-4.605921936E-1,3.400478668E0,3.457104459E0
1.233525921E1,1.920356598E0,-6.984475708E-1,4.465214539E0,4.910574238E0
1.234532921E1,3.669020233E0,-9.663903809E-1,6.609206085E0,7.620841483E0
1.235539821E1,6.220614166E0,-1.485810242E0,1.147618515E1,1.313797923E1
1.236546721E1,1.019215530E1,-1.977537689E0,2.107707001E1,2.349539455E1
1.237553721E1,1.321916061E1,-2.739153900E0,4.661621109E1,4.853164234E1
1.238560621E1,1.266381546E1,-3.412453766E0,6.747338837E1,6.873627281E1
1.239567521E1,1.293445267E1,-1.127455444E0,5.127676941E1,5.289497427E1
1.240574521E1,1.310898972E1,-7.854167175E-1,3.683450226E1,3.910553730E1
1.241581421E1,9.190887451E0,-6.327940979E0,3.432003113E1,3.608849936E1
1.242588321E1,5.305567017E0,-1.106573868E1,3.475263153E1,3.685573242E1
1.243595321E1,8.122409363E0,-6.455924835E0,3.319362350E1,3.477742286E1
1.244602221E1,1.016416351E1,-2.160157928E0,3.216855515E1,3.380521324E1
1.245609221E1,1.245604752E1,-1.633103943E-1,3.205224701E1,3.438788054E1
1.246616121E1,1.235081635E1,9.916877747E-1,3.350138351E1,3.571930579E1
1.247623021E1,1.044542862E1,7.086264038E-1,3.488645325E1,3.642353292E1
1.248630021E1,7.694149933E0,-3.975732422E-1,3.434937012E1,3.520280152E1
1.249636921E1,4.905449066E0,-1.393152924E0,3.194057922E1,3.234509092E1
1.250643821E1,2.233206024E0,-2.152823181E0,2.889875473E1,2.906475325E1
1.251650821E1,8.325686646E-1,-2.683769073E0,2.645718201E1,2.660598179E1
1.252657721E1,4.412823486E-1,-2.916235657E0,2.349244720E1,2.367687133E1
1.253664621E1,-3.216810608E-1,-2.728076935E0,2.034404434E1,2.052866344E1
1.254671621E1,-6.140231323E-1,-1.631756744E0,1.789678345E1,1.798150473E1
1.255678521E1,-1.081201630E0,-9.577084351E-1,1.531375488E1,1.538171938E1
1.256685421E1,-1.077160034E0,2.636018372E-1,1.303683975E1,1.308391953E1
1.257692421E1,-6.267466736E-1,1.404978333E0,1.059601547E1,1.070711536E1
1.258699321E1,-5.090913391E-1,1.600022736E0,7.722291412E0,7.902723037E0
1.259706221E1,-5.140310669E-1,1.286275177E0,5.045408020E0,5.232100329E0
1.260713221E1,-3.534150696E-1,9.997709656E-1,2.472857666E0,2.690626178E0
1.261720121E1,4.650828552E-1,4.917274475E-1,1.154100037E-1,6.865984371E-1
1.262727021E1,2.193987579E0,-1.420545959E-1,-1.809137878E0,2.847233898E0
1.263734021E1,3.766617279E0,-2.844085693E-1,-3.029100952E0,4.841874280E0
1.264740921E1,5.601052551E0,9.370513916E-2,-3.750600586E0,6.741481669E0
1.265747821E1,7.368277588E0,1.152603149E-1,-4.694387970E0,8.737395376E0
1.266754821E1,8.574469299E0,3.038681030E-1,-5.700894928E0,1.030116802E1
1.267761721E1,8.709039459E0,1.510359192E-1,-6.546785889E0,1.089635653E1
1.268768621E1,8.473579102E0,-2.109114075E-1,-7.714507599E0,1.146122393E1
1.269775621E1,8.219407654E0,2.255809021E-1,-1.019919067E1,1.310087933E1
1.270782521E1,6.520590363E0,8.189469910E-1,-1.299582504E1,1.456297502E1
1.271789421E1,3.002606049E0,-3.564088440E-1,-1.359996872E1,1.393204291E1
1.272796421E1,-1.107696533E-1,-1.956281891E0,-1.358350296E1,1.372409784E1
1.273803321E1,-2.511776733E0,-1.727258148E0,-1.242655884E1,1.279499151E1
1.274810221E1,-5.653593292E0,-1.083746338E0,-8.226293335E0,1.004039468E1
1.275817221E1,-6.451583862E0,-7.014413452E-1,-5.570815430E0,8.552715291E0
1.276824121E1,-6.064189453E0,-5.228627014E-1,-3.787873077E0,7.169083734E0
1.277831021E1,-3.900438995E0,1.597178650E-1,-2.034419403E0,4.402021861E0
1.278837937E1,-2.034569092E0,1.498234406E0,-1.435664520E0,2.906081612E0
1.279844837E1,-8.110134888E-1,1.613943787E0,-1.764081573E0,2.524785382E0
1.280851737E1,1.945953369E-1,1.296304321E0,-2.096989288E0,2.472981260E0
1.281858737E1,5.316943359E-1,1.290466461E0,-2.125579834E0,2.542851192E0
1.282865637E1,3.929328918E-1,1.507365417E0,-1.792073364E0,2.374462824E0
1.283872537E1,1.824705505E-1,1.758243713E0,-1.517095184E0,2.329440760E0
1.284879537E1,-4.206253052E-2,1.878743134E0,-1.500928802E0,2.405043095E0
1.285886437E1,-1.874102783E-1,2.086810455E0,-1.490001526E0,2.570993006E0
1.286893337E1,-7.424560547E-2,2.469564514E0,-1.274898834E0,2.780220915E0
1.287900337E1,5.029541016E-2,2.786754913E0,-1.076261902E0,2.987787184E0
1.288907237E1,2.679428101E-2,3.118764496E0,-8.852590942E-1,3.242081674E0
1.289914237E1,-1.570234680E-1,3.163671112E0,-7.354206848E-1,3.251817163E0
1.290921137E1,-5.601351929E-1,2.713557129E0,-3.670367432E-1,2.794970429E0
1.291928038E1,-1.199306030E0,1.868264923E0,-2.574645996E-2,2.220227839E0
1.292935037E1,-1.694925385E0,1.161734161E0,4.743635559E-1,2.108890491E0
1.293941937E1,-2.675536194E0,5.397775269E-1,1.951491852E0,3.355320275E0
1.294948837E1,-3.617078247E0,2.688409424E-1,2.205513611E0,4.244975946E0
1.295955837E1,-3.701951752E0,1.748364258E-1,2.982847137E0,4.757351321E0
1.296962737E1,-3.136577454E0,1.474433899E-1,3.300636292E0,4.555662148E0
1.297969637E1,-2.241588593E0,-2.606080627E-1,3.723207550E0,4.353723744E0
1.298976637E1,2.174977112E-1,-1.839674377E0,7.201674042E0,7.436115658E0
1.299983537E1,3.704945526E0,-4.528832245E0,1.279943344E1,1.407346579E1
1.300990437E1,5.271138611E0,-6.921307068E0,1.549667450E1,1.777178422E1
1.301997437E1,6.709048462E0,-9.747579803E0,1.861663651E1,2.205914318E1
1.303004337E1,9.569300537E0,-1.149684219E1,2.033311707E1,2.524251459E1
1.304011237E1,1.230561035E1,-1.229183899E1,2.853186768E1,3.341533817E1
1.305018237E1,1.757674896E1,-1.083297272E1,3.087898682E1,3.714575654E1
1.306025137E1,2.350561981E1,-5.586383057E0,2.635075333E1,3.575030125E1
1.307032037E1,3.465653137E1,1.693278809E0,2.884756119E1,4.512343234E1
1.308039037E1,4.795173386E1,6.155798950E0,3.929403763E1,6.229995212E1
1.309045937E1,3.134107590E1,5.945635986E-1,3.668152039E1,4.825091172E1
1.310052837E1,1.423090668E1,-9.213340759E-1,2.046574127E1,2.494422032E1
1.311059837E1,7.628586273E0,-5.647755432E-1,1.997955231E1,2.139384983E1
1.312066737E1,8.458759918E0,4.375401306E-1,2.909215256E1,3.030008913E1
1.313073637E1,1.575204346E1,1.572030945E0,3.054862381E1,3.440663557E1
1.314080637E1,2.218117401E1,1.513352966E0,2.641317352E1,3.452463545E1
1.315087537E1,2.272259811E1,-8.123606873E-1,2.890549072E1,3.677640261E1
1.316094437E1,2.192640381E1,-3.061583405E0,3.055206665E1,3.773021672E1
1.317101437E1,2.075943054E1,-3.032992859E0,2.880744461E1,3.563736616E1
1.318108338E1,1.804272995E1,-2.559078369E0,2.594105530E1,3.170216611E1
1.319115237E1,1.498384094E1,-2.847977600E0,2.369841888E1,2.818229095E1
1.320122237E1,1.236144424E1,-3.676504669E0,2.274579987E1,2.614753147E1
1.321129137E1,1.050515442E1,-4.944667511E0,2.219883728E1,2.505187384E1
1.322136037E1,1.005114853E1,-5.698350220E0,2.104129440E1,2.400485060E1
1.323143037E1,9.176667023E0,-6.397246857E0,1.888787247E1,2.195194095E1
1.324149937E1,8.017028503E0,-5.654790802E0,1.587224350E1,1.865951550E1
1.325156837E1,6.430178375E0,-4.142785034E0,1.263717087E1,1.477186343E1
1.326163837E1,4.933440857E0,-2.478396149E0,1.011087433E1,1.152002890E1
1.327170737E1,3.973337402E0,-4.564009094E-1,7.780220947E0,8.748002623E0
1.328177737E1,3.138673096E0,1.543739777E0,5.767805786E0,6.745515910E0
1.329184637E1,2.279459839E0,3.022514648E0,4.003873901E0,5.510221246E0
1.330191537E1,1.477277985E0,3.662733307E0,2.380799103E0,4.611525766E0
1.331198537E1,5.887257385E-1,3.812122650E0,1.532662811E0,4.150654453E0
1.332205437E1,-3.453318787E-1,3.471580811E0,3.070115662E-1,3.502196958E0
1.333212337E1,-8.590635681E-1,2.950364685E0,-1.411564636E0,3.381590855E0
1.334219337E1,-5.023553467E-1,2.430944824E0,-3.125799866E0,3.991550881E0
1.335226237E1,1.706451416E-1,1.963017883E0,-4.547842712E0,4.956352723E0
1.336233137E1,9.982740784E-1,1.741328888E0,-5.451513519E0,5.809283698E0
1.337240137E1,1.557660828E0,1.523232422E0,-6.229894867E0,6.599858659E0
1.338247037E1,1.641037445E0,1.103056183E0,-7.772886200E0,8.020442426E0
1.339253937E1,1.515747986E0,5.538482666E-1,-9.752519531E0,9.885134145E0
1.340260937E1,1.371897125E0,9.071136475E-2,-1.184277283E1,1.192231515E1
1.341267837E1,7.387138367E-1,-4.191284180E-3,-1.350282074E1,1.352301311E1
1.342274737E1,-5.394781494E-1,2.098635864E-1,-1.348381027E1,1.349622980E1
1.343281737E1,-1.841021576E0,5.119354248E-2,-1.221549774E1,1.235355683E1
1.344288638E1,-2.472408600E0,-4.412823486E-1,-8.205187225E0,8.580945857E0
1.345295537E1,-2.530487823E0,-1.026864624E0,-4.980143738E0,5.679758026E0
1.346302537E1,-2.607577515E0,-1.230740662E0,-3.088227997E0,4.225084050E0
1.347309437E1,-2.150877228E0,-1.057850189E0,-2.070195007E0,3.167179698E0
1.348316337E1,-1.467398529E0,-8.211923218E-1,-1.903292084E0,2.539711800E0
1.349323337E1,-9.421408081E-1,-1.089733887E-1,-1.978136444E0,2.193747545E0
1.350330237E1,-7.596702576E-1,2.932402039E-1,-1.791773987E0,1.968131789E0
1.351337137E1,-4.526586914E-1,3.939807129E-1,-1.857637024E0,1.952161880E0
1.352344138E1,-3.013233948E-1,1.691482544E-2,-2.105671234E0,2.127189048E0
1.353351037E1,-3.065625000E-1,1.631607056E-2,-1.890119476E0,1.914888617E0
1.354357937E1,-4.052373047E0,3.592529297E-2,-2.227667542E0,4.624448141E0
1.355364937E1,-5.373226318E0,9.045689392E-1,-3.216361542E0,6.327304924E0
1.356371837E1,-6.423143005E-1,1.391805725E0,-3.674409027E0,3.981327986E0
1.357378738E1,4.018393707E0,1.187031555E0,-2.127974854E0,4.699447720E0
1.358385737E1,2.524949341E0,1.959425354E-1,1.729653168E0,3.066832687E0
1.359392637E1,3.357518005E-1,-5.141807556E-1,2.625091095E0,2.695962607E0
1.360399537E1,-7.583230591E-1,-1.233884125E0,3.278033295E0,3.583716810E0
1.361406537E1,-9.639953613E-1,-1.734592896E0,5.698649597E0,6.034294226E0
1.362413437E1,1.901046753E-2,-2.572550354E0,7.325915680E0,7.764497232E0
1.363420337E1,6.921606445E-1,-3.276835785E0,7.279362488E0,8.012855755E0
1.364427337E1,-4.659809875E-1,-3.722309418E0,7.058871002E0,7.993771670E0
1.365434237E1,-1.774110718E0,-3.661386108E0,5.926176453E0,7.188378428E0
1.366441237E1,-2.581681366E0,-3.400778046E0,4.779261475E0,6.408721420E0
1.367448137E1,-3.036136322E0,-3.785777435E0,5.339246979E0,7.215108652E0
1.368455037E1,-1.865121460E0,-3.834875336E0,7.478598175E0,8.608970761E0
1.369462037E1,1.232087860E0,-2.885998535E0,7.641908569E0,8.261101296E0
1.370468937E1,5.373376007E0,-2.482138367E0,5.752986603E0,8.254152618E0
1.371475837E1,8.247848511E0,-3.237168274E0,4.136797485E0,9.778515067E0
1.372482837E1,9.459129639E0,-4.406536560E0,7.557484131E0,1.288441944E1
1.373489737E1,1.134026779E1,-4.836891632E0,1.379127090E1,1.849854987E1
1.374496637E1,1.271994873E1,-4.139192505E0,1.799393143E1,2.242123053E1
1.375503637E1,1.136152359E1,-3.387156372E0,2.352552841E1,2.634402273E1
1.376510537E1,6.094875641E0,-3.543281708E0,2.983879990E1,3.066033812E1
1.377517437E1,1.015937347E0,-4.188739471E0,3.751378967E1,3.776058901E1
1.378524446E1,-2.330653381E0,-5.774691467E0,4.325480118E1,4.370076466E1
1.379531346E1,-6.247109070E0,-8.046666870E0,4.865991119E1,4.971480843E1
1.380538246E1,-1.109028763E1,-1.009485764E1,4.832281219E1,5.059639126E1
1.381545246E1,-1.004111938E1,-1.138068375E1,4.241040710E1,4.504427457E1
1.382552146E1,-2.890189819E0,-8.330776062E0,3.517220901E1,3.626071309E1
1.383559046E1,-8.327183533E-1,-5.580694885E0,3.605731842E1,3.649613386E1
1.384566046E1,9.668394470E-1,-2.629432068E0,3.506278656E1,3.517453188E1
1.385572946E1,3.834276581E0,-1.220711517E0,3.156096863E1,3.181645100E1
1.386579846E1,5.346581726E0,-9.357041931E-1,3.027020279E1,3.075299425E1
1.387586846E1,3.387156372E0,-5.252577209E-1,3.399640411E1,3.416876083E1
1.388593746E1,-9.851014709E-1,-1.127754822E0,3.222618530E1,3.226095589E1
1.389600646E1,-6.981931000E0,-2.177521820E0,2.538960205E1,2.642197673E1
1.390607646E1,-9.357341309E0,-3.218457184E0,2.063938019E1,2.288891255E1
1.391614546E1,-7.966433716E0,-4.393363953E0,1.785247559E1,2.003688093E1
1.392621446E1,-5.134023743E0,-2.772085419E0,1.527753021E1,1.635376369E1
1.393628446E1,-1.786085815E0,-7.276368713E-1,1.018242554E1,1.036346215E1
1.394635346E1,6.432124329E-1,4.782554626E-1,6.225254517E0,6.276642758E0
1.395642246E1,1.563348999E0,1.262025604E0,4.018393707E0,4.492689251E0
1.396649246E1,1.816772003E0,1.800904999E0,1.376836853E0,2.905098801E0
1.397656146E1,2.057471466E0,2.855462036E0,-3.034190369E-1,3.532550833E0
1.398663046E1,2.804867249E0,4.534071350E0,-6.562353516E-1,5.371752798E0
1.399670046E1,3.323987732E0,5.887107697E0,-1.097068634E0,6.849123379E0
1.400676946E1,3.058589630E0,6.113137665E0,-1.038240967E0,6.913997898E0
1.401683946E1,2.868934021E0,5.216352539E0,-8.881031799E-1,6.019123149E0
1.402690846E1,4.163741455E0,3.724405060E0,1.606309662E0,5.812758956E0
1.403697746E1,4.969066772E0,3.232078857E0,2.521506500E0,6.441735276E0
1.404704746E1,6.470145264E0,3.852388916E0,2.842588806E-1,7.535547970E0
1.405711646E1,6.938820648E0,3.841461639E0,-3.722758484E-1,7.939940102E0
1.406718546E1,6.913373566E0,2.948418732E0,7.032376099E-1,7.548672083E0
1.407725546E1,7.883206787E0,2.852468262E0,7.809260559E-1,8.419701297E0
1.408732446E1,7.330406342E0,3.316652985E0,-1.461860046E0,8.177535017E0
1.409739346E1,3.824247437E0,2.211501160E0,-3.639830933E0,5.723982447E0
1.410746346E1,1.535656586E0,6.141728210E-1,-4.079616394E0,4.402126682E0
1.411753246E1,7.177574158E-1,-1.020128632E0,-3.531306610E0,3.745125433E0
1.412760146E1,6.547384644E-1,-2.298619995E0,-3.247047729E0,4.031830266E0
1.413767146E1,1.282233582E0,-2.733465729E0,-3.601809998E0,4.699892882E0
1.414774046E1,1.396296387E0,-2.376907196E0,-3.603606262E0,4.537103648E0
1.415780946E1,8.277786255E-1,-1.586999817E0,-3.094814301E0,3.575144952E0
1.416787946E1,-8.740324402E-1,-6.541397095E-1,-2.274520111E0,2.522949306E0
1.417794846E1,-2.663860474E0,2.659968567E-1,-1.610650635E0,3.124276303E0
1.418801746E1,-3.216211853E0,1.226998444E0,-1.480870514E0,3.747335232E0
1.419808746E1,-2.588267670E0,2.014959869E0,-1.594633942E0,3.647197583E0
1.420815646E1,-1.346000977E0,1.956431580E0,-1.912273407E0,3.048956008E0
1.421822546E1,-5.059478760E-1,1.611249390E0,-2.274969177E0,2.833300656E0
1.422829546E1,-5.049000549E-1,1.303489380E0,-2.474653931E0,2.842168311E0
1.423836446E1,-5.827381897E-1,1.265468445E0,-2.654430084E0,2.997831425E0
1.424843346E1,-3.388952637E-1,1.586999817E0,-2.814147949E0,3.248514599E0
1.425850346E1,-4.968168640E-1,2.142045593E0,-2.242337036E0,3.140583020E0
1.426857246E1,-1.272054749E0,2.703977051E0,-1.957479401E0,3.572301888E0
1.427864146E1,-3.370840302E0,2.817291412E0,-2.477198639E0,5.043432198E0
1.428871146E1,-4.956492920E0,2.259551239E0,-1.935924225E0,5.781020366E0
1.429878046E1,-5.088967438E0,1.925595703E0,-6.319857788E-1,5.477674180E0
1.430884946E1,-4.364474030E0,8.324189758E-1,-3.948788452E-1,4.460659616E0
1.431891946E1,-2.982398071E0,-4.093986511E-1,-1.023870850E-1,3.012107008E0
1.432898846E1,-1.737736359E0,-7.488926697E-1,-2.686912537E-1,1.911220257E0
1.433905746E1,-3.981719971E-1,-9.249266052E-1,-9.478289795E-1,1.382899106E0
1.434912746E1,7.726931763E-1,-1.342109070E0,-1.200802917E0,1.959652813E0
1.435919646E1,1.690883789E0,-1.524280243E0,-2.323168945E-1,2.288337691E0
1.436926546E1,2.298021240E0,-1.743125153E0,9.108558655E-1,3.024738886E0
1.437933546E1,3.277284851E0,-1.854643250E0,2.828817444E0,4.709830752E0
1.438940446E1,5.630541229E0,-2.265688477E0,6.466852112E0,8.868850830E0
1.439947346E1,7.933651886E0,-4.755610657E0,1.377435608E1,1.659191220E1
1.440954346E1,1.376941635E1,-1.007854156E1,3.114992340E1,3.551748238E1
1.441961246E1,1.959170883E1,-1.666978500E1,4.817372223E1,5.461157662E1
1.442968246E1,2.053893906E1,-1.520762558E1,4.975877609E1,5.593796288E1
1.443975146E1,1.908336594E1,-9.726922760E0,5.653488510E1,6.045643982E1
1.444982046E1,2.142374908E1,-7.927065582E0,5.094580765E1,5.583270288E1
1.445989046E1,1.531749710E1,-8.001610565E0,4.051879074E1,4.405024282E1
1.446995946E1,9.798773346E0,-3.239413605E0,3.697416183E1,3.838747716E1
1.448002846E1,7.132368164E0,-6.047424316E-1,3.230252655E1,3.308609392E1
1.449009846E1,1.088760910E1,8.840615845E-1,3.276985474E1,3.454250970E1
1.450016746E1,1.583766541E1,1.808539124E0,3.251673111E1,3.621381313E1
1.451023646E1,1.599139572E1,1.310075684E0,3.039309723E1,3.436831964E1
1.452030646E1,1.412971710E1,8.631051636E-1,2.948792953E1,3.270981266E1
1.453037546E1,1.143082947E1,-5.763015747E-1,2.875864609E1,3.095247503E1
1.454044446E1,9.108259277E0,-2.491269379E0,2.814252731E1,2.968448507E1
1.455051446E1,6.747518463E0,-3.863016815E0,2.718122635E1,2.827138076E1
1.456058346E1,5.461842041E0,-4.451742554E0,2.408147232E1,2.509117453E1
1.457065246E1,5.475613403E0,-3.937861176E0,2.046963318E1,2.155214549E1
1.458072246E1,4.974904633E0,-2.962489471E0,1.804258026E1,1.894889766E1
1.459079146E1,2.737806702E0,-1.879192200E0,1.463506622E1,1.500706874E1
1.460086046E1,5.281018066E-1,-1.203347626E0,1.104538101E1,1.112328093E1
1.461093046E1,-8.071215820E-1,-8.349636841E-1,8.184679871E0,8.266655562E0
1.462099946E1,-1.434317322E0,-1.893562317E-1,5.924829254E0,6.098911678E0
1.463106846E1,-1.669777679E0,9.624984741E-2,3.789968719E0,4.142618064E0
1.464113846E1,-1.354982300E0,5.607339478E-1,1.863025818E0,2.370920663E0
1.465120746E1,-1.642085266E-1,1.055604858E0,1.826202393E-1,1.083797125E0
1.466127646E1,1.703457642E0,1.163380737E0,-1.467548218E0,2.531584573E0
1.467134646E1,3.463647308E0,1.088386688E0,-2.846181335E0,4.613262019E0
1.468141546E1,3.975882111E0,9.309141541E-1,-3.219654694E0,5.200040006E0
1.469148446E1,3.984414368E0,1.023272095E0,-3.056943054E0,5.125187262E0
1.470155446E1,4.142635345E0,1.021625519E0,-3.380719757E0,5.443749846E0
1.471162346E1,4.431534576E0,1.323547668E0,-3.236868896E0,5.645139271E0
1.472169246E1,4.470603333E0,2.148482208E0,-2.812651062E0,5.702041385E0
1.473176246E1,4.336033173E0,2.641556854E0,-3.006348267E0,5.900604731E0
1.474183146E1,4.800068207E0,2.735112305E0,-3.978127441E0,6.807862517E0
1.475190046E1,5.803880768E0,2.894081726E0,-5.066963196E0,8.230118895E0
1.476197046E1,6.569987640E0,2.961441650E0,-6.329886932E0,9.591785174E0
1.477203946E1,6.167474670E0,2.273023224E0,-7.757468262E0,1.016772798E1
1.478211038E1,3.790268097E0,8.524772644E-1,-7.588320007E0,8.524989752E0
1.479217937E1,1.813778229E0,3.275189209E-1,-5.852679291E0,6.136034142E0
1.480224837E1,2.456391907E-1,-2.544708252E-3,-4.257596283E0,4.264677150E0
1.481231837E1,-1.305135956E0,-6.601272583E-1,-3.476670227E0,3.771787869E0
1.482238737E1,-1.559008026E0,-3.951782227E-1,-2.890638885E0,3.307939694E0
1.483245638E1,-1.265767822E0,1.387614441E-1,-2.838247833E0,3.110799524E0
1.484252637E1,-1.080602875E0,8.586145020E-1,-2.996169434E0,3.298780488E0
1.485259537E1,-8.595126343E-1,1.613644409E0,-2.980601807E0,3.496655170E0
1.486266437E1,-4.144880676E-1,2.328857117E0,-2.632725220E0,3.539296245E0
1.487273437E1,-1.555265808E-1,2.782563629E0,-2.143392792E0,3.515818756E0
1.488280337E1,-1.249900818E-1,3.047512665E0,-1.551373901E0,3.421946368E0
1.489287237E1,-3.132984924E-1,3.114273834E0,-6.554869080E-1,3.197893142E0
1.490294237E1,-6.822811890E-1,2.838547211E0,8.367599487E-2,2.920592330E0
1.491301137E1,-1.266665955E0,2.089953918E0,5.397775269E-1,2.502740458E0
1.492308037E1,-1.723815308E0,1.216969299E0,1.124311981E0,2.390947704E0
1.493315037E1,-2.040856018E0,2.968327332E-1,1.370250549E0,2.476043119E0
1.494321937E1,-2.690804443E0,-3.537144470E-1,1.305734711E0,3.011724688E0
1.495328837E1,-3.424877930E0,-7.195536804E-1,1.576820984E0,3.838477660E0
1.496335837E1,-3.834126892E0,-8.219407654E-1,1.327888641E0,4.139976315E0
1.497342737E1,-3.888463898E0,-1.128203888E0,1.562001801E0,4.339682606E0
1.498349637E1,-3.864813080E0,-1.528321838E0,1.815574493E0,4.535290346E0
1.499356637E1,-3.894900513E0,-1.646126862E0,1.696422272E0,4.556076401E0
1.500363537E1,-3.268153839E0,-1.425485687E0,1.700164490E0,3.950113701E0
1.501370437E1,-2.027084656E0,-7.352709961E-1,3.172502747E0,3.835944384E0
1.502377437E1,5.598358154E-2,-8.008346558E-2,5.109774170E0,5.110708326E0
1.503384337E1,1.831890564E0,3.924838257E-1,7.349865875E0,7.584879365E0
1.504391237E1,3.592978363E0,7.851173401E-1,9.918973389E0,1.057884379E1
1.505398237E1,5.785019989E0,1.403780823E0,1.390548340E1,1.512612063E1
1.506405137E1,9.251661072E0,1.055754547E0,2.134396500E1,2.328674928E1
1.507412037E1,1.322634567E1,-2.803220673E0,3.215193970E1,3.487895486E1
1.508419037E1,1.056607773E1,-1.165386566E1,3.760060913E1,4.075856217E1
1.509425937E1,7.196884003E0,-2.025033920E1,4.599919418E1,5.077201240E1
1.510432937E1,4.644242249E0,-2.534873703E1,5.906372635E1,6.444106785E1
1.511439837E1,-2.861449585E0,-2.133737869E1,5.996006241E1,6.370777588E1
1.512446737E1,-9.457333374E-1,-1.072534653E1,4.630440948E1,4.753972873E1
1.513453737E1,6.600374451E0,-4.468208313E0,4.233840683E1,4.308213692E1
1.514460637E1,7.834557953E0,-4.268972626E0,4.165672440E1,4.260149191E1
1.515467537E1,7.724686432E0,-5.295837250E0,3.722429169E1,3.838443127E1
1.516474537E1,5.238356781E0,-4.865182800E0,3.401616302E1,3.475931145E1
1.517481438E1,1.773661652E0,-4.486769714E0,3.247736298E1,3.283376439E1
1.518488337E1,-1.019380188E-1,-4.658911743E0,3.182831268E1,3.216764428E1
1.519495337E1,-7.095245361E-1,-4.657265167E0,3.094769394E1,3.130420585E1
1.520502237E1,-1.014739838E0,-4.583468628E0,2.808774124E1,2.847734344E1
1.521509137E1,-3.471131744E0,-5.464536438E0,2.235765701E1,2.327605510E1
1.522516137E1,-4.764741669E0,-5.686375122E0,1.893637161E1,2.033774312E1
1.523523037E1,-3.978277130E0,-4.615801392E0,1.695778610E1,1.801940124E1
1.524529937E1,-1.959575043E0,-2.551893311E0,1.492651016E1,1.526934181E1
1.525536937E1,-2.040107574E0,-1.082997894E0,1.048913773E1,1.074043452E1
1.526543837E1,-1.701811066E0,4.143383789E-1,7.391030273E0,7.595733388E0
1.527550737E1,-1.176104279E0,1.346150665E0,3.841012573E0,4.236593027E0
1.528557737E1,-9.277706909E-1,1.495689697E0,1.871707764E0,2.569267615E0
1.529564637E1,-3.514691162E-1,1.402283936E0,1.074166260E0,1.801045232E0
1.530571537E1,4.556524658E-1,1.182690582E0,9.171427917E-1,1.564457441E0
1.531578537E1,1.230141907E0,1.278341675E-1,7.524851990E-1,1.447696329E0
1.532585437E1,3.166814575E0,-3.333567810E-1,6.391708374E-2,3.184953169E0
1.533592337E1,5.911207581E0,-2.832110596E-1,-1.459465027E0,6.095295049E0
1.534599337E1,9.213490448E0,2.963836670E-1,-2.906954956E0,9.665745529E0
1.535606237E1,1.089209976E1,9.764195251E-1,-4.702620850E0,1.190402769E1
1.536613137E1,1.028720764E1,1.171912994E0,-6.821913757E0,1.239913418E1
1.537620137E1,8.421786804E0,1.742526398E0,-9.732161865E0,1.298760431E1
1.538627037E1,5.407055969E0,2.204765167E0,-1.275243118E1,1.402575291E1
1.539633937E1,9.162446594E-1,2.972219238E0,-1.319521042E1,1.355681266E1
1.540640937E1,-5.984854431E0,2.221979370E0,-1.284808228E1,1.434673806E1
1.541647837E1,-1.067085983E1,1.637295227E0,-1.384785324E1,1.755878767E1
1.542654837E1,-3.682192841E0,2.273023224E0,-1.305809555E1,1.375641807E1
1.543661738E1,1.441352692E0,2.567311249E0,-7.181615753E0,7.761713049E0
1.544668637E1,3.394491119E0,2.109862518E0,-3.498973846E0,5.311958940E0
1.545675637E1,2.835254059E0,1.732796631E0,-2.486928406E0,4.150429211E0
1.546682537E1,1.919907532E0,1.502725067E0,-1.380579071E0,2.801825499E0
1.547689437E1,8.213420105E-1,8.174501038E-1,-7.505392456E-1,1.380629034E0
1.548696437E1,2.201921082E-1,4.180805969E-1,9.145980835E-2,4.812908129E-1
1.549703337E1,-6.595285034E-1,3.546125793E-1,8.400531006E-1,1.125352007E0
1.550710237E1,-1.926793213E0,5.481600952E-1,1.096619568E0,2.283765761E0
1.551717237E1,-2.782413940E0,6.158193970E-1,1.926493835E-1,2.856251853E0
1.552724137E1,-2.940335541E0,2.083666992E-1,-1.071172485E0,3.136303599E0
1.553731037E1,-2.422262878E0,-2.520758057E-1,-2.071542206E0,3.197215472E0
1.554738037E1,-1.421444092E0,-2.185455322E-1,-1.753453674E0,2.267788624E0
1.555744937E1,-9.427395630E-1,-1.190025330E-1,-2.353106689E-1,9.789231826E-1
1.556751837E1,-4.525090027E-1,-1.823208618E-1,1.125509491E0,1.226693486E0
1.557758837E1,-3.480262756E-1,-4.493655396E-1,2.394271088E0,2.460809972E0
1.558765737E1,-3.279679871E-1,-5.730084229E-1,2.973416748E0,3.045834666E0
1.559772637E1,-6.870712280E-2,-4.757107544E-1,2.960992584E0,2.999749735E0
1.560779637E1,1.628613281E-1,-3.941304016E-1,3.393592987E0,3.420283022E0
1.561786537E1,1.865121460E-1,-2.691403198E-1,3.546874237E0,3.561957348E0
1.562793437E1,2.818638611E-1,-2.245330811E-1,4.008663940E0,4.024829056E0
1.563800437E1,6.797364807E-1,-4.495152283E-1,5.124593353E0,5.188984743E0
1.564807337E1,7.185058594E-1,-8.740324402E-1,6.662794647E0,6.758181404E0
1.565814237E1,-7.509883118E-1,-1.103355560E0,7.535928955E0,7.653208618E0
1.566821237E1,-1.509910126E0,-1.203497314E-1,7.522456970E0,7.673439354E0
1.567828137E1,-3.035836945E0,1.263372803E0,7.247029724E0,7.958131478E0
1.568835037E1,-3.643573151E0,1.825453949E0,7.772736511E0,8.776294223E0
1.569842038E1,-3.532354431E0,1.852397919E0,8.921747131E0,9.772741568E0
1.570848937E1,-3.848197632E0,1.346000977E0,1.089015381E1,1.162823261E1
1.571855837E1,-4.924908600E0,1.898052979E-1,1.609318405E1,1.683096324E1
1.572862837E1,-8.629105682E0,-2.381248169E0,2.503648636E1,2.658867159E1
1.573869737E1,-1.071067703E1,-6.861730957E0,3.916261093E1,4.117659589E1
1.574876737E1,-1.573857147E1,-1.363005615E1,5.548871063E1,5.926616295E1
1.575883637E1,-1.406056091E1,-1.851155502E1,5.863980789E1,6.307934775E1
1.576890537E1,-6.218069458E0,-1.650572617E1,4.064482864E1,4.430694618E1
1.577897537E1,-6.414910126E0,-1.583571945E1,3.092149841E1,3.532789474E1
1.578904408E1,-7.191644897E0,-1.478909592E1,3.193578918E1,3.592118797E1
1.579911308E1,-5.516478424E0,-8.920998688E0,3.626822983E1,3.775447320E1
1.580918308E1,-4.655319214E0,-4.462071075E0,4.139985855E1,4.189904967E1
1.581925208E1,-3.423680420E0,-3.665577393E0,4.372272812E1,4.400948761E1
1.582932108E1,-3.783532104E0,-4.011358337E0,3.856774796E1,3.895994473E1
1.583939108E1,-5.126988373E0,-4.427792358E0,3.286011703E1,3.355113480E1
1.584946008E1,-7.359146576E0,-5.322481842E0,3.103780655E1,3.233931488E1
1.585952908E1,-7.897127838E0,-4.487218781E0,2.806648544E1,2.949961636E1
1.586959908E1,-7.779921570E0,-2.889441376E0,2.240271332E1,2.389053401E1
1.587966808E1,-6.513405304E0,-1.785337372E0,1.709774506E1,1.838327403E1
1.588973708E1,-5.382357330E0,-8.538244629E-1,1.257609787E1,1.370609442E1
1.589980708E1,-4.850662994E0,1.326242065E-1,8.528814240E0,9.812603783E0
1.590987608E1,-3.820505219E0,5.411247253E-1,5.429808655E0,6.661223470E0
1.591994508E1,-2.198029175E0,1.227447510E0,3.241209869E0,4.104071279E0
1.593001508E1,-5.451663208E-1,1.907782745E0,1.069974976E0,2.254259916E0
1.594008408E1,4.257147217E-1,2.489772491E0,-3.863465881E-1,2.555281544E0
1.595015308E1,1.059945831E0,3.635340271E0,-1.586999817E0,4.105819342E0
1.596022308E1,1.876797180E0,4.039350128E0,-3.303779755E0,5.545599858E0
1.597029208E1,2.649190979E0,3.764072571E0,-4.609664154E0,6.514250438E0
1.598036108E1,2.587070160E0,3.948489075E0,-4.838388519E0,6.759696846E0
1.599043108E1,2.243983612E0,4.405189362E0,-5.026098175E0,7.050022598E0
1.600050008E1,1.313219147E0,4.843178558E0,-5.255121918E0,7.266170205E0
1.601056908E1,1.899549866E-1,4.662803650E0,-5.457800446E0,7.180905686E0
1.602063908E1,-5.331912231E-1,3.684887238E0,-6.023025055E0,7.080926327E0
1.603070808E1,-1.481918335E-1,3.447331238E0,-4.987478485E0,6.064733722E0
1.604077808E1,8.388555908E-1,2.930456085E0,-3.809128876E0,4.878597581E0
1.605084708E1,3.659290466E0,2.369123383E0,-2.502196655E0,5.026344638E0
1.606091608E1,7.136409760E0,1.600771179E0,-1.825154572E0,7.538037001E0
1.607098608E1,7.813152466E0,4.882846069E-1,-1.154100037E0,7.913009554E0
1.608105508E1,6.199657745E0,-1.342707825E-1,-1.592687988E-1,6.203156564E0
1.609112408E1,4.002227325E0,-2.827619934E-1,5.239105225E-1,4.046264962E0
1.610119408E1,2.223625946E0,-1.387015686E0,1.099313965E0,2.841973971E0
1.611126308E1,2.135908356E0,-1.929936676E0,1.118474121E0,3.088323888E0
1.612133208E1,1.951791229E0,-1.597777405E0,1.217268677E0,2.800736451E0
1.613140208E1,3.505709839E-1,-1.281185760E0,5.625302124E-1,1.442489933E0
1.614147108E1,-3.924838257E-1,-1.038839722E0,-2.474354553E-1,1.137741546E0
1.615154008E1,-8.652008057E-2,-8.096662903E-1,1.960922241E-2,8.145119690E-1
1.616161008E1,5.897735596E-1,-4.216731262E-1,3.849993896E-1,8.208931763E-1
1.617167908E1,1.025517426E0,-2.312690735E-1,6.333329773E-1,1.227306822E0
1.618174808E1,6.836283875E-1,-3.412902832E-2,7.890092468E-1,1.044532505E0
1.619181808E1,1.212478638E-2,6.885681152E-3,1.041085052E0,1.041178424E0
1.620188708E1,-8.116122437E-1,1.764830017E-1,1.259331207E0,1.508567457E0
1.621195608E1,-1.522483978E0,3.393443298E-1,1.161734161E0,1.944926297E0
1.622202608E1,-1.720073090E0,7.161108398E-1,9.949809265E-1,2.112215238E0
1.623209508E1,-1.846260681E0,8.798703003E-1,6.420149231E-1,2.143602904E0
1.624216408E1,-2.317780151E0,5.551954651E-1,2.177970886E-1,2.393278589E0
1.625223408E1,-2.417472839E0,1.442999268E-1,-1.911524963E-1,2.429307859E0
1.626230308E1,-1.993404694E0,4.760101318E-2,-5.803431702E-1,2.076710457E0
1.627237208E1,-1.411714325E0,1.793270874E-1,-7.265890503E-1,1.597819510E0
1.628244208E1,-1.123563538E0,5.074447632E-2,-5.228627014E-1,1.240304571E0
1.629251108E1,-4.507127380E-1,3.195854187E-1,1.920506287E-1,5.849446607E-1
1.630258008E1,3.158432007E-2,9.610015869E-1,9.011260986E-1,1.317782177E0
1.631265008E1,2.043251038E-1,1.893562317E0,2.373015289E0,3.042783029E0
1.632271908E1,9.919871521E-1,3.072211304E0,5.170697479E0,6.095788155E0
1.633278908E1,1.791923676E0,3.653452606E0,8.208480377E0,9.161760557E0
1.634285808E1,6.402186584E-1,3.401676178E0,9.345665588E0,9.966079773E0
1.635292708E1,-1.621727600E0,2.702779541E0,1.132170639E1,1.175227864E1
1.636299708E1,-4.399800568E0,1.911824341E0,1.560953979E1,1.633006583E1
1.637306608E1,-5.215604095E0,5.519023132E-1,2.407279037E1,2.463749903E1
1.638313508E1,-4.857848053E0,-1.193468170E0,3.714091507E1,3.747626751E1
1.639320508E1,-9.020841064E0,-4.077820129E0,4.954651749E1,5.052585067E1
1.640327408E1,-1.377630203E1,-7.634723511E0,5.448310181E1,5.671405367E1
1.641334308E1,-1.278790741E1,-1.042537033E1,4.898503510E1,5.168899869E1
1.642341308E1,-1.411235321E1,-1.270827301E1,4.510645065E1,4.894129756E1
1.643348208E1,-1.405157959E1,-9.129964142E0,4.431504639E1,4.737748907E1
1.644355108E1,-1.205667801E1,-4.598138123E0,3.914210358E1,4.121420424E1
1.645362108E1,-1.085632416E1,-3.700903931E0,3.745750671E1,3.917424247E1
1.646369008E1,-9.314680023E0,-3.280727692E0,3.724420029E1,3.853124567E1
1.647375908E1,-8.195307770E0,-3.576811981E0,3.491384628E1,3.604071747E1
1.648382908E1,-7.272327118E0,-3.415896606E0,3.044024918E1,3.148275498E1
1.649389808E1,-7.468718719E0,-3.205134888E0,2.538735672E1,2.665656636E1
1.650396708E1,-8.178243256E0,-3.118614807E0,2.125295425E1,2.298472287E1
1.651403708E1,-8.544381866E0,-3.271896057E0,1.761372208E1,1.984829894E1
1.652410608E1,-7.409292297E0,-2.351011047E0,1.509730499E1,1.698097416E1
1.653417508E1,-4.336781616E0,-7.247927856E-1,1.378049332E1,1.446495750E1
1.654424508E1,-1.915865936E0,8.027806091E-1,1.158635605E1,1.177109364E1
1.655431408E1,-2.225871277E-1,1.384920044E0,9.792636108E0,9.892586644E0
1.656438308E1,1.486708374E0,1.747466125E0,7.737409973E0,8.070405984E0
1.657445308E1,3.854484558E0,2.350711670E0,5.570665741E0,7.170440249E0
1.658452208E1,5.863756256E0,2.133663025E0,3.444936218E0,7.127674297E0
1.659459108E1,6.378535767E0,1.419198761E0,9.307644653E-1,6.600467115E0
1.660466108E1,6.112239532E0,1.429227905E0,-1.947899323E0,6.572402626E0
1.661473008E1,5.386698303E0,2.381697235E0,-3.263962555E0,6.733680412E0
1.662479908E1,4.088448029E0,3.543281708E0,-3.778292999E0,6.598920406E0
1.663486908E1,1.451232147E0,3.957021332E0,-4.843627625E0,6.420655818E0
1.664493808E1,-1.598675537E0,3.983516235E0,-4.193230133E0,6.000611970E0
1.665500808E1,-3.636986847E0,4.189936981E0,-4.110003204E0,6.904735445E0
1.666507708E1,-3.185076599E0,4.641697540E0,-4.648882599E0,7.300834090E0
1.667514608E1,-2.334096222E0,4.973108368E0,-4.995262299E0,7.425123396E0
1.668521608E1,-1.423839111E0,5.104085999E0,-5.803731079E0,7.858899804E0
1.669528508E1,3.207829285E-1,5.583838348E0,-6.449039154E0,8.536524960E0
1.670535408E1,3.546275482E0,5.780828705E0,-5.120252380E0,8.497707617E0
1.671542408E1,2.587968292E0,4.324207764E0,-4.824467468E0,6.976520552E0
1.672549308E1,6.590794373E-1,2.637964325E0,-4.403692474E0,5.175495038E0
1.673556208E1,9.610015869E-2,1.537602539E0,-3.268153839E0,3.613071591E0
1.674563208E1,-2.691403198E-1,9.208850098E-1,-2.374811554E0,2.561287885E0
