"Time (s)","Acceleration x (m/s^2)","Acceleration y (m/s^2)","Acceleration z (m/s^2)","Absolute acceleration (m/s^2)"
1.192708383E-3,-1.266531235E1,2.589764557E0,1.277593231E0,1.299035264E1
1.126270834E-2,-1.272638535E1,2.647245026E0,4.086502075E-1,1.300522146E1
2.133170841E-2,-9.044042816E0,3.279380493E0,1.363065491E0,9.716326179E0
3.140070837E-2,-1.522034912E0,6.089037781E0,3.081641693E0,6.992101751E0
4.147070833E-2,-2.916984100E0,8.044720917E0,-4.802014160E-1,8.570701504E0
5.153970839E-2,-5.217849426E0,8.049660645E0,-3.135829010E0,1.009239380E1
6.160970835E-2,-5.695955200E0,6.349496155E0,-1.636097717E0,8.685437398E0
7.167870831E-2,-7.348219299E0,3.278632050E0,4.460723877E-1,8.058829665E0
8.174770838E-2,-7.667655029E0,1.747316437E0,1.689835968E0,8.043730103E0
9.181770834E-2,-5.178780670E0,2.096390533E0,5.881269836E-1,5.617874674E0
1.018867084E-1,-2.906805267E0,1.979184265E0,-1.222657471E0,3.723114087E0
1.119557084E-1,-3.174598389E0,8.987310791E-1,-2.310295715E0,4.027810668E0
1.220257083E-1,-4.394860840E0,5.192701721E-1,-1.834285583E0,4.790516352E0
1.320947084E-1,-5.489833832E0,-4.945715332E-1,-3.308120728E-2,5.512165715E0
1.421647083E-1,-5.607638855E0,-2.774630127E0,6.551875305E-1,6.290743721E0
1.522337083E-1,-3.304977264E0,-2.845133514E0,6.909631348E-1,4.415324392E0
1.623027084E-1,-3.215762787E0,-2.353855133E0,3.028202820E-1,3.996681675E0
1.723727083E-1,-4.201013947E0,-1.709295502E0,2.983296204E-1,4.545240352E0
1.824417084E-1,-5.315895538E0,-8.831634521E-1,2.633024597E-1,5.395187786E0
1.925117084E-1,-7.753875732E0,-1.428030396E-1,-5.201683044E-1,7.772615818E0
2.025807083E-1,-7.696544952E0,8.132588196E-1,-2.377206573E0,8.096252541E0
2.126497084E-1,-7.381450195E0,1.404379578E0,-3.418591003E0,8.254989608E0
2.227197083E-1,-7.562872925E0,1.453627167E0,-3.691922607E0,8.540513530E0
2.327887084E-1,-6.937024384E0,7.589218140E-1,-3.548670502E0,7.828878077E0
2.428577084E-1,-8.622070312E0,1.374292145E0,-2.854863281E0,9.185805339E0
2.529277083E-1,-1.144280457E1,1.946851501E0,2.944526825E0,1.197490064E1
2.629967084E-1,-1.412537613E1,3.088078308E0,1.684896240E0,1.455683186E1
2.730667084E-1,-1.640064468E1,3.924538879E0,-1.942061462E0,1.697512163E1
2.831357083E-1,-1.514640289E1,2.222877502E0,-2.784808960E0,1.555988001E1
2.932047084E-1,-1.506123001E1,4.131408691E-1,-3.370840302E0,1.543936201E1
3.032747083E-1,-1.467712875E1,-9.011260986E-1,-4.081861725E0,1.526079067E1
3.133437084E-1,-1.452953568E1,-4.941224670E-1,-4.854554901E0,1.532704366E1
3.234127084E-1,-1.377749954E1,1.543739777E0,-5.030139771E0,1.474804842E1
3.334827083E-1,-1.077833633E1,3.567231903E0,-4.445305939E0,1.219255603E1
3.435517084E-1,-7.063661041E0,4.594695282E0,-3.915407867E0,9.291767905E0
3.536217083E-1,-5.790708160E0,5.893095245E0,-4.025728455E0,9.190612720E0
3.636907083E-1,-5.647306366E0,6.862928467E0,-5.177882538E0,1.028602566E1
3.737597084E-1,-6.145919495E0,7.545808411E0,-6.564598846E0,1.173905912E1
3.838297083E-1,-6.933431854E0,8.120912476E0,-7.188052368E0,1.287205475E1
3.938987084E-1,-7.833210754E0,7.793393555E0,-6.941515045E0,1.304916875E1
4.039687084E-1,-7.802075500E0,6.757397919E0,-6.201753387E0,1.204145148E1
4.140377083E-1,-7.422015839E0,5.600154419E0,-5.498366089E0,1.080185532E1
4.241067084E-1,-7.245682526E0,4.054768066E0,-5.164859619E0,9.778386074E0
4.341767083E-1,-5.765261078E0,2.292482758E0,-4.728516998E0,7.800806721E0
4.442457084E-1,-6.231242065E0,1.031205597E0,-4.038152618E0,7.496561827E0
4.543147084E-1,-6.663842468E0,4.589456177E-1,-3.169059906E0,7.393265057E0
4.643847083E-1,-6.630461884E0,6.583309937E-1,-2.296224976E0,7.047628936E0
4.744537084E-1,-6.651867371E0,7.517367554E-1,-1.948647766E0,6.972063954E0
4.845237084E-1,-3.626957703E0,1.272354126E-1,-2.254312134E0,4.272345284E0
4.945927083E-1,-4.886288910E0,5.596861267E-1,-2.544708252E0,5.537563359E0
5.046617084E-1,-1.222971817E1,9.716294861E-1,-1.498683472E0,1.235945478E1
5.147317083E-1,-2.737492355E1,4.974156189E-1,-6.444099426E-1,2.738702478E1
5.248007084E-1,-3.209850082E1,-1.439855804E0,5.349874878E-1,3.213523225E1
5.348697084E-1,-2.616708527E1,-2.295476532E0,8.083190918E-3,2.626757753E1
5.449397083E-1,-1.710133759E1,-1.277293854E0,1.188528442E-1,1.714938345E1
5.550087084E-1,-1.095227463E1,-8.017327881E-1,8.455915833E-1,1.101408735E1
5.650787083E-1,-8.533903656E0,-1.519340515E-1,1.345851288E0,8.640712428E0
5.751477084E-1,-8.364306335E0,5.725593567E-1,2.209555206E0,8.670154491E0
5.852167084E-1,-9.570198669E0,1.055155792E0,2.790796509E0,1.002450006E1
5.952867083E-1,-1.104418350E1,1.596130829E0,2.899021454E0,1.152935160E1
6.053557084E-1,-1.230007187E1,2.181264038E0,2.427352295E0,1.272563240E1
6.154257084E-1,-1.292307632E1,2.881657562E0,2.952610016E0,1.356568310E1
6.254947083E-1,-1.273611511E1,2.957849121E0,1.715732117E0,1.318716180E1
6.355637084E-1,-1.193378357E1,2.380050659E0,-5.803431702E-1,1.218263640E1
6.456337083E-1,-1.168859344E1,1.800904999E0,-2.633024597E0,1.211607585E1
6.557027084E-1,-1.160312119E1,8.512797546E-1,-5.401517487E0,1.282706083E1
6.657717084E-1,-1.130703690E1,-1.058299255E-1,-7.502847748E0,1.357029873E1
6.758417083E-1,-1.067849396E1,-1.457219696E0,-8.348888397E0,1.363296226E1
6.859107084E-1,-9.579479370E0,-2.010918274E0,-6.730154572E0,1.187877089E1
6.959807083E-1,-8.789871368E0,-1.744472351E0,-5.544619904E0,1.053792353E1
7.060497083E-1,-9.001381531E0,-1.014739838E0,-3.877985687E0,9.853595252E0
7.161187084E-1,-9.031019897E0,-5.117857361E-1,-3.278182983E-1,9.051447943E0
7.261887083E-1,-7.585326233E0,-2.200424194E-1,9.148974609E-1,7.643469768E0
7.362577084E-1,-6.528972931E0,1.444496155E-1,8.861572266E-1,6.590419399E0
7.463267084E-1,-4.705914001E0,3.606001282E-1,8.470884705E-1,4.795124390E0
7.563967083E-1,-3.979923706E0,8.517288208E-1,-7.768844604E-2,4.070782503E0
7.664657084E-1,-3.862268372E0,1.292262726E0,-8.869056702E-1,4.168172453E0
7.765357083E-1,-3.939058685E0,1.675016785E0,-1.192420349E0,4.443391818E0
7.866047084E-1,-4.308640137E0,2.161056061E0,-1.436862030E0,5.029822623E0
7.966738334E-1,-4.800217896E0,2.554438019E0,-1.574126587E0,5.660840922E0
8.067438334E-1,-4.962181091E0,2.831811218E0,-1.577719116E0,5.927191035E0
8.168128333E-1,-4.884792023E0,3.024460602E0,-1.612895966E0,5.967410530E0
8.268818334E-1,-4.805307312E0,3.088377686E0,-1.528321838E0,5.913106014E0
8.369518333E-1,-4.824916534E0,3.087030487E0,-1.525777130E0,5.927695391E0
8.470208334E-1,-5.076094208E0,2.989283752E0,-1.510658569E0,6.081499739E0
8.570908334E-1,-5.168601837E0,2.889141998E0,-1.330433350E0,6.068907590E0
8.671598333E-1,-5.271737366E0,2.754422150E0,-1.323397980E0,6.093393016E0
8.772288334E-1,-5.394482117E0,2.482288055E0,-1.688638458E0,6.173628685E0
8.872988333E-1,-5.804778900E0,2.061363373E0,-2.328857117E0,6.585457653E0
8.973678333E-1,-6.280489655E0,1.569635925E0,-3.286116486E0,7.259949641E0
9.074378334E-1,-6.929539948E0,9.919871521E-1,-4.560566254E0,8.354718843E0
9.175068333E-1,-7.542664948E0,4.026626587E-1,-5.804180145E0,9.525882578E0
9.275758334E-1,-8.277187500E0,-2.296224976E-1,-6.991511078E0,1.083724073E1
9.376458334E-1,-9.300908661E0,-8.204438782E-1,-8.150850220E0,1.239420790E1
9.477148333E-1,-1.043569885E1,-1.419049072E0,-8.941356354E0,1.381540315E1
9.577838334E-1,-1.163231049E1,-1.756746826E0,-8.719667358E0,1.464340826E1
9.678538333E-1,-1.269135818E1,-1.518143005E0,-7.641309814E0,1.489177446E1
9.779228334E-1,-1.293520111E1,-8.755293274E-1,-6.867119751E0,1.467117286E1
9.879928334E-1,-1.261875916E1,-1.752854919E-1,-6.688241730E0,1.428273031E1
9.980618333E-1,-1.237431747E1,8.195457458E-1,-6.220614166E0,1.387412804E1
1.008130833E0,-1.220936050E1,2.055974579E0,-5.227728882E0,1.343966758E1
1.018200833E0,-1.129775620E1,3.077600098E0,-4.289330292E0,1.247033567E1
1.028269833E0,-1.027029282E1,3.964505768E0,-4.150269470E0,1.176524361E1
1.038338833E0,-9.614656219E0,4.814438324E0,-5.110971680E0,1.190556433E1
1.048408833E0,-8.912316742E0,5.683231659E0,-6.865622864E0,1.260417745E1
1.058477833E0,-8.300538940E0,6.227200470E0,-8.474327545E0,1.339743258E1
1.068547833E0,-8.458161163E0,5.956712952E0,-8.730894012E0,1.353703918E1
1.078616833E0,-8.905131683E0,5.378764801E0,-7.201524353E0,1.265284293E1
1.088685833E0,-8.775950317E0,4.205354919E0,-4.752167816E0,1.082983901E1
1.098755833E0,-8.934021606E0,3.394940186E0,-2.263143768E0,9.821618026E0
1.108824833E0,-9.886341248E0,3.435356140E0,-1.302291870E-2,1.046621157E1
1.118894833E0,-1.090901459E1,3.660787354E0,1.494941254E0,1.160356896E1
1.128963833E0,-1.213077393E1,3.693868561E0,1.388961639E0,1.275654951E1
1.139032833E0,-1.395248566E1,3.839964752E0,-2.535726929E-1,1.447347520E1
1.149102833E0,-1.422461975E1,3.718417511E0,-2.399510193E0,1.489711667E1
1.159171833E0,-1.096215408E1,3.001109161E0,-2.734363861E0,1.168983422E1
1.169240833E0,-7.883057098E0,2.050136719E0,-1.692680054E0,8.319303790E0
1.179310833E0,-7.422015839E0,1.413061523E0,-7.616162109E-1,7.593623722E0
1.189379833E0,-8.340805206E0,1.095571747E0,-6.676116943E-2,8.412714544E0
1.199449833E0,-9.682914276E0,7.604187012E-1,5.641767883E-1,9.729098670E0
1.209518833E0,-1.124581421E1,6.622229004E-1,1.126856689E0,1.132151414E1
1.219587833E0,-1.315718948E1,6.068380737E-1,1.478325806E0,1.325387999E1
1.229657833E0,-1.453761887E1,4.821473694E-1,1.684147797E0,1.464278601E1
1.239726833E0,-1.474388992E1,2.110610962E-1,1.476379852E0,1.481912731E1
1.249796833E0,-1.380189880E1,3.742218018E-2,1.227297821E0,1.385640902E1
1.259865833E0,-1.235755234E1,-5.373825073E-2,5.105882263E-1,1.236821280E1
1.269934833E0,-1.119746475E1,2.260299683E-2,4.281097412E-2,1.119756940E1
1.280004833E0,-1.009889923E1,6.227050781E-2,-3.689826965E-1,1.010582958E1
1.290073833E0,-9.136700134E0,1.998344421E-1,-7.598199463E-1,9.170417084E0
1.300142833E0,-8.337362366E0,2.264790344E-1,-1.099014587E0,8.412534519E0
1.310212833E0,-7.311395874E0,4.662803650E-1,-1.312470703E0,7.442882933E0
1.320281833E0,-6.937473450E0,9.572593689E-1,-9.277706909E-1,7.064392530E0
1.330351833E0,-6.932084656E0,1.124162292E0,-6.542893982E-1,7.053058425E0
1.340420833E0,-6.778054962E0,1.410217438E0,-2.234852600E-1,6.926809363E0
1.350489833E0,-6.604416046E0,1.293609924E0,-3.335064697E-1,6.738172194E0
1.360559833E0,-6.039790192E0,1.177900543E0,-6.059399414E-1,6.183338779E0
1.370628833E0,-5.795049133E0,1.070723419E0,-6.574328613E-1,5.929693168E0
1.380698833E0,-5.737868042E0,9.626481628E-1,-5.704637146E-1,5.845960144E0
1.390767833E0,-5.887556763E0,7.105723572E-1,-6.646179199E-1,5.967407703E0
1.400836833E0,-6.236780548E0,2.526745605E-1,-7.207511902E-1,6.283371572E0
1.410906833E0,-6.629713440E0,-2.224374390E-1,-6.403683472E-1,6.664281681E0
1.420975833E0,-7.297923889E0,-6.647676086E-1,-7.099736023E-1,7.362450107E0
1.431044833E0,-7.560028839E0,-1.141675873E0,-8.596623230E-1,7.693924821E0
1.441114833E0,-7.883805542E0,-1.441352692E0,-8.455915833E-1,8.058964731E0
1.451183833E0,-8.650810547E0,-1.702409821E0,-1.033001862E0,8.877038648E0
1.461253833E0,-9.146579590E0,-1.914069672E0,-1.175056458E0,9.418298072E0
1.471322833E0,-8.924441528E0,-1.910477142E0,-1.112037506E0,9.194139814E0
1.481391833E0,-9.101972351E0,-2.085762634E0,-1.143023071E0,9.407593113E0
1.491461833E0,-9.110055542E0,-2.246378632E0,-1.135688324E0,9.451408197E0
1.501530833E0,-9.245823212E0,-2.374661865E0,-1.266815643E0,9.629594369E0
1.511599833E0,-8.904083862E0,-2.361339569E0,-1.488205261E0,9.331312281E0
1.521669833E0,-8.750802612E0,-2.179617462E0,-1.590592346E0,9.157361118E0
1.531738833E0,-9.241631927E0,-1.886676636E0,-1.574276276E0,9.562722165E0
1.541808833E0,-9.597741394E0,-1.513951721E0,-1.495540009E0,9.830835651E0
1.551877833E0,-1.011117371E1,-1.374292145E0,-1.357227631E0,1.029400697E1
1.561946833E0,-1.048928741E1,-1.428329773E0,-1.123413849E0,1.064553123E1
1.572016833E0,-1.061742096E1,-1.574875031E0,-1.011746063E0,1.078116363E1
1.582085833E0,-1.072804092E1,-1.802701263E0,-9.970765686E-1,1.092404484E1
1.592155833E0,-1.085348007E1,-2.062111816E0,-1.132694550E0,1.110555410E1
1.602224833E0,-1.116064133E1,-2.329904938E0,-1.302142181E0,1.147536257E1
1.612293833E0,-1.154653885E1,-2.717748413E0,-1.430874481E0,1.194805916E1
1.622363833E0,-1.180550034E1,-3.281775513E0,-1.378782806E0,1.233048785E1
1.632432833E0,-1.194096863E1,-3.864513702E0,-1.143921204E0,1.260276770E1
1.642501833E0,-1.210173431E1,-4.186943207E0,-1.095721436E0,1.285235668E1
1.652571833E0,-1.231623825E1,-4.118834839E0,-1.071022797E0,1.303079487E1
1.662640833E0,-1.216774704E1,-3.788322144E0,-1.123563538E0,1.279327353E1
1.672710833E0,-1.243374390E1,-3.636986847E0,-1.343156891E0,1.302419790E1
1.682779833E0,-1.208990891E1,-3.403322754E0,-1.507664795E0,1.264996270E1
1.692848833E0,-1.151884644E1,-3.191213837E0,-1.914219360E0,1.210503634E1
1.702918833E0,-1.161838943E1,-3.210673370E0,-2.228415985E0,1.225810892E1
1.712987833E0,-1.218466187E1,-2.882555695E0,-2.398462372E0,1.274863655E1
1.723057833E0,-1.302935532E1,-2.371518402E0,-2.182311859E0,1.342202237E1
1.733126833E0,-1.337603439E1,-1.926044769E0,-1.235081635E0,1.357031213E1
1.743195833E0,-1.290361679E1,-1.530267792E0,-2.932402039E-1,1.299734725E1
1.753265833E0,-1.173065598E1,-1.119821320E0,4.195774841E-1,1.179145176E1
1.763334833E0,-1.052326675E1,-7.271878052E-1,8.056246948E-1,1.057908202E1
1.773403833E0,-9.708361359E0,-3.498225403E-1,9.560618591E-1,9.761593638E0
1.783473833E0,-9.394464111E0,8.128097534E-2,1.160386963E0,9.466206233E0
1.793542833E0,-9.425749054E0,5.119354248E-1,1.575773163E0,9.570260402E0
1.803612917E0,-9.883197784E0,8.394543457E-1,2.091001740E0,1.013679290E1
1.813681917E0,-1.110735214E1,9.008267212E-1,2.538121948E0,1.142920922E1
1.823750917E0,-1.250484604E1,1.038240967E0,2.461631012E0,1.278705384E1
1.833820917E0,-1.398406998E1,1.426683197E0,2.213746490E0,1.422990905E1
1.843889917E0,-1.514296005E1,1.935475159E0,2.042203217E0,1.540213937E1
1.853958917E0,-1.517454437E1,2.400258636E0,1.664538574E0,1.545311383E1
1.864028917E0,-1.404244858E1,2.655028839E0,5.462141418E-1,1.430167438E1
1.874097917E0,-1.242596008E1,2.800526276E0,-8.348139954E-1,1.276496556E1
1.884167917E0,-1.091290649E1,2.921923828E0,-1.932182007E0,1.146134784E1
1.894236917E0,-9.708211670E0,2.902464294E0,-2.754721527E0,1.050057920E1
1.904305917E0,-8.816216583E0,2.652933197E0,-2.729124756E0,9.602700210E0
1.914375917E0,-7.974516907E0,2.119442596E0,-2.086960144E0,8.511190249E0
1.924444917E0,-7.454947357E0,1.535955963E0,-1.407373352E0,7.740549113E0
1.934514917E0,-7.084318085E0,1.052461395E0,-8.773255920E-1,7.215603780E0
1.944583917E0,-6.880292358E0,6.694079590E-1,-7.659571838E-1,6.955085935E0
1.954652917E0,-6.727310486E0,3.192860413E-1,-8.921447754E-1,6.793715644E0
1.964722917E0,-6.372398529E0,1.389111328E-1,-8.982820129E-1,6.436899090E0
1.974791917E0,-5.948031006E0,6.406677246E-2,-9.854008484E-1,6.029443775E0
1.984861917E0,-5.609884186E0,8.696914673E-2,-9.485774231E-1,5.690181310E0
1.994930917E0,-5.531147919E0,-6.047424316E-2,-1.034798126E0,5.627438280E0
2.004999917E0,-5.379513245E0,-1.944456482E-1,-1.113983459E0,5.497083864E0
2.015069917E0,-5.306465149E0,-3.293151855E-1,-1.262923737E0,5.464613182E0
2.025138917E0,-5.296136627E0,-4.498146057E-1,-1.528321838E0,5.530566336E0
2.035207917E0,-5.478906555E0,-5.144801331E-1,-1.691332855E0,5.757057727E0
2.045277917E0,-5.707630920E0,-4.658312988E-1,-1.785337372E0,5.998456389E0
2.055346917E0,-5.913452911E0,-5.545967102E-1,-1.998194733E0,6.266520967E0
2.065416917E0,-6.192921753E0,-5.974076843E-1,-2.158511353E0,6.585464831E0
2.075485917E0,-6.515650635E0,-5.766009521E-1,-2.109712830E0,6.872922237E0
2.085554917E0,-6.842121735E0,-5.593867493E-1,-2.059716797E0,7.167285166E0
2.095624917E0,-6.884932709E0,-3.576063538E-1,-2.082619171E0,7.201908311E0
2.105693917E0,-6.704707489E0,9.011260986E-2,-2.378104706E0,7.114534756E0
2.115762917E0,-6.772067413E0,7.903564453E-1,-2.771336975E0,7.359746530E0
2.125832917E0,-7.014563141E0,1.172661438E0,-3.503314819E0,7.927953433E0
2.135901917E0,-7.559729462E0,1.068777466E0,-4.420906677E0,8.822483248E0
2.145971917E0,-8.049211578E0,6.846762085E-1,-5.519621887E0,9.783905883E0
2.156040917E0,-8.678802338E0,2.570155334E-1,-6.522536316E0,1.085961081E1
2.166109917E0,-8.974138184E0,-2.128573608E-1,-7.474406891E0,1.168106257E1
2.176179917E0,-9.663005676E0,-7.746391296E-1,-8.215216370E0,1.270682984E1
2.186248917E0,-1.052910461E1,-1.235081635E0,-7.629484406E0,1.306125962E1
2.196318917E0,-1.161943726E1,-1.265318756E0,-5.627248077E0,1.297221163E1
2.206387917E0,-1.215652039E1,-1.073567505E0,-4.340972900E0,1.295289855E1
2.216456917E0,-1.220951019E1,-3.493734741E-1,-4.572541351E0,1.304232860E1
2.226526917E0,-1.223735229E1,2.219883728E-1,-5.564827881E0,1.344505037E1
2.236595917E0,-1.239587265E1,1.041833496E0,-6.508315887E0,1.403927532E1
2.246665917E0,-1.237132370E1,2.377206573E0,-7.026238861E0,1.442458990E1
2.256734917E0,-1.183768341E1,3.948339386E0,-7.052584076E0,1.433384368E1
2.266803917E0,-1.046892975E1,5.323829041E0,-7.412136383E0,1.388817524E1
2.276873917E0,-8.888665924E0,6.070775757E0,-7.724836121E0,1.324899216E1
2.286942917E0,-8.137078857E0,6.240073700E0,-7.660469971E0,1.279974110E1
2.297011917E0,-9.289532318E0,5.999523926E0,-7.251969452E0,1.322424890E1
2.307081917E0,-1.133368149E1,5.314997406E0,-6.210585022E0,1.397400801E1
2.317150917E0,-1.279000305E1,3.994593201E0,-5.019960938E0,1.430877216E1
2.327220917E0,-1.325523560E1,2.435285797E0,-4.193080444E0,1.411431228E1
2.337289917E0,-1.280317566E1,1.537452850E0,-2.337988129E0,1.310539037E1
2.347358917E0,-1.205727676E1,1.433568878E0,-4.867877197E-1,1.215195478E1
2.357428917E0,-1.127066254E1,1.738784180E0,1.362167358E-2,1.140400763E1
2.367497917E0,-9.969717865E0,2.071691895E0,4.400848389E-2,1.018278539E1
2.377567917E0,-8.464597778E0,2.496059418E0,1.407073975E-1,8.826070855E0
2.387636917E0,-7.241491241E0,2.936743011E0,2.110610962E-1,7.817173511E0
2.397705917E0,-6.560706940E0,2.966082001E0,8.936416626E-2,7.200590527E0
2.407775917E0,-7.017107849E0,2.660417633E0,-7.963439941E-2,7.504929459E0
2.417844917E0,-8.132288818E0,2.282752991E0,1.727407837E-1,8.448368009E0
2.427913917E0,-9.409882050E0,2.079625397E0,8.494834900E-1,9.674313628E0
2.437983917E0,-1.086919739E1,1.867666168E0,1.482666779E0,1.112770999E1
2.448052917E0,-1.245350281E1,1.454225922E0,2.300715637E0,1.274746240E1
2.458122917E0,-1.372211472E1,1.149309998E0,3.171305237E0,1.413062358E1
2.468191917E0,-1.377375732E1,3.415896606E-1,3.015329590E0,1.410408759E1
2.478260917E0,-1.287772064E1,-2.365081787E-1,2.599793701E0,1.313965572E1
2.488330917E0,-1.153546188E1,-5.810916138E-1,1.928739166E0,1.171002063E1
2.498399917E0,-1.048315018E1,-7.072792053E-1,1.365011444E0,1.059527903E1
2.508469917E0,-9.707612915E0,-7.491920471E-1,9.545649719E-1,9.783160610E0
2.518538917E0,-9.022188263E0,-8.511300659E-1,2.616558838E-1,9.066022680E0
2.528607917E0,-8.753047943E0,-7.791297913E-1,-6.060896301E-1,8.808532010E0
2.538677917E0,-8.685089264E0,-5.173242188E-1,-9.466314697E-1,8.751829009E0
2.548746917E0,-8.617429962E0,-1.519340515E-1,-1.005159760E0,8.677184408E0
2.558815917E0,-8.472531281E0,1.230441284E-1,-1.324894867E0,8.576378756E0
2.568885917E0,-8.172106018E0,4.153862000E-1,-1.681453400E0,8.353630827E0
2.578954917E0,-7.859256592E0,7.137158203E-1,-1.967209167E0,8.133093898E0
2.589024917E0,-7.285948792E0,9.770182800E-1,-2.273172913E0,7.694603928E0
2.599093917E0,-6.822362823E0,1.108295288E0,-2.292782135E0,7.282156470E0
2.609162917E0,-6.575376434E0,8.478369141E-1,-2.281106415E0,7.011265874E0
2.619232917E0,-6.374943237E0,4.331991577E-1,-2.560724945E0,6.883667266E0
2.629301917E0,-6.512656860E0,-1.267863464E-1,-2.612217865E0,7.018151917E0
2.639371917E0,-6.895261230E0,-4.911286926E-1,-2.697390747E0,7.420360616E0
2.649440917E0,-7.456294556E0,-7.249424744E-1,-3.044518890E0,8.086468040E0
2.659509917E0,-8.248746643E0,-1.065634003E0,-3.730093231E0,9.115426075E0
2.669579917E0,-8.881181488E0,-1.305585022E0,-4.479884033E0,1.003241236E1
2.679648917E0,-8.648714905E0,-1.327289886E0,-4.510570221E0,9.844146061E0
2.689717917E0,-7.959248657E0,-1.001267853E0,-3.736080780E0,8.849320657E0
2.699787917E0,-7.153773651E0,-2.948867798E-1,-2.704875183E0,7.653743229E0
2.709856917E0,-6.554270325E0,1.279838562E-1,-1.887425079E0,6.821818877E0
2.719926917E0,-6.283932495E0,2.335144043E-1,-1.442101135E0,6.451510851E0
2.729995917E0,-6.266269226E0,2.427951050E-1,-1.213227081E0,6.387252886E0
2.740064917E0,-6.677314453E0,3.393443298E-1,-9.584568787E-1,6.754281788E0
2.750134917E0,-7.494764557E0,5.053491211E-1,-9.264234924E-1,7.568694338E0
2.760203917E0,-8.218958588E0,6.649172974E-1,-1.162033539E0,8.327287507E0
2.770273917E0,-9.179660797E0,7.225474548E-1,-1.248403931E0,9.292295709E0
2.780342917E0,-1.002136047E1,8.988807678E-1,-1.118324432E0,1.012355184E1
2.790411917E0,-1.009216324E1,1.099313965E0,-6.668632507E-1,1.017373858E1
2.800481583E0,-1.035845947E1,1.218615875E0,1.062789917E-1,1.043043635E1
2.810550583E0,-1.075797867E1,1.104403381E0,8.387059021E-1,1.084699218E1
2.820620583E0,-1.085632416E1,5.517526245E-1,8.845106506E-1,1.090626262E1
2.830689583E0,-1.105196732E1,-5.578898621E-1,3.793112183E-1,1.107253809E1
2.840758583E0,-1.218810471E1,-1.437909851E0,-3.927832031E-1,1.227891525E1
2.850828583E0,-1.342977264E1,-1.911674652E0,-1.088237000E0,1.360873076E1
2.860897583E0,-1.440424622E1,-2.085762634E0,-1.860930176E0,1.467296071E1
2.870966583E0,-1.472143661E1,-2.083367615E0,-2.379152527E0,1.505727344E1
2.881036583E0,-1.425575500E1,-2.287543030E0,-3.307222595E0,1.481206013E1
2.891105583E0,-1.414483566E1,-2.503843231E0,-4.233197021E0,1.497549879E1
2.901175583E0,-1.438897797E1,-2.622546387E0,-4.948409729E0,1.544044026E1
2.911244583E0,-1.481499207E1,-2.489473114E0,-5.300776978E0,1.593046461E1
2.921313583E0,-1.542856613E1,-1.755998383E0,-5.025349731E0,1.632110055E1
2.931383583E0,-1.564037567E1,-8.063731384E-1,-3.836671600E0,1.612425619E1
2.941452583E0,-1.492366608E1,-3.980223083E-1,-2.886447601E0,1.520545332E1
2.951522583E0,-1.342019257E1,-1.243913269E-1,-2.018103333E0,1.357165365E1
2.961591583E0,-1.161838943E1,2.348616028E-1,-1.258882141E0,1.168875174E1
2.971660583E0,-1.021805145E1,6.143225098E-1,-3.751199341E-1,1.024337262E1
2.981730583E0,-8.709338837E0,7.884104919E-1,1.366658020E-1,8.746019187E0
2.991799583E0,-7.787555695E0,7.226971436E-1,1.908531189E-1,7.823345817E0
3.001868583E0,-8.068371735E0,3.655398560E-1,1.896556091E-1,8.078874370E0
3.011938583E0,-9.339378662E0,3.802093506E-2,2.845582581E-1,9.343790065E0
3.022007583E0,-1.126527374E1,-5.553451538E-2,4.502636719E-1,1.127440526E1
3.032077583E0,-1.311333069E1,8.173004150E-2,6.496490479E-1,1.312966738E1
3.042146583E0,-1.462713272E1,4.692741394E-1,5.069956970E-1,1.464343793E1
3.052215583E0,-1.514415756E1,1.138981476E0,-3.914360046E-1,1.519197187E1
3.062285583E0,-1.482427277E1,1.773362274E0,-1.317859497E0,1.498801623E1
3.072354583E0,-1.391221939E1,2.477498016E0,-1.520687714E0,1.421268222E1
3.082424583E0,-1.268686752E1,2.920876007E0,-1.442400513E0,1.309842141E1
3.092493583E0,-1.116692825E1,2.935246124E0,-1.349892883E0,1.162489429E1
3.102562583E0,-9.093739471E0,2.809806976E0,-8.657995605E-1,9.557233998E0
3.112632583E0,-7.549101563E0,2.560874634E0,-4.453239441E-1,7.984067053E0
3.122701583E0,-6.626270599E0,2.317031708E0,-3.608995056E-1,7.028964820E0
3.132771583E0,-5.938899994E0,2.127675476E0,-3.785627747E-1,6.319877043E0
3.142840583E0,-5.355862427E0,1.781146088E0,-4.924758911E-1,5.665710566E0
3.152909583E0,-4.972659302E0,1.375938721E0,-7.825726318E-1,5.218521612E0
3.162979583E0,-4.769082642E0,8.812174988E-1,-1.139131165E0,4.981798203E0
3.173048583E0,-4.932842102E0,5.818400574E-1,-1.196611633E0,5.109143613E0
3.183117583E0,-5.150040436E0,5.528004456E-1,-1.252744904E0,5.328965623E0
3.193187583E0,-5.429359589E0,6.177653503E-1,-1.519190826E0,5.671641767E0
3.203256583E0,-5.750441895E0,8.226892090E-1,-1.903591461E0,6.112942006E0
3.213326583E0,-5.988596649E0,1.034498749E0,-2.127076721E0,6.438783493E0
3.223395583E0,-6.150410156E0,1.102307739E0,-2.216889954E0,6.630024774E0
3.233464583E0,-6.223757629E0,1.187779999E0,-2.413431244E0,6.780164506E0
3.243534583E0,-6.242917786E0,1.313368835E0,-2.350861359E0,6.798934424E0
3.253603583E0,-6.343658295E0,1.566492462E0,-1.960772552E0,6.822061873E0
3.263673583E0,-6.159541168E0,1.820663910E0,-1.580263824E0,6.614529328E0
3.273742583E0,-6.044131165E0,2.129172363E0,-1.264570312E0,6.531771166E0
3.283811583E0,-5.953868866E0,2.478845215E0,-1.115630035E0,6.545063670E0
3.293881583E0,-5.856870575E0,2.748284912E0,-1.087787933E0,6.560433330E0
3.303950583E0,-5.779331818E0,3.123853912E0,-9.997709656E-1,6.645199885E0
3.314020583E0,-5.670059052E0,3.304228821E0,-1.333726501E0,6.696739813E0
3.324089583E0,-5.696404266E0,3.315156097E0,-1.822460175E0,6.838175386E0
3.334158583E0,-5.692961426E0,2.565664673E0,-3.067570953E0,6.957185966E0
3.344228583E0,-6.342909851E0,2.072440338E0,-3.864813080E0,7.711309518E0
3.354297583E0,-6.963668976E0,1.867965546E0,-4.067042542E0,8.277850924E0
3.364366583E0,-7.929909668E0,1.484762421E0,-4.954247589E0,9.467447172E0
3.374436583E0,-8.867709503E0,9.807604980E-1,-6.714437256E0,1.116610186E1
3.384505583E0,-8.905131683E0,1.200204163E0,-6.883735199E0,1.131934939E1
3.394575583E0,-8.965007172E0,1.776056671E0,-6.867269440E0,1.143175929E1
3.404644583E0,-9.781409454E0,2.070195007E0,-7.501799927E0,1.249954721E1
3.414713583E0,-1.132978958E1,2.258204041E0,-8.463549957E0,1.432114853E1
3.424783583E0,-1.217762650E1,2.463427277E0,-9.229956207E0,1.547756934E1
3.434852583E0,-1.218002151E1,2.905907135E0,-9.488618317E0,1.571085924E1
3.444922583E0,-1.219424194E1,3.394940186E0,-9.583520966E0,1.587668194E1
3.454991583E0,-1.196970886E1,3.740122375E0,-9.240434418E0,1.557716514E1
3.465060583E0,-1.088012466E1,3.615581360E0,-8.573571167E0,1.431627269E1
3.475130583E0,-9.452243958E0,3.043321381E0,-8.106242981E0,1.281865422E1
3.485199583E0,-8.077652435E0,2.620001678E0,-8.086184692E0,1.172600787E1
3.495269583E0,-8.020321655E0,2.692900085E0,-8.014483795E0,1.165372133E1
3.505338583E0,-9.740095367E0,3.551963654E0,-7.586224365E0,1.284666119E1
3.515407583E0,-1.167497177E1,4.725972290E0,-7.190148010E0,1.450303445E1
3.525477583E0,-1.218930222E1,5.263055420E0,-6.242319031E0,1.467124356E1
3.535546583E0,-1.251831802E1,5.285209351E0,-4.834346924E0,1.442264311E1
3.545615583E0,-1.268432281E1,5.092709656E0,-3.489543457E0,1.410690081E1
3.555685583E0,-1.187390808E1,4.532275085E0,-2.201921082E0,1.289882425E1
3.565754583E0,-1.093535980E1,3.944447479E0,-1.390308838E0,1.170784859E1
3.575824583E0,-9.985135803E0,3.003803558E0,-2.061363373E0,1.062896946E1
3.585893583E0,-9.140292664E0,2.422412567E0,-2.586471405E0,9.803206973E0
3.595962583E0,-8.546926575E0,2.384691010E0,-2.075434113E0,9.112855307E0
3.606032583E0,-8.431815948E0,2.583327942E0,-1.377435608E0,8.925605430E0
3.616101583E0,-8.415948944E0,2.874771881E0,-7.223977661E-1,8.922688414E0
3.626171583E0,-8.353678436E0,3.156785431E0,1.728904724E-1,8.931916300E0
3.636240583E0,-8.692573700E0,3.285667419E0,7.309300232E-1,9.321518472E0
3.646309583E0,-9.768087158E0,3.242856445E0,8.472381592E-1,1.032712240E1
3.656379583E0,-1.114791779E1,3.146456909E0,5.864804077E-1,1.159828527E1
3.666448583E0,-1.228974335E1,2.879412231E0,1.655557251E-1,1.262363716E1
3.676518583E0,-1.303190002E1,2.422861633E0,-6.298901367E-1,1.327017100E1
3.686587583E0,-1.294373337E1,1.910626831E0,-1.602118378E0,1.318171126E1
3.696656583E0,-1.203676941E1,1.486259308E0,-2.347268829E0,1.235323664E1
3.706726583E0,-1.073163345E1,1.187630310E0,-2.634671173E0,1.111395135E1
3.716795583E0,-9.904303894E0,8.313711548E-1,-2.515069885E0,1.025241387E1
3.726865583E0,-9.470955048E0,7.912545776E-1,-1.958377533E0,9.703623853E0
3.736934583E0,-8.897347870E0,7.152127075E-1,-1.293460236E0,9.019277561E0
3.747003583E0,-8.315058746E0,4.496649170E-1,-8.348139954E-1,8.368949450E0
3.757073583E0,-7.799979858E0,2.341131592E-1,-6.963519287E-1,7.834500671E0
3.767142583E0,-7.315437469E0,5.733078003E-2,-6.938072205E-1,7.348488324E0
3.777212583E0,-7.026687927E0,-4.340972900E-2,-8.551716614E-1,7.078668392E0
3.787281583E0,-6.831793213E0,-1.902543640E-1,-9.928852844E-1,6.906186822E0
3.797350958E0,-6.633605347E0,-2.447410583E-1,-1.195863190E0,6.744976416E0
3.807420958E0,-6.463708649E0,-3.278182983E-1,-1.396146698E0,6.620892684E0
3.817489958E0,-6.350543976E0,-2.959346008E-1,-1.535506897E0,6.540242160E0
3.827558958E0,-6.325695648E0,-2.347119141E-1,-1.673519897E0,6.547532662E0
3.837628958E0,-6.312523041E0,-8.412506104E-2,-1.763033752E0,6.554640507E0
3.847697958E0,-6.302344208E0,7.035369873E-2,-1.870061188E0,6.574315250E0
3.857767958E0,-6.412365417E0,1.625619507E-1,-1.916913757E0,6.694730390E0
3.867836958E0,-6.769522705E0,1.553768921E-1,-1.846260681E0,7.018494008E0
3.877905958E0,-6.923103333E0,1.199006653E-1,-1.895657959E0,7.178945258E0
3.887975958E0,-6.958429871E0,8.801696777E-2,-2.064806213E0,7.258851008E0
3.898044958E0,-7.173382874E0,7.903564453E-2,-2.146685944E0,7.488119191E0
3.908114958E0,-7.478448486E0,-7.933502197E-3,-2.207758942E0,7.797528727E0
3.918183958E0,-7.773934021E0,-1.380130005E-1,-2.329306183E0,8.116573479E0
3.928252958E0,-8.180937653E0,-3.634442139E-1,-2.431393890E0,8.542336263E0
3.938322958E0,-8.475375366E0,-6.527925110E-1,-2.569556580E0,8.880357351E0
3.948391958E0,-8.743168488E0,-9.003776550E-1,-2.779270477E0,9.218352321E0
3.958461958E0,-9.090745697E0,-1.154848480E0,-2.992427216E0,9.640018308E0
3.968530958E0,-9.345665588E0,-1.347048798E0,-3.081042938E0,9.932211805E0
3.978599958E0,-9.656119995E0,-1.490600281E0,-2.988984375E0,1.021746398E1
3.988669958E0,-1.000160156E1,-1.627266083E0,-2.840642853E0,1.052374841E1
3.998738958E0,-1.047716263E1,-1.823807373E0,-2.595602417E0,1.094688823E1
4.008807958E0,-1.091530151E1,-2.022893372E0,-2.312391357E0,1.133944701E1
4.018877958E0,-1.139011414E1,-2.225871277E0,-2.233804779E0,1.181859073E1
4.028946958E0,-1.170895111E1,-2.399959259E0,-2.288890228E0,1.216956692E1
4.039016958E0,-1.208347229E1,-2.502945099E0,-2.324216766E0,1.255695108E1
4.049085958E0,-1.238000565E1,-2.597698059E0,-2.357896729E0,1.286748818E1
4.059154958E0,-1.268462219E1,-2.702480164E0,-2.389780426E0,1.318764913E1
4.069224958E0,-1.307456131E1,-2.862347717E0,-2.402503967E0,1.359813271E1
4.079293958E0,-1.319431229E1,-2.924468536E0,-2.564317474E0,1.375565764E1
4.089363958E0,-1.316886520E1,-2.705773315E0,-2.861599274E0,1.374514352E1
4.099432958E0,-1.282143768E1,-2.497556305E0,-3.333118744E0,1.348097668E1
4.109501958E0,-1.239183105E1,-2.318827972E0,-3.787124634E0,1.316346281E1
4.119571958E0,-1.235051697E1,-2.319726105E0,-3.908821564E0,1.316036795E1
4.129640958E0,-1.289403671E1,-2.365231476E0,-3.839665375E0,1.365992434E1
4.139710958E0,-1.371582779E1,-2.049537964E0,-3.580404510E0,1.432284309E1
4.149779958E0,-1.379471375E1,-1.406624908E0,-2.698438568E0,1.412636866E1
4.159848958E0,-1.309282333E1,-1.047371979E0,-1.768123169E0,1.325312305E1
4.169918958E0,-1.186268143E1,-8.419990540E-1,-1.168320465E0,1.194977597E1
4.179987958E0,-1.056502991E1,-7.232958984E-1,-7.421566772E-1,1.061573410E1
4.190057958E0,-9.346414032E0,-6.767427063E-1,-5.046006775E-1,9.384458311E0
4.200126958E0,-8.440198517E0,-4.185296631E-1,-2.475851440E-1,8.454195200E0
4.210195958E0,-8.013286285E0,-1.522334290E-1,3.053649902E-2,8.014790364E0
4.220265958E0,-8.280181274E0,-3.008743286E-2,2.630030823E-1,8.284411736E0
4.230334958E0,-9.255852356E0,2.544708252E-3,5.400769043E-1,9.271595999E0
4.240404958E0,-1.087997498E1,3.712280273E-2,7.780819702E-1,1.090782495E1
4.250473958E0,-1.286784119E1,1.489402771E-1,9.089099121E-1,1.290076111E1
4.260542958E0,-1.489357864E1,3.956272888E-1,8.425978088E-1,1.492263974E1
4.270612958E0,-1.629227005E1,8.211923218E-1,5.361849976E-1,1.632176199E1
4.280681958E0,-1.630274826E1,1.292562103E0,-1.032852173E-1,1.635423448E1
4.290751958E0,-1.520343430E1,1.681303711E0,-1.072519684E0,1.533367194E1
4.300820958E0,-1.324146423E1,1.878593445E0,-2.084415436E0,1.353551905E1
4.310889958E0,-1.151675079E1,1.932780762E0,-2.701132965E0,1.198612988E1
4.320959958E0,-1.019185593E1,2.082020416E0,-2.837798767E0,1.078247829E1
4.331028958E0,-9.371412048E0,2.143991547E0,-2.962339783E0,1.005959843E1
4.341097958E0,-8.975934448E0,2.146236877E0,-2.970123596E0,9.695120738E0
4.351167958E0,-8.655450897E0,2.067949677E0,-3.059787140E0,9.410395499E0
4.361236958E0,-8.276738434E0,1.934876404E0,-3.085234222E0,9.042500540E0
4.371306958E0,-7.673193512E0,1.770368500E0,-2.868784332E0,8.381051655E0
4.381375958E0,-6.978188782E0,1.698667603E0,-2.594105530E0,7.636096765E0
4.391444958E0,-6.133195953E0,1.606010284E0,-2.305805054E0,6.746265529E0
4.401514958E0,-5.510041809E0,1.485361176E0,-2.096689911E0,6.079717686E0
4.411583958E0,-5.168003082E0,1.325044556E0,-1.986069946E0,5.692843996E0
4.421653958E0,-4.887187042E0,1.130748596E0,-1.848356323E0,5.345990149E0
4.431722958E0,-4.775668945E0,9.255253601E-1,-1.774559784E0,5.178095547E0
4.441791958E0,-4.911436615E0,7.529342651E-1,-1.684596863E0,5.246616645E0
4.451861958E0,-5.112618256E0,6.991960144E-1,-1.547032928E0,5.387119024E0
4.461930958E0,-5.202581177E0,6.072871399E-1,-1.475032654E0,5.441633018E0
4.472000958E0,-5.260660400E0,5.727090454E-1,-1.412612457E0,5.477044591E0
4.482069958E0,-5.376220093E0,6.020480347E-1,-1.229992218E0,5.547890156E0
4.492138958E0,-5.610482941E0,6.442602539E-1,-1.023721161E0,5.739389786E0
4.502208958E0,-5.502257996E0,7.381150818E-1,-1.040486298E0,5.648209332E0
4.512277958E0,-5.528902588E0,8.252339172E-1,-1.015637970E0,5.681663078E0
4.522347958E0,-5.565576324E0,9.601034546E-1,-1.002764740E0,5.736111539E0
4.532416958E0,-5.619613953E0,1.156495056E0,-1.070873108E0,5.836463913E0
4.542485958E0,-5.729784851E0,1.455573120E0,-1.181493073E0,6.028685879E0
4.552555958E0,-5.823340302E0,1.865121460E0,-1.402583313E0,6.273532520E0
4.562624958E0,-5.996380463E0,2.180365906E0,-1.677860870E0,6.597407918E0
4.572694958E0,-6.137985992E0,2.260149994E0,-2.238445129E0,6.913305044E0
4.582763958E0,-6.407575378E0,2.240540771E0,-3.079995117E0,7.454087141E0
4.592832958E0,-6.915319519E0,2.208956451E0,-4.048780518E0,8.312265415E0
4.602902958E0,-7.702682190E0,2.164199524E0,-5.248834991E0,9.568978068E0
4.612971958E0,-8.586294708E0,2.206262054E0,-6.627917175E0,1.106893559E1
4.623041958E0,-9.698182526E0,2.373614044E0,-7.920329590E0,1.274442658E1
4.633110958E0,-1.086994583E1,2.360142059E0,-9.041049042E0,1.433410481E1
4.643179958E0,-1.149384842E1,2.126028900E0,-1.005743546E1,1.542013483E1
4.653249958E0,-1.189486450E1,1.584305420E0,-1.029484177E1,1.581080618E1
4.663318958E0,-1.211580505E1,6.041436768E-1,-9.585915985E0,1.546116124E1
4.673388958E0,-1.203751785E1,-6.321354675E-1,-8.657396851E0,1.484088783E1
4.683457958E0,-1.174367889E1,-1.467548218E0,-7.618856506E0,1.407532118E1
4.693526958E0,-1.099837875E1,-1.400337982E0,-6.588099976E0,1.289683461E1
4.703596958E0,-1.018541931E1,-2.025288391E-1,-6.295907593E0,1.197590234E1
4.713665958E0,-1.011506561E1,1.322050781E0,-6.724765778E0,1.221821777E1
4.723734958E0,-1.005623795E1,2.894830170E0,-7.543263702E0,1.289995312E1
4.733804958E0,-1.068912186E1,4.557722168E0,-7.904312897E0,1.405376532E1
4.743873958E0,-1.218585938E1,5.975873108E0,-7.663912811E0,1.558659000E1
4.753943958E0,-1.254151978E1,6.672524414E0,-7.028184814E0,1.584953255E1
4.764012958E0,-1.164727936E1,6.631809082E0,-5.886209564E0,1.463856110E1
4.774081958E0,-1.158381134E1,6.039790192E0,-4.799619141E0,1.391761814E1
4.784151958E0,-1.246502884E1,4.727768555E0,-3.977678375E0,1.391224873E1
4.794220958E0,-1.238359818E1,3.388353882E0,-3.206033020E0,1.323303040E1
4.804290208E0,-1.089030350E1,2.504591675E0,-2.532284088E0,1.145792967E1
4.814359208E0,-9.160201263E0,2.363285522E0,-2.277364197E0,9.730405610E0
4.824428208E0,-8.482111359E0,2.489173737E0,-2.115101624E0,9.089326370E0
4.834498208E0,-8.694819031E0,2.456391907E0,-1.814376984E0,9.215514257E0
4.844567208E0,-8.923094330E0,2.439028015E0,-1.479373627E0,9.367978245E0
4.854637208E0,-8.649613037E0,2.482587433E0,-7.731422424E-1,9.031987322E0
4.864706208E0,-8.470884705E0,2.605182495E0,5.358856201E-2,8.862603187E0
4.874775208E0,-9.036708069E0,2.683769073E0,6.911128235E-1,9.452108024E0
4.884845208E0,-9.867630157E0,2.729274445E0,9.696835327E-1,1.028393651E1
4.894914208E0,-1.080318466E1,2.614014130E0,9.066645813E-1,1.115185677E1
4.904984208E0,-1.159309204E1,2.307601318E0,3.766168213E-1,1.182652304E1
4.915053208E0,-1.177541290E1,1.841171265E0,-4.288581848E-1,1.192619721E1
4.925122208E0,-1.149339935E1,1.473236389E0,-1.320853271E0,1.166247433E1
4.935192208E0,-1.123324036E1,1.349294128E0,-1.819017334E0,1.145928041E1
4.945261208E0,-1.091455307E1,1.233584747E0,-2.130369873E0,1.118872986E1
4.955331208E0,-1.047207321E1,1.208287354E0,-2.324216766E0,1.079473294E1
4.965400208E0,-9.954599304E0,1.107397156E0,-2.419269104E0,1.030403992E1
4.975469208E0,-9.280550995E0,1.053209839E0,-2.457888794E0,9.658110325E0
4.985539208E0,-8.539142761E0,9.110055542E-1,-2.489473114E0,8.941161368E0
4.995608208E0,-7.955207062E0,7.472460938E-1,-2.399809570E0,8.342828183E0
5.005678208E0,-7.411088562E0,5.535488892E-1,-2.308649139E0,7.782063409E0
5.015747208E0,-6.965315552E0,3.248245239E-1,-2.263443146E0,7.331050851E0
5.025816208E0,-6.662644958E0,1.591191101E-1,-2.232008514E0,7.028372411E0
5.035886208E0,-6.446494446E0,7.948471069E-2,-2.181114349E0,6.805943598E0
5.045955208E0,-6.342460785E0,1.347198486E-2,-2.078727264E0,6.674436107E0
5.056025208E0,-6.207291870E0,-7.933502197E-3,-2.008523254E0,6.524162855E0
5.066094208E0,-6.081403656E0,-2.604583740E-2,-1.968406677E0,6.392086800E0
5.076163208E0,-6.153254242E0,-5.807922363E-2,-1.879341888E0,6.434115083E0
5.086233208E0,-6.251300354E0,-9.624984741E-2,-1.840123444E0,6.517213702E0
5.096302208E0,-6.451434174E0,-7.200027466E-2,-1.825154572E0,6.705026185E0
5.106372208E0,-6.564598846E0,-9.325607300E-2,-1.791624298E0,6.805334109E0
5.116441208E0,-6.787635040E0,-1.832189941E-1,-1.753753052E0,7.012931513E0
5.126510208E0,-7.084767151E0,-2.239343262E-1,-1.800455933E0,7.313392765E0
5.136580208E0,-7.384893036E0,-2.766247559E-1,-2.162103882E0,7.699861012E0
5.146649208E0,-7.539371796E0,-2.953358459E-1,-2.575244751E0,7.972530079E0
5.156719208E0,-7.746990051E0,-2.616558838E-1,-2.912044373E0,8.280357546E0
5.166788208E0,-7.841743011E0,-2.113604736E-1,-3.137176208E0,8.448637835E0
5.176857208E0,-8.132438507E0,-8.622070312E-2,-3.070265350E0,8.693130587E0
5.186927208E0,-8.621920624E0,-3.712280273E-2,-2.795736237E0,9.063941441E0
5.196996208E0,-8.924291840E0,4.146377563E-2,-2.564167786E0,9.285454244E0
5.207066208E0,-9.007369080E0,1.290316772E-1,-2.408491516E0,9.324707947E0
5.217135208E0,-9.374854889E0,1.050814819E-1,-2.392774200E0,9.675965827E0
5.227204208E0,-9.653724976E0,-6.885681152E-3,-2.354603577E0,9.936730414E0
5.237274208E0,-9.771529999E0,-1.176553345E-1,-2.213447113E0,1.001977991E1
5.247343208E0,-1.035127441E1,-2.749781799E-1,-1.882934418E0,1.052472978E1
5.257413208E0,-1.098101486E1,-4.529580688E-1,-1.543889465E0,1.109826352E1
5.267482208E0,-1.131018036E1,-6.632707214E-1,-1.395398254E0,1.141521984E1
5.277551208E0,-1.157602753E1,-9.307644653E-1,-1.284029846E0,1.168415459E1
5.287621208E0,-1.168574936E1,-1.179846497E0,-1.170416107E0,1.180333214E1
5.297690208E0,-1.189471481E1,-1.462608490E0,-1.119671631E0,1.203649154E1
5.307760208E0,-1.242431351E1,-1.709295502E0,-1.116228790E0,1.259091831E1
5.317829208E0,-1.286140457E1,-1.909129944E0,-1.250349884E0,1.306230759E1
5.327898208E0,-1.316901489E1,-2.119592285E0,-1.370250549E0,1.340869909E1
5.337968208E0,-1.320553894E1,-2.272424469E0,-1.382674713E0,1.347078175E1
5.348037208E0,-1.330373474E1,-2.341580658E0,-1.632954254E0,1.360657553E1
5.358107208E0,-1.403825729E1,-2.355352020E0,-2.178869019E0,1.440027157E1
5.368176208E0,-1.478071335E1,-2.237097931E0,-2.870730286E0,1.522219388E1
5.378245208E0,-1.512694336E1,-1.879940643E0,-3.271147614E0,1.559034954E1
5.388315208E0,-1.493893433E1,-1.338815918E0,-3.122057648E0,1.532029474E1
5.398384208E0,-1.403466476E1,-8.649014282E-1,-2.513423309E0,1.428415788E1
5.408454208E0,-1.258477982E1,-9.145980835E-1,-2.009271698E0,1.277694586E1
5.418523208E0,-1.143546982E1,-1.112037506E0,-1.703906708E0,1.161507191E1
5.428592208E0,-1.053000275E1,-9.340576172E-1,-1.100062408E0,1.062843162E1
5.438662208E0,-9.672735443E0,-4.864883423E-1,-3.080593872E-1,9.689859774E0
5.448731208E0,-9.147178345E0,-1.288819885E-1,4.085005188E-1,9.157202352E0
5.458801208E0,-9.319170685E0,3.577560425E-2,9.057664490E-1,9.363153048E0
5.468870208E0,-1.010743149E1,1.146615601E-1,1.180295563E0,1.017675863E1
5.478939208E0,-1.134820129E1,3.164419556E-1,1.296304321E0,1.142638232E1
5.489009208E0,-1.273282196E1,8.204438782E-1,1.214873657E0,1.281693416E1
5.499078208E0,-1.394425278E1,1.527573395E0,7.430548096E-1,1.404734126E1
5.509148208E0,-1.459120743E1,2.299368439E0,8.352630615E-2,1.477150656E1
5.519217208E0,-1.449540665E1,2.922372894E0,-6.905140686E-1,1.480317151E1
5.529286208E0,-1.339594299E1,3.503614197E0,-1.404080200E0,1.391754441E1
5.539356208E0,-1.207523941E1,3.690575409E0,-2.186802521E0,1.281459554E1
5.549425208E0,-1.065798660E1,3.920946350E0,-2.827470245E0,1.170303750E1
5.559495208E0,-9.834998016E0,3.857628021E0,-3.351829834E0,1.108346711E1
5.569564208E0,-9.234596558E0,3.800746307E0,-3.396437073E0,1.054794913E1
5.579633208E0,-8.532706146E0,3.628604279E0,-3.367397461E0,9.864745757E0
5.589703208E0,-7.943681030E0,3.381318512E0,-3.168161774E0,9.196337978E0
5.599772208E0,-7.449558563E0,3.185375977E0,-2.698288879E0,8.539514376E0
5.609842208E0,-6.922354889E0,2.933898926E0,-2.280507660E0,7.856683480E0
5.619911208E0,-6.436315613E0,2.616109772E0,-1.914818115E0,7.206713358E0
5.629980208E0,-5.891298981E0,2.385888519E0,-1.630259857E0,6.561830149E0
5.640050208E0,-5.461392975E0,2.058968353E0,-1.422641602E0,6.007501397E0
5.650119208E0,-5.332810364E0,1.813179474E0,-1.263522491E0,5.772605587E0
5.660189208E0,-5.131179657E0,1.582209778E0,-1.162482605E0,5.493974723E0
5.670258208E0,-4.850513306E0,1.286873932E0,-1.077010345E0,5.132589515E0
5.680327208E0,-4.993765411E0,1.030307465E0,-1.009800110E0,5.197972943E0
5.690397208E0,-5.288053436E0,8.247848511E-1,-8.722361755E-1,5.422598560E0
5.700466208E0,-5.453609161E0,5.140310669E-1,-8.360115051E-1,5.541208899E0
5.710536208E0,-5.676795044E0,3.629951477E-1,-7.104226685E-1,5.732579508E0
5.720605208E0,-5.875282288E0,2.883004761E-1,-5.668711853E-1,5.909602530E0
5.730674208E0,-5.826783142E0,3.643423462E-1,-6.036946106E-1,5.869292488E0
5.740744208E0,-5.674250336E0,5.878276062E-1,-7.952961731E-1,5.759787684E0
5.750813208E0,-5.378016357E0,9.532177734E-1,-1.152752838E0,5.582161156E0
5.760883208E0,-5.038222961E0,1.427132263E0,-1.398990784E0,5.420108146E0
5.770952208E0,-4.832400970E0,1.967807922E0,-1.470691681E0,5.421005551E0
5.781021208E0,-4.787344666E0,2.471211090E0,-1.568438416E0,5.611198826E0
5.791091208E0,-4.885091400E0,2.958896942E0,-1.919757843E0,6.025334786E0
5.801160583E0,-5.197641449E0,3.281027069E0,-2.521057434E0,6.643519086E0
5.811230583E0,-5.790857849E0,3.345542908E0,-3.278182983E0,7.448031663E0
5.821299583E0,-6.461463318E0,3.201392670E0,-4.141886902E0,8.315927509E0
5.831368583E0,-7.216942291E0,3.049757996E0,-5.128335571E0,9.364032550E0
5.841438583E0,-8.215216370E0,2.888692932E0,-6.158792725E0,1.066607025E1
5.851507583E0,-9.686506805E0,2.736609192E0,-7.289840698E0,1.242816243E1
5.861577583E0,-1.124731110E1,2.677931213E0,-8.403524780E0,1.429309453E1
5.871646583E0,-1.264166153E1,2.530038757E0,-9.875114594E0,1.623978419E1
5.881715583E0,-1.366762802E1,2.177372131E0,-1.155177795E1,1.802743961E1
5.891785583E0,-1.432131866E1,1.719624023E0,-1.217029175E1,1.887255352E1
5.901854583E0,-1.401984558E1,1.586401062E0,-1.001597168E1,1.730296007E1
5.911924583E0,-1.181537979E1,1.894011383E0,-6.598428497E0,1.366490898E1
5.921993583E0,-1.007390121E1,2.000440063E0,-4.573888550E0,1.124302907E1
5.932062583E0,-9.481133881E0,2.111808472E0,-4.207151184E0,1.058545019E1
5.942132583E0,-9.649533691E0,2.740800476E0,-5.151687012E0,1.127676225E1
5.952201583E0,-1.047686325E1,3.950734406E0,-6.575975189E0,1.298523837E1
5.962271583E0,-1.191477310E1,5.414690094E0,-8.029901733E0,1.535447846E1
5.972340583E0,-1.243239670E1,6.431675262E0,-8.819210358E0,1.654416531E1
5.982409583E0,-1.173185349E1,6.522985382E0,-7.958949280E0,1.560546693E1
5.992479583E0,-1.193019104E1,5.766907654E0,-5.942043457E0,1.452220929E1
6.002548583E0,-1.265887573E1,4.716841278E0,-4.282893677E0,1.417176435E1
6.012618583E0,-1.229153961E1,3.265010376E0,-2.748733978E0,1.301144793E1
6.022687583E0,-1.064421524E1,2.145787811E0,-1.340013428E0,1.094072024E1
6.032756583E0,-8.483458557E0,2.154469757E0,-8.330177307E-1,8.792310707E0
6.042826583E0,-7.244335327E0,2.674338684E0,-9.987231445E-1,7.786522308E0
6.052895583E0,-7.183861084E0,2.883453827E0,-1.559157715E0,7.896400371E0
6.062965583E0,-7.993227997E0,2.941233673E0,-1.987117767E0,8.745923985E0
6.073034583E0,-8.778944092E0,2.833757172E0,-1.428030396E0,9.334843860E0
6.083103583E0,-9.110803986E0,2.825075226E0,-4.189787292E-1,9.547949647E0
6.093173583E0,-9.364825745E0,2.994073792E0,3.659889221E-1,9.838617128E0
6.103242583E0,-9.933942261E0,3.028951263E0,8.155041504E-1,1.041742778E1
6.113312583E0,-1.074001602E1,2.983445892E0,9.949809265E-1,1.119101785E1
6.123381583E0,-1.133023865E1,2.796185303E0,9.955796814E-1,1.171256330E1
6.133450583E0,-1.154115005E1,2.424059143E0,7.825726318E-1,1.181890973E1
6.143520583E0,-1.158590698E1,1.932032318E0,3.665876770E-1,1.175161163E1
6.153589583E0,-1.134565659E1,1.463806000E0,-2.240840149E-1,1.144189080E1
6.163659583E0,-1.103086121E1,1.161434784E0,-6.451583862E-1,1.111058320E1
6.173728583E0,-1.076516373E1,1.056802368E0,-9.901908875E-1,1.086213880E1
6.183797583E0,-1.036609360E1,8.701405334E-1,-1.243763580E0,1.047664015E1
6.193867583E0,-9.935738525E0,7.177574158E-1,-1.305585022E0,1.004682179E1
6.203936583E0,-9.434131622E0,6.614744568E-1,-1.368603973E0,9.555807907E0
6.214006583E0,-8.633596344E0,6.535409546E-1,-1.395248566E0,8.769995449E0
6.224075583E0,-7.791447601E0,5.526507568E-1,-1.685045929E0,7.990710755E0
6.234145583E0,-6.980284424E0,5.566923523E-1,-1.821262665E0,7.235418074E0
6.244214583E0,-6.463109894E0,5.734574890E-1,-1.828148346E0,6.741125230E0
6.254283583E0,-6.190975800E0,5.168751526E-1,-1.815574493E0,6.472376072E0
6.264353583E0,-6.064189453E0,3.785627747E-1,-1.935175781E0,6.376723987E0
6.274422583E0,-6.017636261E0,3.305126953E-1,-1.960922241E0,6.337696809E0
6.284492583E0,-6.246360626E0,3.559597778E-1,-1.958078156E0,6.555745457E0
6.294561583E0,-6.478378143E0,3.246748352E-1,-1.820364532E0,6.737100574E0
6.304630583E0,-6.709198151E0,3.103047180E-1,-1.670975189E0,6.921111683E0
6.314700583E0,-6.985523529E0,2.356100464E-1,-1.612746277E0,7.173144472E0
6.324769583E0,-7.146588593E0,3.098556519E-2,-1.762434998E0,7.360765296E0
6.334839583E0,-7.199129333E0,-1.261875916E-1,-2.002236328E0,7.473442097E0
6.344908583E0,-7.260801086E0,-2.230361938E-1,-2.275118866E0,7.612170743E0
6.354977583E0,-7.371720428E0,-3.489244080E-1,-2.536026306E0,7.803553020E0
6.365047583E0,-7.542066193E0,-4.763095093E-1,-2.753673706E0,8.043155605E0
6.375116583E0,-7.723189545E0,-5.754034424E-1,-2.858605499E0,8.255323813E0
6.385186583E0,-7.955506439E0,-6.700067139E-1,-2.915187836E0,8.499253604E0
6.395255583E0,-8.206235046E0,-7.595205688E-1,-2.827170868E0,8.712752737E0
6.405324583E0,-8.519533539E0,-7.704478455E-1,-2.748733978E0,8.985075408E0
6.415394583E0,-8.883726196E0,-7.453001404E-1,-2.612517242E0,9.289849825E0
6.425463583E0,-9.305848389E0,-5.691165161E-1,-2.434687042E0,9.635891699E0
6.435533583E0,-9.650880890E0,-3.035687256E-1,-2.392474823E0,9.947642520E0
6.445602583E0,-9.774074707E0,9.280700684E-3,-2.400857391E0,1.006462810E1
6.455671583E0,-9.863588562E0,1.043330383E-1,-2.269879761E0,1.012193750E1
6.465741583E0,-1.009036697E1,-5.209167480E-2,-1.920955353E0,1.027172277E1
6.475810583E0,-1.033914963E1,-1.462458801E-1,-1.544787598E0,1.045494006E1
6.485880583E0,-1.055724609E1,-1.618135071E-1,-1.302591248E0,1.063853245E1
6.495949583E0,-1.090227859E1,-1.823208618E-1,-9.958790588E-1,1.094918694E1
6.506018583E0,-1.151465515E1,-4.231700134E-1,-6.631210327E-1,1.154149408E1
6.516088583E0,-1.209275299E1,-7.617658997E-1,-2.454895020E-1,1.211920902E1
6.526157583E0,-1.276171188E1,-1.110390930E0,8.726852417E-2,1.281022537E1
6.536227583E0,-1.354892487E1,-1.558409271E0,2.743794250E-1,1.364101494E1
6.546296583E0,-1.377285919E1,-1.856140137E0,2.071691895E-1,1.389891455E1
6.556366583E0,-1.328906525E1,-2.077829132E0,-2.888992310E-1,1.345362746E1
6.566435583E0,-1.272324188E1,-2.187251587E0,-1.267863464E0,1.297198640E1
6.576504583E0,-1.260334122E1,-2.223027191E0,-2.584824829E0,1.305631568E1
6.586574583E0,-1.318054092E1,-2.266885986E0,-3.695066071E0,1.387511962E1
6.596643583E0,-1.443627960E1,-2.346520386E0,-4.446353760E0,1.528667356E1
6.606713583E0,-1.499940857E1,-2.184407501E0,-4.624483337E0,1.584738905E1
6.616782583E0,-1.425276123E1,-1.761087799E0,-3.874692535E0,1.487467227E1
6.626851583E0,-1.319326447E1,-1.348096619E0,-2.627336426E0,1.351970741E1
6.636921583E0,-1.197255295E1,-1.043031006E0,-1.890718231E0,1.216572041E1
6.646990583E0,-1.087144272E1,-7.593708801E-1,-1.145717468E0,1.095799158E1
6.657060583E0,-9.703571320E0,-5.254074097E-1,-5.843847656E-1,9.735340510E0
6.667129583E0,-8.851243744E0,-2.447410583E-1,-2.499801636E-2,8.854661987E0
6.677198583E0,-8.673862610E0,-3.457809448E-2,5.986051941E-1,8.694562462E0
6.687268583E0,-9.246871033E0,-3.936813354E-2,1.196312256E0,9.324019346E0
6.697337583E0,-1.045964905E1,-5.822891235E-2,1.373843079E0,1.054964898E1
6.707407583E0,-1.224857895E1,1.263372803E-1,1.412013702E0,1.233034590E1
6.717476583E0,-1.424467804E1,6.189628601E-1,1.382525024E0,1.432499015E1
6.727545583E0,-1.575773163E1,1.375339966E0,1.382225647E0,1.587791592E1
6.737615583E0,-1.589185272E1,2.084116058E0,9.220825195E-1,1.605443113E1
6.747684583E0,-1.502066437E1,2.814597015E0,2.207908630E-1,1.528368617E1
6.757754583E0,-1.361643448E1,3.214565277E0,-6.750961304E-1,1.400701512E1
6.767823583E0,-1.174143356E1,3.269351349E0,-1.484013977E0,1.227811948E1
6.777892583E0,-1.035411850E1,3.245999908E0,-2.093995514E0,1.105120367E1
6.787962583E0,-9.638007660E0,3.261717224E0,-2.603086853E0,1.050266881E1
6.798031583E0,-9.268725586E0,3.387904816E0,-3.006348267E0,1.031626400E1
6.808100917E0,-8.918753357E0,3.510050812E0,-3.073408813E0,1.006530973E1
6.818169917E0,-8.424930267E0,3.395239563E0,-2.815345459E0,9.509640990E0
6.828238917E0,-7.799830170E0,3.092419281E0,-2.427052917E0,8.734471567E0
6.838308917E0,-7.015012207E0,2.739752655E0,-2.153871002E0,7.832994394E0
6.848377917E0,-6.307134247E0,2.365979919E0,-1.813778229E0,6.976216371E0
6.858447917E0,-5.848038940E0,2.123184814E0,-1.551074524E0,6.411965797E0
6.868516917E0,-5.451962585E0,1.896705780E0,-1.333127747E0,5.924408699E0
6.878586917E0,-5.282664642E0,1.697919159E0,-1.130898285E0,5.662897326E0
6.888655917E0,-5.071004791E0,1.424737244E0,-9.859996033E-1,5.358839522E0
6.898724917E0,-4.998555450E0,1.095422058E0,-1.010997620E0,5.216092624E0
6.908794917E0,-5.111271057E0,8.165519714E-1,-1.044827271E0,5.280484160E0
6.918863917E0,-5.263654175E0,5.270539856E-1,-9.677375793E-1,5.377765075E0
6.928933917E0,-5.356910248E0,1.916015625E-1,-9.638456726E-1,5.446301226E0
6.939002917E0,-5.526208191E0,-2.110610962E-2,-9.496252441E-1,5.607246253E0
6.949071917E0,-5.801934814E0,-1.245410156E-1,-7.887098694E-1,5.856622005E0
6.959141917E0,-5.870941315E0,-1.466949463E-1,-6.923103333E-1,5.913439348E0
6.969210917E0,-5.895340576E0,-2.604583740E-2,-6.134243774E-1,5.927226026E0
6.979280917E0,-5.798491974E0,2.731819153E-1,-6.233038330E-1,5.838291291E0
6.989349917E0,-5.636678467E0,8.057743835E-1,-6.586303711E-1,5.731946481E0
6.999418917E0,-5.457052002E0,1.735341339E0,-8.358618164E-1,5.787010549E0
7.009488917E0,-5.287304993E0,2.686313782E0,-1.028810577E0,6.019163316E0
7.019557917E0,-5.256469116E0,3.315006409E0,-1.316212921E0,6.352334336E0
7.029627917E0,-5.515580292E0,3.603606262E0,-1.950593719E0,6.871129449E0
7.039696917E0,-5.982459412E0,3.650608521E0,-2.818788300E0,7.553961256E0
7.049765917E0,-6.578070831E0,3.523672485E0,-3.856580200E0,8.400029434E0
7.059835917E0,-7.218588867E0,3.201692047E0,-4.932842102E0,9.310842518E0
7.069904917E0,-8.104297028E0,2.937491455E0,-6.145320740E0,1.058647502E1
7.079974917E0,-9.231303406E0,2.734962616E0,-7.529342651E0,1.222243772E1
7.090043917E0,-1.044991928E1,2.481090546E0,-8.972940674E0,1.399536665E1
7.100112917E0,-1.141855499E1,2.116448822E0,-9.849368134E0,1.522737030E1
7.110182917E0,-1.183379150E1,1.510658569E0,-9.933942261E0,1.552430093E1
7.120251917E0,-1.192016190E1,7.101232910E-1,-9.343120880E0,1.516207250E1
7.130321917E0,-1.185983734E1,-4.730163574E-2,-8.125552826E0,1.437645951E1
7.140390917E0,-1.149654282E1,-2.215393066E-2,-6.969506836E0,1.344414419E1
7.150460917E0,-1.129072083E1,6.557862854E-1,-5.970035248E0,1.278873541E1
7.160529917E0,-1.118474121E1,1.323996735E0,-5.429060211E0,1.250304355E1
7.170598917E0,-1.076291840E1,2.150727539E0,-5.891448669E0,1.245693416E1
7.180668917E0,-9.947713623E0,3.147205353E0,-6.914421387E0,1.251683390E1
7.190737917E0,-9.346863098E0,4.171076202E0,-7.507338409E0,1.269337845E1
7.200807917E0,-1.005788452E1,5.357958069E0,-7.428751831E0,1.360349622E1
7.210876917E0,-1.157976974E1,6.513554993E0,-7.269632721E0,1.514480194E1
7.220945917E0,-1.210936844E1,6.969506836E0,-6.889423370E0,1.557802888E1
7.231015917E0,-1.182945053E1,6.134992218E0,-5.435496826E0,1.439161753E1
7.241084917E0,-1.167542084E1,4.813540192E0,-4.126319275E0,1.328578683E1
7.251154917E0,-1.214110245E1,3.945794678E0,-3.351829834E0,1.319887978E1
7.261223917E0,-1.210487778E1,2.974763947E0,-2.633473663E0,1.274019113E1
7.271292917E0,-1.028151947E1,2.477048950E0,-2.163151703E0,1.079465791E1
7.281362917E0,-7.741900635E0,2.789000244E0,-2.093696136E0,8.491119556E0
7.291431917E0,-6.647077332E0,3.491938477E0,-2.082319794E0,7.791875711E0
7.301501917E0,-7.018904114E0,4.019142151E0,-1.991309052E0,8.329695692E0
7.311570917E0,-7.812703400E0,4.031117249E0,-1.600022736E0,8.935788350E0
7.321640917E0,-8.617879028E0,3.555556183E0,-4.328997803E-1,9.332589187E0
7.331709917E0,-9.191635895E0,3.098706207E0,6.216572571E-1,9.719804953E0
7.341778917E0,-9.652826843E0,2.821931763E0,1.128952332E0,1.012002462E1
7.351848917E0,-1.027268784E1,2.694995728E0,1.490749969E0,1.072443252E1
7.361917917E0,-1.102412521E1,2.638114014E0,1.702858887E0,1.146257871E1
7.371987917E0,-1.170026917E1,2.524949341E0,1.771416321E0,1.209998279E1
7.382056917E0,-1.207508972E1,2.212099915E0,1.344504089E0,1.234944813E1
7.392125917E0,-1.183768341E1,1.802102509E0,4.275109863E-1,1.198169803E1
7.402195917E0,-1.144684616E1,1.468596039E0,-5.402265930E-1,1.155330715E1
7.412264917E0,-1.109522736E1,1.364861755E0,-1.114582214E0,1.123428730E1
7.422334917E0,-1.074121353E1,1.416654053E0,-1.419797516E0,1.092686606E1
7.432403917E0,-1.043210632E1,1.309776306E0,-1.802401886E0,1.066738060E1
7.442472917E0,-9.895771637E0,1.153052216E0,-2.269879761E0,1.021803209E1
7.452542917E0,-9.298813019E0,1.058748322E0,-2.581681366E0,9.708447365E0
7.462611917E0,-8.555608521E0,1.024020538E0,-2.699935455E0,9.029767809E0
7.472681917E0,-7.862849121E0,8.656498718E-1,-2.587968292E0,8.322939738E0
7.482750917E0,-7.291038208E0,6.530918884E-1,-2.435585175E0,7.714780769E0
7.492820917E0,-6.858886871E0,4.589456177E-1,-2.216889954E0,7.222849940E0
7.502889917E0,-6.556066589E0,3.350033569E-1,-2.005978546E0,6.864268810E0
7.512958917E0,-6.432274017E0,1.508862305E-1,-1.925745392E0,6.716056209E0
7.523028917E0,-6.323300629E0,1.242416382E-2,-1.892364807E0,6.600403758E0
7.533097917E0,-6.145919495E0,-2.544708252E-2,-1.822160797E0,6.410401232E0
7.543167917E0,-6.082601166E0,-6.930587769E-2,-1.740879822E0,6.327203395E0
7.553236917E0,-6.296057281E0,-7.574249268E-2,-1.528621216E0,6.479410238E0
7.563305917E0,-6.617588654E0,-2.008822632E-1,-1.401685181E0,6.767389055E0
7.573375917E0,-6.883585510E0,-3.207829285E-1,-1.515298920E0,7.055691460E0
7.583444917E0,-7.265441437E0,-4.411326599E-1,-1.802551575E0,7.498695185E0
7.593514917E0,-7.471562805E0,-4.604425049E-1,-2.188598785E0,7.799116789E0
7.603583917E0,-7.580386505E0,-3.833528137E-1,-2.558778992E0,8.009779577E0
7.613653917E0,-7.740104370E0,-2.977308655E-1,-2.731819153E0,8.213446001E0
7.623722917E0,-8.002957764E0,-2.885998535E-1,-2.809956665E0,8.486841539E0
7.633791917E0,-8.263266449E0,-3.778143311E-1,-2.854264526E0,8.750493818E0
7.643861917E0,-8.333620148E0,-4.510121155E-1,-2.795436859E0,8.801539861E0
7.653930917E0,-8.325536957E0,-4.948709106E-1,-2.659818878E0,8.754090433E0
7.664000917E0,-8.527167664E0,-4.366419983E-1,-2.351460114E0,8.856218677E0
7.674069917E0,-8.911568298E0,-2.824626160E-1,-2.052382050E0,9.149213449E0
7.684138917E0,-9.155411224E0,-1.146615601E-1,-1.737137604E0,9.319460768E0
7.694208917E0,-9.380692749E0,6.077362061E-2,-1.507664795E0,9.501270600E0
7.704277917E0,-9.559870148E0,2.767744446E-1,-1.433868256E0,9.670765198E0
7.714347917E0,-9.633816376E0,2.263293457E-1,-1.272354126E0,9.720109462E0
7.724416917E0,-9.824819183E0,-6.421646118E-2,-1.240769806E0,9.903065457E0
7.734485917E0,-1.012524445E1,-3.923341370E-1,-1.201102295E0,1.020378106E1
7.744555917E0,-1.069555847E1,-6.881190491E-1,-1.099313965E0,1.077390227E1
7.754624917E0,-1.159024796E1,-9.458830261E-1,-9.413923645E-1,1.166682313E1
7.764694917E0,-1.258028915E1,-1.248403931E0,-7.985893250E-1,1.266727802E1
7.774763917E0,-1.314012497E1,-1.443897400E0,-6.935078430E-1,1.323739691E1
7.784833917E0,-1.334055817E1,-1.547631683E0,-6.626719666E-1,1.344636717E1
7.794902917E0,-1.361418915E1,-1.529369659E0,-7.933502197E-1,1.372277386E1
7.804972792E0,-1.330627945E1,-1.504072266E0,-1.339564362E0,1.345785045E1
7.815042792E0,-1.263148270E1,-1.809287567E0,-2.281854858E0,1.296282138E1
7.825111792E0,-1.289433609E1,-2.117047577E0,-3.129991150E0,1.343661558E1
7.835181792E0,-1.389261017E1,-2.731819153E0,-3.564238129E0,1.460038515E1
7.845250792E0,-1.518098099E1,-3.553460541E0,-3.448079681E0,1.596804681E1
7.855319792E0,-1.568752762E1,-3.675007782E0,-2.595452728E0,1.631994424E1
7.865389792E0,-1.469449265E1,-3.193459167E0,-1.801503754E0,1.514502266E1
7.875458792E0,-1.304028259E1,-2.402803345E0,-1.492995300E0,1.334359281E1
7.885528792E0,-1.163844772E1,-1.617536316E0,-1.083446960E0,1.180015875E1
7.895597792E0,-1.046952850E1,-1.000669098E0,-5.354365540E-1,1.053086217E1
7.905666792E0,-9.495354309E0,-6.487509155E-1,1.781295776E-2,9.517507473E0
7.915736792E0,-9.125024414E0,-5.319937134E-1,5.189707947E-1,9.155239951E0
7.925805792E0,-9.645492096E0,-6.487509155E-1,1.122515717E0,9.732237002E0
7.935875792E0,-1.113235016E1,-5.941145325E-1,1.738634491E0,1.128295360E1
7.945944792E0,-1.334459976E1,-1.716929626E-1,2.229164429E0,1.353059479E1
7.956014792E0,-1.481648895E1,3.900888062E-1,2.405198364E0,1.501550843E1
7.966083792E0,-1.533531006E1,1.033151550E0,2.028880920E0,1.550340268E1
7.976152792E0,-1.490360779E1,1.565594330E0,1.247954865E0,1.503748656E1
7.986222792E0,-1.404708893E1,2.133812714E0,3.574566650E-1,1.421272807E1
7.996291792E0,-1.296603699E1,2.754871216E0,-3.614982605E-1,1.326039636E1
8.006361792E0,-1.199515594E1,3.350782013E0,-7.415579224E-1,1.247643436E1
8.016430792E0,-1.147408951E1,3.790417786E0,-1.415905609E0,1.216662590E1
8.026500792E0,-1.074824890E1,4.213288422E0,-2.410287781E0,1.179347875E1
8.036569792E0,-9.927655334E0,4.494553528E0,-3.018772430E0,1.130806521E1
8.046638792E0,-8.967701569E0,4.492308197E0,-3.412902832E0,1.059473502E1
8.056708792E0,-8.237819366E0,4.273313599E0,-3.402424622E0,9.884299183E0
8.066777792E0,-7.781418457E0,3.714375916E0,-2.693648529E0,9.033427038E0
8.076847792E0,-7.183262329E0,3.159928894E0,-2.026934967E0,8.105114044E0
8.086916792E0,-6.633305969E0,2.868185577E0,-1.620230713E0,7.406239542E0
8.096985792E0,-6.007158051E0,2.627336426E0,-1.319655762E0,6.688074152E0
8.107055792E0,-5.526956635E0,2.362686768E0,-1.137035522E0,6.117384096E0
8.117124792E0,-5.113965454E0,2.141596527E0,-9.261241150E-1,5.621101692E0
8.127194792E0,-4.913083191E0,1.886377258E0,-8.249345398E-1,5.327036943E0
8.137263792E0,-4.963079224E0,1.626817017E0,-9.261241150E-1,5.304375068E0
8.147332792E0,-5.058281250E0,1.293609924E0,-1.118773499E0,5.339596425E0
8.157402792E0,-5.282365265E0,9.231303406E-1,-1.330283661E0,5.524962175E0
8.167471792E0,-5.488486633E0,5.553451538E-1,-1.464404755E0,5.707571730E0
8.177541792E0,-5.577252045E0,1.727407837E-1,-1.497635651E0,5.777412249E0
8.187610792E0,-5.572312317E0,-1.291813660E-1,-1.434916077E0,5.755548326E0
8.197680792E0,-5.465733948E0,-3.155438232E-1,-1.290167084E0,5.624797472E0
8.207749792E0,-5.372477875E0,-2.841091919E-1,-1.067579956E0,5.484885004E0
8.217818792E0,-5.220094757E0,-1.127156067E-1,-9.033714294E-1,5.298884224E0
8.227888792E0,-5.045707397E0,9.684860229E-2,-1.035546570E0,5.151786049E0
8.237957792E0,-5.006039886E0,4.173321533E-1,-1.380130005E0,5.209545115E0
8.248027792E0,-5.243595886E0,8.693920898E-1,-1.629212036E0,5.559269042E0
8.258096792E0,-5.638624420E0,1.451531525E0,-1.793719940E0,6.092492129E0
8.268166792E0,-6.021677856E0,1.977837067E0,-1.961371307E0,6.634713338E0
8.278235792E0,-6.424789581E0,2.375859375E0,-2.304607544E0,7.227298587E0
8.288304792E0,-6.917714539E0,2.670596466E0,-2.988834686E0,7.994997980E0
8.298374792E0,-7.588619385E0,2.824775848E0,-3.996988220E0,9.030084030E0
8.308443792E0,-8.515641632E0,2.882406006E0,-5.167404327E0,1.036949778E1
8.318513792E0,-9.689650269E0,2.921175385E0,-6.230493622E0,1.188451256E1
8.328582792E0,-1.106454117E1,2.881058807E0,-7.212751007E0,1.351844474E1
8.338651792E0,-1.219409225E1,2.684218140E0,-8.254734192E0,1.496801755E1
8.348721792E0,-1.282877243E1,2.244133301E0,-9.361532593E0,1.603907194E1
8.358790792E0,-1.306528061E1,1.485959930E0,-1.024813889E1,1.667135222E1
8.368860792E0,-1.292801605E1,6.426136780E-1,-9.946516113E0,1.632420700E1
8.378929792E0,-1.196746353E1,6.915618896E-2,-8.152496796E0,1.448061359E1
8.388999792E0,-1.095751373E1,1.492396545E-1,-6.093977509E0,1.253897689E1
8.399068792E0,-1.035277130E1,5.989045715E-1,-4.899461517E0,1.146923203E1
8.409137792E0,-1.003498215E1,1.217268677E0,-4.648882599E0,1.112630753E1
8.419207792E0,-9.878856812E0,2.004481659E0,-5.189258881E0,1.133746737E1
8.429276792E0,-9.491911469E0,3.166066132E0,-6.033203888E0,1.168417337E1
8.439346792E0,-9.816436615E0,4.531077576E0,-6.595135345E0,1.266447401E1
8.449415792E0,-1.181762512E1,5.882617035E0,-6.865922241E0,1.487959458E1
8.459484792E0,-1.280497192E1,6.821913757E0,-6.437213745E0,1.587272926E1
8.469554792E0,-1.220472015E1,7.045997772E0,-5.638774109E0,1.517883566E1
8.479623792E0,-1.180669785E1,6.004613342E0,-5.038073273E0,1.417165049E1
8.489693792E0,-1.136242172E1,4.105662231E0,-3.894451447E0,1.269361421E1
8.499762792E0,-1.037597305E1,2.425406342E0,-2.273322601E0,1.089547651E1
8.509832792E0,-9.083710327E0,1.683848419E0,-1.003513184E0,9.292802458E0
8.519901792E0,-7.975864105E0,1.782792664E0,-7.009922791E-1,8.202691514E0
8.529970792E0,-7.287745056E0,2.210603027E0,-1.293609924E0,7.724727852E0
8.540040792E0,-7.547305298E0,2.274969177E0,-1.282383270E0,7.986351412E0
8.550109792E0,-8.414601746E0,2.029779053E0,-4.314028931E-1,8.666696833E0
8.560179792E0,-8.863518219E0,1.596729584E0,2.412982178E-1,9.009424255E0
8.570248792E0,-8.843010864E0,1.202000427E0,5.216651917E-1,8.939562671E0
8.580317792E0,-9.376501465E0,9.157955933E-1,6.991960144E-1,9.447027911E0
8.590387792E0,-1.048045578E1,8.011340332E-1,7.899073792E-1,1.054066994E1
8.600456792E0,-1.157468033E1,7.409591675E-1,7.524851990E-1,1.162275695E1
8.610526792E0,-1.271710464E1,8.334667969E-1,5.559439087E-1,1.275650779E1
8.620595792E0,-1.334190536E1,9.446855164E-1,3.505709839E-1,1.337990170E1
8.630665792E0,-1.327454544E1,1.008003845E0,2.499801636E-2,1.331278533E1
8.640734792E0,-1.271396118E1,1.012793884E0,-3.558100891E-1,1.275919908E1
8.650803792E0,-1.194216614E1,9.915380859E-1,-4.670288086E-1,1.199235572E1
8.660873792E0,-1.126736938E1,9.419911194E-1,-3.695814514E-1,1.131271632E1
8.670942792E0,-1.038884628E1,8.204438782E-1,-2.927911377E-1,1.042530488E1
8.681012792E0,-9.752669220E0,6.300398254E-1,-1.901046753E-1,9.774847665E0
8.691081792E0,-9.196725311E0,4.616400146E-1,-1.243913269E-1,9.209144431E0
8.701150792E0,-8.612639923E0,3.514691162E-1,-1.207987976E-1,8.620654809E0
8.711220792E0,-8.228838043E0,2.610571289E-1,-2.526745605E-1,8.236854424E0
8.721289792E0,-7.960446167E0,2.167492676E-1,-5.676196289E-1,7.983600407E0
8.731359792E0,-7.677534485E0,2.258802795E-1,-8.616082764E-1,7.729031407E0
8.741428792E0,-7.386389923E0,2.917433167E-1,-1.187480621E0,7.486920628E0
8.751498792E0,-7.145540771E0,3.757186890E-1,-1.416055298E0,7.294184674E0
8.761567792E0,-6.934329987E0,5.519023132E-1,-1.535656586E0,7.123746885E0
8.771636792E0,-6.830745392E0,7.050338745E-1,-1.698068848E0,7.073866919E0
8.781706792E0,-6.767576752E0,8.385562134E-1,-1.860630798E0,7.068607966E0
8.791775792E0,-6.714736633E0,9.819580078E-1,-2.003284149E0,7.075667952E0
8.801845792E0,-6.868017883E0,9.940827942E-1,-2.135459290E0,7.260720117E0
8.811914792E0,-7.136559448E0,6.991960144E-1,-2.318079529E0,7.536103007E0
8.821984792E0,-7.192543030E0,3.100053406E-1,-2.587070160E0,7.649948402E0
8.832053792E0,-7.268285522E0,-1.851649475E-1,-3.054548035E0,7.886223696E0
8.842122792E0,-7.262447662E0,-7.605683899E-1,-3.475622406E0,8.087123186E0
8.852192792E0,-7.413782959E0,-1.251098328E0,-3.655398560E0,8.360105467E0
8.862261792E0,-7.764503632E0,-1.544787598E0,-3.522175598E0,8.664848891E0
8.872331792E0,-8.176746368E0,-1.621428223E0,-3.151396637E0,8.911762532E0
8.882400792E0,-8.345146179E0,-1.591041412E0,-2.659818878E0,8.902107278E0
8.892469792E0,-8.483009491E0,-1.556463318E0,-2.330803070E0,8.934017631E0
8.902539792E0,-8.410560150E0,-1.433868256E0,-2.120640106E0,8.791508100E0
8.912608792E0,-8.374934235E0,-1.362317047E0,-2.072739716E0,8.734510925E0
8.922678792E0,-8.712631989E0,-1.371597748E0,-2.043999481E0,9.053682700E0
8.932747792E0,-9.122180328E0,-1.400787048E0,-1.986369324E0,9.440447097E0
8.942817792E0,-9.458381195E0,-1.272054749E0,-1.928888855E0,9.736514280E0
8.952886792E0,-9.818532257E0,-1.124761047E0,-1.859732666E0,1.005620548E1
8.962955792E0,-1.014200958E1,-9.644444275E-1,-1.737586670E0,1.033487875E1
8.973025792E0,-1.029618896E1,-8.414002991E-1,-1.679058380E0,1.046607370E1
8.983094792E0,-1.071397018E1,-7.209008789E-1,-1.531764679E0,1.084689625E1
8.993164792E0,-1.114103210E1,-5.614823914E-1,-1.346899109E0,1.123619135E1
9.003233792E0,-1.152273834E1,-6.032455444E-1,-1.235081635E0,1.160443151E1
9.013303792E0,-1.164233963E1,-8.119116211E-1,-1.284179535E0,1.174105573E1
9.023372792E0,-1.183349213E1,-1.177750854E0,-1.370400238E0,1.197065703E1
9.033441792E0,-1.225022552E1,-1.715133362E0,-1.367107086E0,1.244502670E1
9.043511792E0,-1.252355713E1,-2.344424744E0,-1.565744019E0,1.283695310E1
9.053580792E0,-1.262609390E1,-2.713108063E0,-1.971550140E0,1.306392791E1
9.063650792E0,-1.279658936E1,-3.129392395E0,-2.233056335E0,1.336159932E1
9.073719792E0,-1.297067734E1,-3.723207550E0,-2.659519501E0,1.375404628E1
9.083788792E0,-1.356000183E1,-4.238436127E0,-3.327280884E0,1.459139433E1
9.093858792E0,-1.395173721E1,-4.220024414E0,-3.786076813E0,1.505967978E1
9.103927792E0,-1.404768768E1,-3.398233337E0,-3.694467316E0,1.491759390E1
9.113997792E0,-1.381956207E1,-2.310744781E0,-2.921474762E0,1.431275138E1
9.124066792E0,-1.344489120E1,-1.851799164E0,-2.110161896E0,1.373488416E1
9.134136792E0,-1.293130920E1,-1.688788147E0,-1.173409882E0,1.309380212E1
9.144205792E0,-1.217388428E1,-1.363664246E0,-3.387455750E-1,1.225470469E1
9.154274792E0,-1.117725677E1,-8.207432556E-1,4.049079895E-1,1.121466179E1
9.164344792E0,-1.047057632E1,-4.108955383E-1,1.031205597E0,1.052925395E1
9.174413792E0,-1.013721954E1,-2.597099304E-1,1.581311646E0,1.026309972E1
9.184483792E0,-1.063747925E1,-3.058140564E-1,1.858235779E0,1.080289439E1
9.194552792E0,-1.190189987E1,-4.691244507E-1,2.161654816E0,1.210570320E1
9.204622792E0,-1.329505280E1,-3.724255371E-1,2.327958984E0,1.350246358E1
9.214691792E0,-1.376552444E1,-5.269042969E-2,1.979783020E0,1.390726358E1
9.224760792E0,-1.351270020E1,1.862127686E-1,1.119971008E0,1.356031256E1
9.234830792E0,-1.321122711E1,5.689668274E-1,5.231620789E-1,1.323381818E1
9.244899792E0,-1.302561310E1,1.456620941E0,2.562670898E-1,1.310931020E1
9.254969792E0,-1.246712448E1,2.600991211E0,7.783813477E-3,1.273555687E1
9.265038792E0,-1.190594147E1,3.576063538E0,-4.010160828E-1,1.243786503E1
9.275108792E0,-1.091694809E1,4.167184296E0,-1.616338806E0,1.179651354E1
9.285177792E0,-9.859546967E0,4.513114929E0,-3.444337463E0,1.137727267E1
9.295246792E0,-8.829538879E0,4.596790924E0,-4.690645752E0,1.100424469E1
9.305316792E0,-7.977061615E0,4.321513367E0,-5.518723755E0,1.061910079E1
9.315385792E0,-7.589816895E0,3.635040894E0,-4.916526031E0,9.746336286E0
9.325455792E0,-7.220085754E0,3.010539551E0,-3.519630890E0,8.577924474E0
9.335524792E0,-6.638694763E0,2.617606659E0,-2.677482147E0,7.621879258E0
9.345593792E0,-6.087840271E0,2.354902954E0,-2.182611237E0,6.882670913E0
9.355663792E0,-5.691763916E0,2.013462982E0,-1.877395935E0,6.322564761E0
9.365732792E0,-5.354215851E0,1.653311920E0,-1.611399078E0,5.830752496E0
9.375802792E0,-5.054838409E0,1.331780548E0,-1.414259033E0,5.415270943E0
9.385871792E0,-4.919519806E0,9.713301086E-1,-1.336720276E0,5.189602913E0
9.395941792E0,-4.845274200E0,6.465055847E-1,-1.310973816E0,5.060958792E0
9.406010792E0,-4.972060547E0,3.418890381E-1,-1.291813660E0,5.148500435E0
9.416079792E0,-5.241200867E0,1.517843628E-1,-1.232087860E0,5.386210682E0
9.426149792E0,-5.564977570E0,-1.408570862E-1,-1.194665680E0,5.693508774E0
9.436218792E0,-5.685327301E0,-4.403842163E-1,-1.283880157E0,5.845103338E0
9.446288792E0,-5.773344269E0,-6.015989685E-1,-1.273252258E0,5.942608575E0
9.456357792E0,-5.870492249E0,-6.780899048E-1,-1.127006378E0,6.016030962E0
9.466427792E0,-5.821394348E0,-7.396119690E-1,-1.087189178E0,5.968051469E0
9.476496792E0,-5.683531036E0,-6.819818115E-1,-1.108145599E0,5.830575521E0
9.486565792E0,-5.681734772E0,-5.492079163E-1,-1.181642761E0,5.829238284E0
9.496635792E0,-5.632636871E0,-1.767823792E-1,-1.406026154E0,5.808163193E0
9.506704792E0,-5.819598083E0,5.670208740E-1,-1.648671570E0,6.075142177E0
9.516774792E0,-6.230343933E0,1.148411865E0,-1.838626556E0,6.596710010E0
9.526843792E0,-6.581813049E0,1.491199036E0,-2.217189331E0,7.103510830E0
9.536913792E0,-6.985373840E0,1.610650635E0,-2.803070984E0,7.697197548E0
9.546982792E0,-7.462581482E0,1.618883514E0,-3.562741241E0,8.426388987E0
9.557051792E0,-8.060587921E0,1.651365967E0,-4.568200378E0,9.411086116E0
9.567121792E0,-8.766819305E0,1.687440948E0,-5.830375671E0,1.066291978E1
9.577190792E0,-9.686506805E0,1.659149780E0,-6.965614929E0,1.204578696E1
9.587260792E0,-1.095661560E1,1.471589813E0,-7.622748413E0,1.342830203E1
9.597329792E0,-1.237656281E1,1.170116730E0,-7.728129272E0,1.463804844E1
9.607399792E0,-1.332184708E1,8.065228271E-1,-8.034093018E0,1.557782845E1
9.617468792E0,-1.353186035E1,3.158432007E-1,-8.932375031E0,1.621722310E1
9.627537792E0,-1.333247498E1,2.709365845E-2,-9.274563446E0,1.624109449E1
9.637607792E0,-1.255963211E1,2.755769348E-1,-7.960745544E0,1.487258454E1
9.647676792E0,-1.083881058E1,7.668553162E-1,-6.265670471E0,1.254298642E1
9.657746792E0,-9.060658264E0,1.021775208E0,-5.425916748E0,1.061037819E1
9.667815792E0,-8.509354706E0,1.236578522E0,-5.596262512E0,1.025945408E1
9.677885792E0,-9.550739136E0,1.610950012E0,-6.582561493E0,1.171075974E1
9.687954792E0,-1.090482330E1,2.171983337E0,-7.823480988E0,1.359557052E1
9.698023792E0,-1.260004807E1,2.802472229E0,-8.919052734E0,1.568963236E1
9.708093792E0,-1.336510712E1,2.858156433E0,-8.671168213E0,1.618592922E1
9.718162792E0,-1.292592041E1,2.265838165E0,-6.621779938E0,1.469902754E1
9.728232792E0,-1.299133438E1,1.769919434E0,-4.746479645E0,1.394404722E1
9.738301792E0,-1.335882019E1,1.629212036E0,-3.557352448E0,1.392002748E1
9.748371792E0,-1.277623169E1,1.399888916E0,-2.700085144E0,1.313324960E1
9.758440792E0,-1.065948349E1,1.323697357E0,-2.142494659E0,1.095294692E1
9.768509792E0,-8.273894348E0,1.722318420E0,-1.332978058E0,8.555731350E0
9.778579792E0,-7.237749023E0,2.188449097E0,-9.870474243E-1,7.625521818E0
9.788648792E0,-7.579488373E0,2.452799377E0,-1.216669922E0,8.058855656E0
9.798718792E0,-8.588390350E0,2.457888794E0,-1.264720001E0,9.022260405E0
9.808787458E0,-9.388326874E0,2.257305908E0,-5.495072937E-1,9.671508141E0
9.818857458E0,-9.905202026E0,1.890568542E0,2.091151428E-1,1.008617895E1
9.828926458E0,-1.012943573E1,1.560205536E0,5.134323120E-1,1.026174070E1
9.838995458E0,-1.058359131E1,1.349443817E0,4.849914551E-1,1.068029121E1
9.849065458E0,-1.116183884E1,1.244062958E0,2.883004761E-1,1.123465425E1
9.859134458E0,-1.151645142E1,1.035247192E0,-1.760339355E-1,1.156422838E1
9.869204458E0,-1.170401138E1,8.273295593E-1,-8.105644226E-1,1.176118069E1
9.879273458E0,-1.167078049E1,6.267466736E-1,-1.536105652E0,1.178811050E1
9.889343458E0,-1.146660507E1,4.869374084E-1,-2.174528046E0,1.168112632E1
9.899412458E0,-1.112426697E1,4.099974060E-1,-2.602188721E0,1.143192021E1
9.909481458E0,-1.065574127E1,1.387614441E-1,-2.984942780E0,1.106679539E1
9.919551458E0,-9.914333038E0,-4.086502075E-2,-3.114722900E0,1.039216860E1
9.929620458E0,-9.014554138E0,-6.975494385E-2,-2.954705658E0,9.486692658E0
9.939690458E0,-8.266260223E0,-1.437011719E-1,-2.673889618E0,8.689153802E0
9.949759458E0,-7.636968842E0,-2.210902405E-1,-2.321522369E0,7.985088609E0
9.959828458E0,-7.087461548E0,-2.315684509E-1,-1.868564301E0,7.333298554E0
9.969898458E0,-6.521189117E0,-1.860630798E-1,-1.405726776E0,6.673574360E0
9.979967458E0,-6.108347626E0,-2.357597351E-1,-1.061442719E0,6.204365722E0
9.990037458E0,-5.869294739E0,-4.167333984E-1,-9.081614685E-1,5.953742076E0
1.000010646E1,-5.618715820E0,-6.167175293E-1,-7.502398682E-1,5.702031905E0
1.001017646E1,-5.564079437E0,-7.613168335E-1,-6.610253906E-1,5.654691669E0
1.002024546E1,-5.744753723E0,-1.004860382E0,-6.415658569E-1,5.867158296E0
1.003031446E1,-6.018235016E0,-1.215622101E0,-6.730004883E-1,6.176554011E0
1.004038446E1,-6.193370819E0,-1.359173584E0,-6.481521606E-1,6.373797624E0
1.005045346E1,-6.453829193E0,-1.462608490E0,-5.559439087E-1,6.640798783E0
1.006052346E1,-6.782695313E0,-1.532513123E0,-6.099815369E-1,6.980374607E0
1.007059246E1,-7.123536530E0,-1.520987091E0,-7.222480774E-1,7.319823543E0
1.008066246E1,-7.558831329E0,-1.565893707E0,-9.298663330E-1,7.775127366E0
1.009073146E1,-7.770790558E0,-1.556613007E0,-1.334624634E0,8.036756364E0
1.010080046E1,-7.859705658E0,-1.459315338E0,-1.663041687E0,8.165187196E0
1.011087046E1,-8.096213837E0,-1.321601715E0,-1.993853760E0,8.442201277E0
1.012093946E1,-8.223299561E0,-1.248104553E0,-2.606679382E0,8.716375281E0
1.013100946E1,-8.225993958E0,-1.067280579E0,-3.045267334E0,8.836272832E0
1.014107846E1,-8.462352448E0,-1.065933380E0,-3.412154388E0,9.186425882E0
1.015114846E1,-8.925189972E0,-1.331780548E0,-3.577560425E0,9.707295919E0
1.016121746E1,-9.306746521E0,-1.102307739E0,-3.731290741E0,1.008727633E1
1.017128646E1,-9.449998627E0,-4.424798584E-1,-3.945345612E0,1.025007388E1
1.018135646E1,-9.666747894E0,3.173400879E-2,-4.049678650E0,1.048078809E1
1.019142546E1,-9.963880005E0,8.846603394E-2,-3.792663116E0,1.066166143E1
1.020149546E1,-1.030876282E1,-4.297563171E-1,-3.376977539E0,1.085630041E1
1.021156446E1,-1.104238724E1,-1.321452026E0,-2.681074677E0,1.143978640E1
1.022163446E1,-1.156764496E1,-1.998344421E0,-2.129022675E0,1.193048733E1
1.023170346E1,-1.177466446E1,-2.492167511E0,-1.839524689E0,1.217528123E1
1.024177246E1,-1.202449493E1,-2.981050873E0,-1.673669586E0,1.250105246E1
1.025184246E1,-1.217807556E1,-3.374582520E0,-1.616937561E0,1.274000858E1
1.026191146E1,-1.224079514E1,-3.757037201E0,-1.699715424E0,1.291671114E1
1.027198146E1,-1.243763580E1,-4.107757874E0,-1.718725891E0,1.321069558E1
1.028205046E1,-1.244018051E1,-4.161945190E0,-1.794767761E0,1.324013105E1
1.029212046E1,-1.245185623E1,-4.066892853E0,-1.774110718E0,1.321876734E1
1.030218946E1,-1.320793396E1,-3.273093567E0,-1.238225098E0,1.366366943E1
1.031225946E1,-1.415471512E1,-1.924547882E0,-8.270301819E-1,1.430887220E1
1.032232846E1,-1.465183136E1,-1.112336884E0,-6.174659729E-1,1.470696161E1
1.033239746E1,-1.420635773E1,-5.129832458E-1,-8.205935669E-1,1.423928107E1
1.034246746E1,-1.262220200E1,-4.999603271E-2,-1.376088409E0,1.269709030E1
1.035253646E1,-1.071112610E1,-1.615141296E-1,-1.551822968E0,1.082416111E1
1.036260646E1,-9.375753021E0,-8.439450073E-1,-9.973759460E-1,9.466348117E0
1.037267546E1,-8.626560974E0,-1.002615051E0,-1.654060364E-1,8.686204599E0
1.038274546E1,-8.247399445E0,-7.848179626E-1,4.978646851E-1,8.299602766E0
1.039281446E1,-8.404123535E0,-5.288502502E-1,9.786648560E-1,8.477426489E0
1.040288346E1,-9.129964142E0,-3.499722290E-1,1.397493896E0,9.242927836E0
1.041295346E1,-1.027687912E1,-2.877017212E-1,1.712438965E0,1.042254594E1
1.042302246E1,-1.197105606E1,-3.282673645E-1,1.963766327E0,1.213549838E1
1.043309246E1,-1.354533234E1,-2.320175171E-1,2.088906097E0,1.370742094E1
1.044316146E1,-1.500883896E1,4.251159668E-2,1.762135620E0,1.511198783E1
1.045323146E1,-1.573527832E1,4.224215698E-1,8.225395203E-1,1.576242351E1
1.046330046E1,-1.529803757E1,9.674382019E-1,-5.155279541E-1,1.533726374E1
1.047336946E1,-1.417387527E1,1.477277985E0,-1.840871887E0,1.436906051E1
1.048343946E1,-1.292008255E1,2.119592285E0,-2.726130981E0,1.337359319E1
1.049350846E1,-1.197554672E1,2.665507050E0,-3.577710114E0,1.277961880E1
1.050357846E1,-1.094493988E1,2.818937988E0,-4.022285614E0,1.199653708E1
1.051364746E1,-1.026131149E1,2.724035339E0,-3.635340271E0,1.122187956E1
1.052371746E1,-9.975106659E0,2.474653931E0,-2.590363312E0,1.059889839E1
1.053378646E1,-9.537566528E0,2.151026917E0,-1.771116943E0,9.936244125E0
1.054385546E1,-9.018146667E0,1.755848694E0,-1.404978333E0,9.294295996E0
1.055392546E1,-8.560099182E0,1.387315063E0,-1.455872498E0,8.793151075E0
1.056399446E1,-7.912096710E0,1.065783691E0,-1.681154022E0,8.158642539E0
1.057406446E1,-7.369475098E0,8.897497559E-1,-1.826202393E0,7.644333393E0
1.058413346E1,-6.920109558E0,7.487429810E-1,-1.952839050E0,7.229253952E0
1.059420346E1,-6.636599121E0,7.536827087E-1,-1.914818115E0,6.948310150E0
1.060427246E1,-6.448739777E0,7.658074951E-1,-1.734742584E0,6.721758524E0
1.061434146E1,-6.360722809E0,7.500901794E-1,-1.562750244E0,6.592694309E0
1.062441146E1,-6.316864014E0,8.650511169E-1,-1.539099426E0,6.558956582E0
1.063448046E1,-6.102060699E0,9.428892517E-1,-1.572030945E0,6.371457150E0
1.064455046E1,-5.993835754E0,8.873547363E-1,-1.543889465E0,6.252764202E0
1.065461946E1,-5.816903687E0,9.719288635E-1,-1.553768921E0,6.098787754E0
1.066468946E1,-5.537883911E0,1.070424042E0,-1.459315338E0,5.826110804E0
1.067475846E1,-5.370980988E0,1.200204163E0,-1.392554169E0,5.676894742E0
1.068482746E1,-5.374573517E0,1.329535217E0,-1.270108795E0,5.680394417E0
1.069489746E1,-5.401816864E0,1.454375610E0,-1.218765564E0,5.725401588E0
1.070496646E1,-5.481750641E0,1.548978882E0,-1.238973541E0,5.829578124E0
1.071503646E1,-5.516478424E0,1.623823242E0,-1.291214905E0,5.893689172E0
1.072510546E1,-5.507197723E0,1.748813324E0,-1.419198761E0,5.949932767E0
1.073517546E1,-5.534291382E0,1.865420837E0,-1.570833435E0,6.047784196E0
1.074524446E1,-5.727539520E0,1.981130219E0,-1.741029510E0,6.305614138E0
1.075531446E1,-6.036646729E0,2.124382324E0,-2.052980804E0,6.720776307E0
1.076538346E1,-6.431076508E0,2.184856567E0,-2.598895569E0,7.272317474E0
1.077545246E1,-6.845564575E0,2.186503143E0,-3.313659210E0,7.913462435E0
1.078552246E1,-7.316185913E0,2.051184540E0,-4.058360596E0,8.614187429E0
1.079559146E1,-7.897876282E0,1.847907257E0,-4.771777039E0,9.410688981E0
1.080566142E1,-8.612490234E0,1.632056122E0,-5.511987762E0,1.035473825E1
1.081573042E1,-9.682914276E0,1.395697632E0,-6.138734436E0,1.154949615E1
1.082580042E1,-1.089524323E1,1.151854706E0,-6.545588379E0,1.276235956E1
1.083586942E1,-1.191866501E1,8.144563293E-1,-6.826105042E0,1.375912878E1
1.084593842E1,-1.238359818E1,3.426374817E-1,-7.204368439E0,1.433086979E1
1.085600842E1,-1.266276764E1,-1.231938171E-1,-7.499704285E0,1.471755501E1
1.086607742E1,-1.249346970E1,-3.159928894E-1,-7.536827087E0,1.459419059E1
1.087614742E1,-1.175340866E1,-3.354524231E-1,-7.342680817E0,1.386254324E1
1.088621642E1,-1.097742233E1,-1.005908203E-1,-6.960525513E0,1.299857050E1
1.089628642E1,-1.007135651E1,-9.086105347E-2,-6.725963287E0,1.211111307E1
1.090635542E1,-9.651030579E0,7.289840698E-2,-6.676715698E0,1.173568225E1
1.091642442E1,-9.940079498E0,5.548960876E-1,-6.906637573E0,1.211671295E1
1.092649442E1,-1.132739456E1,1.752106476E0,-7.798033905E0,1.386322753E1
1.093656342E1,-1.282353333E1,3.093766479E0,-8.161178741E0,1.551190628E1
1.094663342E1,-1.271141647E1,3.539090424E0,-6.693929901E0,1.479574153E1
1.095670242E1,-1.186253174E1,3.557951202E0,-4.490661621E0,1.317363723E1
1.096677242E1,-1.223450821E1,3.640579376E0,-3.147205353E0,1.314693542E1
1.097684142E1,-1.268896317E1,3.627107391E0,-2.122136993E0,1.336671836E1
1.098691142E1,-1.213092361E1,3.583098907E0,-1.814077606E0,1.277844995E1
1.099698042E1,-1.045949936E1,3.550167389E0,-1.825903015E0,1.119547842E1
1.100704942E1,-8.417296143E0,3.759432220E0,-2.144889679E0,9.464922435E0
1.101711942E1,-7.536827087E0,4.146826630E0,-2.432591400E0,8.939655170E0
1.102718842E1,-8.436306610E0,4.374652863E0,-2.224823456E0,9.760056163E0
1.103725842E1,-9.264534302E0,4.406237183E0,-1.783690796E0,1.041288024E1
1.104732742E1,-9.061257019E0,3.854783936E0,-7.197033691E-1,9.873383964E0
1.105739742E1,-9.055718536E0,3.169958038E0,4.020639038E-1,9.602933279E0
1.106746642E1,-9.479337616E0,2.831212463E0,1.080153809E0,9.951901220E0
1.107753542E1,-1.002884491E1,2.664309540E0,1.373094635E0,1.046717079E1
1.108760542E1,-1.061622345E1,2.548899536E0,1.308129730E0,1.099601258E1
1.109767442E1,-1.103804626E1,2.329755249E0,9.136999512E-1,1.131817443E1
1.110774442E1,-1.153800659E1,2.023641815E0,4.064048767E-1,1.172117260E1
1.111781342E1,-1.188453598E1,1.571432190E0,-2.511776733E-1,1.199060819E1
1.112788342E1,-1.199934723E1,1.054856415E0,-9.669891357E-1,1.208437520E1
1.113795242E1,-1.177406570E1,5.632786560E-1,-1.658401337E0,1.190362134E1
1.114802142E1,-1.147618515E1,2.082170105E-1,-2.113904114E0,1.167110837E1
1.115809142E1,-1.070543793E1,-2.305206299E-2,-2.316432953E0,1.095320931E1
1.116816042E1,-9.798024902E0,-1.812730408E-1,-2.287243652E0,1.006308280E1
1.117823042E1,-8.868757324E0,-3.234773254E-1,-2.149530029E0,9.131263516E0
1.118829942E1,-8.000862122E0,-3.248245239E-1,-1.836231537E0,8.215293782E0
1.119836942E1,-7.303911438E0,-2.902464294E-1,-1.550475769E0,7.472304892E0
1.120843842E1,-6.835236053E0,-2.939886475E-1,-1.275796967E0,6.959492735E0
1.121850842E1,-6.606811066E0,-2.411485291E-1,-8.777746582E-1,6.669227348E0
1.122857742E1,-6.399192810E0,-2.344125366E-1,-4.849914551E-1,6.421824863E0
1.123864642E1,-6.189778290E0,-2.386038208E-1,-2.323168945E-1,6.198730370E0
1.124871642E1,-6.058950348E0,-1.895059204E-1,-9.520202637E-2,6.062660739E0
1.125878542E1,-6.012546844E0,-1.496887207E-1,-8.128097534E-2,6.014959091E0
1.126885542E1,-6.156846771E0,-1.460961914E-1,-1.913021851E-1,6.161550356E0
1.127892442E1,-6.437064056E0,-2.052232361E-1,-5.210664368E-1,6.461379146E0
1.128899442E1,-6.763086090E0,-2.908451843E-1,-1.021326141E0,6.845950005E0
1.129906342E1,-7.134763184E0,-2.267784119E-1,-1.632056122E0,7.322559752E0
1.130913242E1,-7.725883942E0,7.244934082E-2,-2.038161621E0,7.990534049E0
1.131920242E1,-8.033344574E0,1.365161133E-1,-2.197879486E0,8.329702031E0
1.132927142E1,-8.303532715E0,-1.269360352E-1,-2.502795410E0,8.673451053E0
1.133934142E1,-8.454119568E0,-4.469705200E-1,-3.164269867E0,9.037949109E0
1.134941042E1,-8.488248596E0,-7.473957825E-1,-3.852837982E0,9.351648261E0
1.135948042E1,-8.503067780E0,-1.185534668E0,-4.126768341E0,9.525642816E0
1.136954942E1,-8.530011749E0,-1.591191101E0,-3.950884094E0,9.534278929E0
1.137961942E1,-8.561895447E0,-1.687890015E0,-3.389850769E0,9.361950362E0
1.138968842E1,-8.370293884E0,-1.565294952E0,-3.024011536E0,9.036404914E0
1.139975742E1,-8.317603455E0,-1.300495605E0,-2.897075500E0,8.903193950E0
1.140982742E1,-8.654852142E0,-8.452922058E-1,-2.606529694E0,9.078269745E0
1.141989642E1,-9.084309082E0,-4.944218445E-1,-2.179018707E0,9.355065312E0
1.142996642E1,-9.480984192E0,-1.564247131E-1,-1.657802582E0,9.626101980E0
1.144003542E1,-9.607022095E0,1.504371643E-1,-1.119821320E0,9.673236514E0
1.145010542E1,-1.002510269E1,2.258802795E-1,-7.424560547E-1,1.005509557E1
1.146017442E1,-1.041414368E1,7.484436035E-4,-4.044589233E-1,1.042199482E1
1.147024342E1,-1.068957092E1,-3.520678711E-1,-2.383044434E-1,1.069802165E1
1.148031342E1,-1.103744751E1,-5.953120422E-1,-3.302133179E-1,1.105842144E1
1.149038242E1,-1.125240051E1,-8.497828674E-1,-4.923262024E-1,1.129517744E1
1.150045242E1,-1.123952728E1,-1.166823578E0,-7.222480774E-1,1.132298958E1
1.151052142E1,-1.164054337E1,-1.560205536E0,-8.577163696E-1,1.177591476E1
1.152059142E1,-1.250888763E1,-1.844165039E0,-8.637039185E-1,1.267356300E1
1.153066042E1,-1.327843735E1,-1.872605896E0,-9.301657104E-1,1.344205191E1
1.154073042E1,-1.354712860E1,-1.800306244E0,-1.500330048E0,1.374833758E1
1.155079942E1,-1.368678818E1,-1.777553558E0,-2.408341827E0,1.401028114E1
1.156086842E1,-1.450827988E1,-1.769170990E0,-3.141816559E0,1.494962081E1
1.157093842E1,-1.555400528E1,-1.411265259E0,-3.603007507E0,1.602811321E1
1.158100742E1,-1.597388214E1,-4.460723877E-1,-3.332669678E0,1.632392656E1
1.159107742E1,-1.557062073E1,4.954696655E-1,-2.332749023E0,1.575218836E1
1.160114642E1,-1.425874878E1,5.289999390E-1,-1.687440948E0,1.436799271E1
1.161121642E1,-1.270108795E1,-1.076261902E-1,-1.222507782E0,1.276024074E1
1.162128542E1,-1.130509094E1,-6.234535217E-1,-4.947212219E-1,1.133307216E1
1.163135542E1,-9.997410278E0,-5.604345703E-1,2.073188782E-1,1.001525238E1
1.164142442E1,-9.374405823E0,-2.993774414E-1,1.074465637E0,9.440528999E0
1.165149342E1,-9.277108154E0,-2.773731995E-1,2.017654266E0,9.498031393E0
1.166156342E1,-9.717492371E0,-5.275030518E-1,2.715503082E0,1.010355751E1
1.167163242E1,-1.104792572E1,-3.574566650E-1,3.140020294E0,1.149104719E1
1.168170242E1,-1.286888901E1,2.956352234E-1,3.146456909E0,1.325126015E1
1.169177142E1,-1.428269897E1,1.056652679E0,2.746937714E0,1.458278683E1
1.170184142E1,-1.540147247E1,1.826950836E0,2.063459015E0,1.564611667E1
1.171191042E1,-1.594319595E1,2.702480164E0,1.214574280E0,1.621616745E1
1.172197942E1,-1.539743088E1,3.370091858E0,-5.448669434E-2,1.576202289E1
1.173204942E1,-1.382734589E1,3.992497559E0,-1.232985992E0,1.444492248E1
1.174211842E1,-1.190459427E1,4.667144623E0,-2.481240234E0,1.302528912E1
1.175218842E1,-1.040905426E1,4.805007935E0,-3.575464783E0,1.200918233E1
1.176225742E1,-9.246571655E0,4.700375519E0,-4.625531158E0,1.135729527E1
1.177232742E1,-8.307424622E0,4.301754456E0,-5.036726074E0,1.062482964E1
1.178239642E1,-8.203540649E0,3.489842834E0,-3.957171021E0,9.753783096E0
1.179246642E1,-7.946076050E0,2.952759705E0,-2.818039856E0,8.933099299E0
1.180253617E1,-7.203919373E0,2.626438293E0,-1.975741425E0,7.918218651E0
1.181260517E1,-6.366710358E0,2.276615753E0,-1.401086426E0,6.905144694E0
1.182267517E1,-5.645510101E0,1.926044769E0,-1.168021088E0,6.078297954E0
1.183274417E1,-5.262306976E0,1.648671570E0,-1.067280579E0,5.616856816E0
1.184281417E1,-4.999303894E0,1.294508057E0,-9.904902649E-1,5.258313560E0
1.185288317E1,-5.000351715E0,1.064885559E0,-9.632469177E-1,5.202436271E0
1.186295317E1,-4.832850037E0,7.490423584E-1,-9.833052063E-1,4.988425910E0
1.187302217E1,-4.891827393E0,4.460723877E-1,-1.027613068E0,5.018460365E0
1.188309217E1,-5.199138336E0,1.748364258E-1,-1.191971283E0,5.336890738E0
1.189316117E1,-5.502557373E0,-3.577560425E-2,-1.347647552E0,5.665295355E0
1.190323017E1,-5.591622162E0,-9.475296021E-2,-1.241368561E0,5.728543657E0
1.191330017E1,-5.397475891E0,6.870712280E-2,-1.046922913E0,5.498501091E0
1.192336917E1,-5.223836975E0,3.838018799E-1,-7.475454712E-1,5.290992426E0
1.193343917E1,-4.915777588E0,7.536827087E-1,-6.554869080E-1,5.016230657E0
1.194350817E1,-4.790787506E0,1.124311981E0,-6.593788147E-1,4.964927268E0
1.195357817E1,-4.744234314E0,1.477727051E0,-7.948471069E-1,5.032218038E0
1.196364717E1,-4.699028320E0,1.825603638E0,-1.048120422E0,5.149004973E0
1.197371617E1,-4.722080383E0,2.223326569E0,-1.303489380E0,5.379619758E0
1.198378617E1,-5.057832184E0,2.529140625E0,-1.570234680E0,5.868888792E0
1.199385517E1,-5.378315735E0,2.686762848E0,-1.928439789E0,6.313782920E0
1.200392517E1,-5.755531311E0,2.754272461E0,-2.342778168E0,6.797114609E0
1.201399417E1,-6.436165924E0,2.764750671E0,-2.880010986E0,7.573806266E0
1.202406417E1,-7.221432953E0,2.690654755E0,-3.605552216E0,8.508156303E0
1.203413317E1,-8.252039795E0,2.557581482E0,-4.649930420E0,9.811179171E0
1.204420317E1,-9.728419647E0,2.389930115E0,-5.890251160E0,1.162105733E1
1.205427217E1,-1.132949020E1,2.097588043E0,-7.070397034E0,1.351842217E1
1.206434117E1,-1.309821213E1,1.654060364E0,-8.231981506E0,1.555842525E1
1.207441117E1,-1.475631409E1,1.068627777E0,-1.011162277E1,1.792025909E1
1.208448017E1,-1.572285416E1,5.852828979E-1,-1.229662903E1,1.996892046E1
1.209455017E1,-1.477517487E1,5.134323120E-1,-1.213765961E1,1.912830849E1
1.210461917E1,-1.267100052E1,9.409432983E-1,-9.546248474E0,1.589246640E1
1.211468917E1,-1.074390793E1,1.619482269E0,-7.125332794E0,1.299325394E1
1.212475817E1,-9.239386597E0,2.448159027E0,-5.715115356E0,1.113652957E1
1.213482817E1,-8.338410187E0,3.406615906E0,-5.140759735E0,1.037118735E1
1.214489717E1,-8.061186676E0,4.310586090E0,-5.319937134E0,1.057665421E1
1.215496617E1,-8.715326385E0,5.072202301E0,-6.016588440E0,1.174237994E1
1.216503617E1,-1.075199112E1,5.815107422E0,-7.011419678E0,1.409186976E1
1.217510517E1,-1.237716156E1,6.331234131E0,-7.377109222E0,1.573850039E1
1.218517517E1,-1.212358887E1,6.330635376E0,-6.511609039E0,1.514791747E1
1.219524417E1,-1.188139252E1,6.088588715E0,-4.875511322E0,1.421298742E1
1.220531417E1,-1.212493607E1,5.364694061E0,-3.226390686E0,1.364564450E1
1.221538317E1,-1.113728989E1,4.230652313E0,-1.697021027E0,1.203401535E1
1.222545317E1,-9.646689606E0,3.259621582E0,-5.113366699E-1,1.019535278E1
1.223552217E1,-8.385861511E0,2.648292847E0,1.896556091E-1,8.796141059E0
1.224559117E1,-8.052953796E0,2.249821472E0,2.389031982E-1,8.364737667E0
1.225566117E1,-8.991502075E0,1.904938660E0,-4.742138672E-1,9.203302649E0
1.226573017E1,-9.752519531E0,1.672621765E0,-8.394543457E-1,9.930457410E0
1.227580017E1,-9.748477936E0,1.616039429E0,-4.323010254E-1,9.890970108E0
1.228586917E1,-9.917326813E0,1.753902740E0,1.384620667E-1,1.007217542E1
1.229593917E1,-1.049422714E1,1.860630798E0,7.595205688E-1,1.068492498E1
1.230600817E1,-1.138682098E1,1.836830292E0,1.213975525E0,1.159773143E1
1.231607817E1,-1.219169724E1,1.611099701E0,1.308129730E0,1.236706623E1
1.232614717E1,-1.251831802E1,1.391805725E0,1.138532410E0,1.264680455E1
1.233621617E1,-1.239796829E1,1.079555054E0,7.092251587E-1,1.246507349E1
1.234628617E1,-1.206595871E1,8.339158630E-1,9.639953613E-2,1.209512580E1
1.235635517E1,-1.152767807E1,6.753955078E-1,-4.514611816E-1,1.155626834E1
1.236642517E1,-1.130104935E1,6.475534058E-1,-5.237608337E-1,1.133169745E1
1.237649417E1,-1.085557571E1,7.619155884E-1,-4.168830872E-1,1.089026313E1
1.238656417E1,-1.014739838E1,8.379574585E-1,-3.852987671E-1,1.018922576E1
1.239663317E1,-9.397757263E0,7.711962891E-1,-4.013154602E-1,9.437883205E0
1.240670317E1,-8.729397125E0,7.044351196E-1,-3.730242920E-1,8.765714468E0
1.241677217E1,-8.026458893E0,6.703060913E-1,-3.150947571E-1,8.060560608E0
1.242684117E1,-7.250173187E0,6.593788147E-1,-3.942800903E-1,7.290764600E0
1.243691117E1,-6.642736359E0,6.020480347E-1,-5.188211060E-1,6.690110874E0
1.244698017E1,-6.329437866E0,4.926255798E-1,-6.477030945E-1,6.381534530E0
1.245705017E1,-6.186335449E0,4.493655396E-1,-7.629634094E-1,6.249383077E0
1.246711917E1,-6.030509491E0,4.302053833E-1,-8.771759033E-1,6.109137333E0
1.247718917E1,-5.843548279E0,3.830534363E-1,-1.071022797E0,5.953224022E0
1.248725817E1,-5.797144775E0,2.182461548E-1,-1.406624908E0,5.969347750E0
1.249732817E1,-6.112838287E0,-2.305206299E-2,-1.890269165E0,6.398471758E0
1.250739717E1,-6.504423981E0,-2.439926147E-1,-2.336940308E0,6.915804633E0
1.251746617E1,-6.704857178E0,-5.041516113E-1,-2.308499451E0,7.109039902E0
1.252753617E1,-6.962471466E0,-6.334826660E-1,-1.743723907E0,7.205406461E0
1.253760517E1,-7.146139526E0,-5.966592407E-1,-1.249751129E0,7.279092681E0
1.254767517E1,-7.170987854E0,-5.095404053E-1,-1.028810577E0,7.262310199E0
1.255774417E1,-7.292684784E0,-5.219645691E-1,-1.147064667E0,7.400773995E0
1.256781417E1,-7.409292297E0,-7.134164429E-1,-1.523082733E0,7.597786282E0
1.257788317E1,-7.659272461E0,-8.434959412E-1,-2.031126251E0,7.968777440E0
1.258795317E1,-7.763755188E0,-9.479786682E-1,-2.611170044E0,8.245772685E0
1.259802217E1,-7.786956940E0,-1.312321014E0,-3.028053131E0,8.457422219E0
1.260809117E1,-7.955955505E0,-1.797911224E0,-3.294049988E0,8.796617424E0
1.261816117E1,-8.218509521E0,-1.890119476E0,-3.541335754E0,9.146447907E0
1.262823017E1,-8.833430786E0,-1.584155731E0,-3.736679535E0,9.721204801E0
1.263830017E1,-9.559570770E0,-9.148974609E-1,-3.693120117E0,1.028890504E1
1.264836917E1,-1.047132477E1,-3.439846802E-1,-3.406017151E0,1.101671097E1
1.265843917E1,-1.126213028E1,1.065783691E-1,-2.988235931E0,1.165231700E1
1.266850817E1,-1.127979355E1,3.827540588E-1,-2.498454437E0,1.155952065E1
1.267857817E1,-1.129895370E1,2.854563904E-1,-2.059716797E0,1.148870199E1
1.268864717E1,-1.158470947E1,-2.032772827E-1,-1.569935303E0,1.169236982E1
1.269871617E1,-1.169458099E1,-1.008452911E0,-1.145118713E0,1.179370590E1
1.270878617E1,-1.136751114E1,-1.845512238E0,-9.345066833E-1,1.155419957E1
1.271885517E1,-1.108729385E1,-2.780318298E0,-9.645941162E-1,1.147121165E1
1.272892517E1,-1.171374115E1,-3.838767242E0,-7.228468323E-1,1.234788942E1
1.273899417E1,-1.289673111E1,-4.553231506E0,-3.414399719E-1,1.368116120E1
1.274906417E1,-1.429826660E1,-4.720134430E0,2.160008240E-1,1.505877662E1
1.275913317E1,-1.454929459E1,-4.099375305E0,4.790039062E-3,1.511578228E1
1.276920317E1,-1.345701599E1,-3.062631226E0,-1.387315063E0,1.387067527E1
1.277927217E1,-1.294463150E1,-2.137854309E0,-3.004252625E0,1.345954827E1
1.278934117E1,-1.388811951E1,-1.203796692E0,-4.376598816E0,1.461107823E1
1.279941117E1,-1.488804016E1,-5.125341797E-1,-4.746928711E0,1.563488930E1
1.280947979E1,-1.505524246E1,-7.035369873E-2,-3.520828400E0,1.546161401E1
1.281954979E1,-1.455094116E1,3.128494263E-2,-1.849104767E0,1.466799427E1
1.282961879E1,-1.352811813E1,-4.296066284E-2,-7.348219299E-1,1.354812862E1
1.283968879E1,-1.179726746E1,-3.073109436E-1,1.504371643E-1,1.180222821E1
1.284975779E1,-1.024035507E1,-5.504054260E-1,7.866142273E-1,1.028526033E1
1.285982779E1,-1.001402573E1,-5.752537537E-1,1.423539734E0,1.013104602E1
1.286989679E1,-1.042357407E1,-5.108876038E-1,2.025737457E0,1.063087554E1
1.287996579E1,-1.098984650E1,-2.387535095E-1,2.352208557E0,1.124129060E1
1.289003579E1,-1.210173431E1,6.092330933E-2,2.634521484E0,1.238532957E1
1.290010479E1,-1.334280350E1,6.301895142E-1,3.095413055E0,1.371164199E1
1.291017479E1,-1.429063248E1,1.333726501E0,3.431464233E0,1.475723381E1
1.292024379E1,-1.440634186E1,2.050136719E0,3.136128387E0,1.488559866E1
1.293031379E1,-1.406565033E1,2.539169769E0,2.434687042E0,1.449888283E1
1.294038279E1,-1.321407120E1,2.685116272E0,1.305285645E0,1.354715090E1
1.295045279E1,-1.218556000E1,2.646646271E0,8.876541138E-2,1.246998349E1
1.296052179E1,-1.119911133E1,2.803819427E0,-1.199605408E0,1.160691824E1
1.297059079E1,-1.011761032E1,2.971021729E0,-2.312690735E0,1.079544104E1
1.298066079E1,-9.050479431E0,2.859653320E0,-3.137924652E0,9.996767786E0
1.299072979E1,-8.433462524E0,2.608625336E0,-3.736380157E0,9.585862140E0
1.300079979E1,-8.246651001E0,2.185006256E0,-4.112398224E0,9.470655955E0
1.301086879E1,-8.051007843E0,1.756148071E0,-3.990850983E0,9.155854679E0
1.302093879E1,-7.690108337E0,1.419348450E0,-3.224893799E0,8.458856677E0
1.303100779E1,-7.308851166E0,1.019230499E0,-2.349514160E0,7.744569256E0
1.304107779E1,-6.709198151E0,7.881111145E-1,-1.499880981E0,6.919833951E0
1.305114679E1,-6.086044006E0,6.617738342E-1,-7.652087402E-1,6.169555954E0
1.306121579E1,-5.581443329E0,7.354206848E-1,-2.658471680E-1,5.635958475E0
1.307128579E1,-5.107678528E0,8.707392883E-1,4.385879517E-2,5.181552899E0
1.308135479E1,-4.721331940E0,1.020428009E0,1.987866211E-1,4.834435306E0
1.309142479E1,-4.541705475E0,1.174607391E0,3.062631226E-1,4.701126274E0
1.310149379E1,-4.401896210E0,1.326242065E0,3.146456909E-1,4.608102665E0
1.311156379E1,-4.150419159E0,1.403481445E0,1.681004333E-1,4.384517889E0
1.312163279E1,-4.073329468E0,1.266965332E0,-4.685256958E-2,4.266076566E0
1.313170279E1,-4.217330017E0,1.103954315E0,-2.956352234E-1,4.369437926E0
1.314177179E1,-4.596790924E0,9.948312378E-1,-5.183720398E-1,4.731689504E0
1.315184079E1,-5.272336121E0,9.660910034E-1,-6.554869080E-1,5.400048433E0
1.316191079E1,-5.973777466E0,1.043031006E0,-6.698570251E-1,6.101035922E0
1.317197979E1,-6.290967865E0,1.125359802E0,-8.081694031E-1,6.441727187E0
1.318204979E1,-6.249953156E0,1.403481445E0,-1.050365753E0,6.491143415E0
1.319211879E1,-6.257886658E0,1.718875580E0,-1.194515991E0,6.598677681E0
1.320218879E1,-6.211932220E0,1.892364807E0,-1.456770630E0,6.655172961E0
1.321225779E1,-6.271208954E0,1.996697845E0,-1.690285034E0,6.794992827E0
1.322232779E1,-6.583908691E0,1.939666443E0,-2.003284149E0,7.150056430E0
1.323239679E1,-7.087910614E0,1.873354340E0,-2.481838989E0,7.739990835E0
1.324246679E1,-7.879314880E0,1.759890289E0,-3.311563568E0,8.726240318E0
1.325253579E1,-9.161698151E0,1.606609039E0,-4.391118622E0,1.028590435E1
1.326260479E1,-1.066038162E1,1.403930511E0,-5.667514343E0,1.215464833E1
1.327267479E1,-1.224004669E1,1.162632294E0,-7.150630188E0,1.422328967E1
1.328274379E1,-1.373438919E1,1.000818787E0,-9.324709167E0,1.663085343E1
1.329281379E1,-1.464734070E1,1.031804352E0,-1.264615219E1,1.937870932E1
1.330288279E1,-1.480960327E1,1.400038605E0,-1.521346344E1,2.127754514E1
1.331295279E1,-1.297247360E1,2.053729248E0,-1.227312790E1,1.797588784E1
1.332302179E1,-1.035980667E1,2.365231476E0,-7.289541321E0,1.288632325E1
1.333309179E1,-8.845705261E0,1.992955627E0,-4.259991302E0,1.001827828E1
1.334316079E1,-8.174351349E0,1.473984833E0,-2.762056274E0,8.753376841E0
1.335323079E1,-8.226742401E0,1.147513733E0,-2.542612610E0,8.686826646E0
1.336329979E1,-9.117539978E0,1.539997559E0,-3.623963928E0,9.931477347E0
1.337336879E1,-1.087982529E1,3.093018036E0,-5.505102081E0,1.257948758E1
1.338343879E1,-1.302306839E1,4.600084076E0,-7.407645721E0,1.567272468E1
1.339350779E1,-1.357631790E1,4.959786072E0,-8.285420380E0,1.666025440E1
1.340357779E1,-1.221953934E1,4.536017303E0,-7.392826538E0,1.498487500E1
1.341364679E1,-1.177690979E1,4.535568237E0,-5.962401123E0,1.395769360E1
1.342371679E1,-1.227327759E1,4.521647186E0,-4.919968872E0,1.397443128E1
1.343378579E1,-1.195878159E1,3.963308258E0,-3.939657440E0,1.320004432E1
1.344385579E1,-1.017943176E1,3.757635956E0,-3.042423248E0,1.126929449E1
1.345392479E1,-8.611143036E0,4.151167603E0,-2.838098145E0,9.971899414E0
1.346399379E1,-8.920100555E0,4.335883484E0,-2.620001678E0,1.025828876E1
1.347406379E1,-9.576036530E0,4.452490997E0,-2.418071594E0,1.083384613E1
1.348413279E1,-9.624984741E0,3.942052460E0,-1.382375336E0,1.049242920E1
1.349420279E1,-8.916058960E0,3.024610291E0,1.137634277E-1,9.415801448E0
1.350427179E1,-8.432115326E0,2.470462646E0,8.408015442E-1,8.826703903E0
1.351434179E1,-8.917406158E0,2.162852325E0,9.952803040E-1,9.229769534E0
1.352441079E1,-9.829309845E0,1.920506287E0,9.672885132E-1,1.006177536E1
1.353448079E1,-1.094613739E1,1.594484253E0,7.105723572E-1,1.108445835E1
1.354454979E1,-1.187959625E1,1.103804626E0,1.787283325E-1,1.193210525E1
1.355461979E1,-1.257864258E1,5.093907166E-1,-5.459147644E-1,1.260078374E1
1.356468879E1,-1.276440628E1,1.538800049E-1,-1.151705017E0,1.281718265E1
1.357475779E1,-1.239347763E1,-2.037263489E-1,-1.640139313E0,1.250319356E1
1.358482779E1,-1.175745026E1,-5.206173706E-1,-2.103276215E0,1.195543599E1
1.359489679E1,-1.116228790E1,-7.328759766E-1,-2.146985321E0,1.139049272E1
1.360496679E1,-1.063194077E1,-8.770262146E-1,-1.954934692E0,1.084569542E1
1.361503579E1,-1.016221756E1,-9.428892517E-1,-1.656156006E0,1.033936935E1
1.362510579E1,-9.421408081E0,-8.497828674E-1,-1.221759338E0,9.538226095E0
1.363517479E1,-8.378826141E0,-7.491920471E-1,-8.963360596E-1,8.459872018E0
1.364524479E1,-7.583829346E0,-6.586303711E-1,-6.057902527E-1,7.636441798E0
1.365531379E1,-7.201674042E0,-6.366261292E-1,-2.493814087E-1,7.234057846E0
1.366538279E1,-7.050488434E0,-6.822811890E-1,-1.104702759E-1,7.084285317E0
1.367545279E1,-6.641538849E0,-6.300398254E-1,-5.119354248E-2,6.671552236E0
1.368552179E1,-6.205046539E0,-6.033952332E-1,2.544708252E-3,6.234315908E0
1.369559179E1,-5.971831512E0,-5.439688110E-1,-2.574645996E-2,5.996610423E0
1.370566079E1,-5.768254852E0,-4.701722717E-1,-1.172062683E-1,5.788571785E0
1.371573079E1,-5.556445312E0,-3.743714905E-1,-2.866539001E-1,5.576415424E0
1.372579979E1,-5.534590759E0,-2.706372070E-1,-5.231620789E-1,5.565845662E0
1.373586979E1,-5.609734497E0,-1.237925720E-1,-8.396040344E-1,5.673568600E0
1.374593879E1,-5.705535278E0,4.879852295E-2,-1.161584473E0,5.822782204E0
1.375600879E1,-5.957611084E0,1.971400452E-1,-1.466799774E0,6.138688427E0
1.376607779E1,-6.382876740E0,3.242257690E-1,-1.690584412E0,6.610923799E0
1.377614679E1,-6.898704071E0,4.849914551E-1,-1.810784454E0,7.148865288E0
1.378621679E1,-7.311545563E0,5.242098999E-1,-1.869612122E0,7.564981429E0
1.379628579E1,-7.686515808E0,4.848417664E-1,-1.809586945E0,7.911523350E0
1.380635517E1,-8.163723450E0,4.538562012E-1,-1.768871613E0,8.365481026E0
1.381642417E1,-8.488248596E0,3.646417236E-1,-1.751956787E0,8.674830281E0
1.382649417E1,-8.780440979E0,2.176473999E-1,-1.743723907E0,8.954556786E0
1.383656317E1,-8.902437286E0,-9.280700684E-2,-1.840123444E0,9.091097682E0
1.384663317E1,-9.020841064E0,-3.960763550E-1,-2.018851776E0,9.252470615E0
1.385670217E1,-9.112600250E0,-6.900650024E-1,-2.160606995E0,9.390628073E0
1.386677117E1,-9.269474030E0,-9.972262573E-1,-2.258204041E0,9.592554117E0
1.387684117E1,-9.504036255E0,-1.226998444E0,-2.326462097E0,9.861270517E0
1.388691017E1,-1.002734802E1,-1.495240631E0,-2.386038208E0,1.041521153E1
1.389698017E1,-1.048105453E1,-1.752106476E0,-2.432890778E0,1.090143746E1
1.390704917E1,-1.110690308E1,-2.066901855E0,-2.583777008E0,1.158927447E1
1.391711917E1,-1.182211578E1,-2.261646881E0,-2.915786591E0,1.238463886E1
1.392718817E1,-1.278177017E1,-2.276016998E0,-3.257226562E0,1.338519432E1
1.393725817E1,-1.326092377E1,-2.343825989E0,-3.335064697E0,1.387329362E1
1.394732717E1,-1.360296249E1,-2.461032257E0,-3.173400879E0,1.418336143E1
1.395739717E1,-1.377001511E1,-2.613115997E0,-2.777623901E0,1.428834790E1
1.396746617E1,-1.391760818E1,-2.714455261E0,-2.456242218E0,1.439101146E1
1.397753517E1,-1.339519455E1,-2.681374054E0,-2.453398132E0,1.387948725E1
1.398760517E1,-1.252535339E1,-2.639910278E0,-2.625839539E0,1.306708220E1
1.399767417E1,-1.221909027E1,-2.687062225E0,-2.667303314E0,1.279222332E1
1.400774417E1,-1.279449371E1,-2.857557678E0,-2.367776184E0,1.332182680E1
1.401781317E1,-1.364846786E1,-2.765648804E0,-1.852846985E0,1.404857752E1
1.402788317E1,-1.389126297E1,-2.008523254E0,-1.224304047E0,1.408901249E1
1.403795217E1,-1.356464218E1,-8.978329468E-1,-3.844006348E-1,1.359975681E1
1.404802217E1,-1.273701324E1,-3.616479492E-1,3.182382202E-1,1.274611985E1
1.405809117E1,-1.157976974E1,-1.448986816E-1,6.144721985E-1,1.159696680E1
1.406816117E1,-1.037552399E1,7.634124756E-3,6.686595154E-1,1.039705063E1
1.407823017E1,-9.584568787E0,1.447489929E-1,7.499404907E-1,9.614953033E0
1.408829917E1,-9.308542786E0,2.956352234E-1,8.984317017E-1,9.356470943E0
1.409836917E1,-9.850715332E0,4.457730103E-1,1.234033813E0,9.937713297E0
1.410843817E1,-1.105645798E1,6.135740662E-1,1.517244873E0,1.117693018E1
1.411850817E1,-1.271261398E1,9.289682007E-1,1.659898224E0,1.285413546E1
1.412857717E1,-1.474224335E1,1.633702698E0,1.844464417E0,1.494673116E1
1.413864717E1,-1.641531418E1,2.624941406E0,1.857936401E0,1.672736634E1
1.414871617E1,-1.718830673E1,3.311563568E0,1.343007202E0,1.755585401E1
1.415878617E1,-1.677127396E1,3.819906464E0,6.032455444E-1,1.721136894E1
1.416885517E1,-1.525358002E1,4.015250244E0,-1.347198486E-2,1.577320891E1
1.417892417E1,-1.300884796E1,3.930077362E0,-7.722441101E-1,1.361146555E1
1.418899417E1,-1.111154343E1,3.802692261E0,-1.280736694E0,1.181385425E1
1.419906317E1,-9.853110352E0,3.702700195E0,-1.727258148E0,1.066663926E1
1.420913317E1,-9.340426483E0,3.626059570E0,-2.217339020E0,1.026199139E1
1.421920217E1,-9.074429626E0,3.507955170E0,-2.476749573E0,1.003918876E1
1.422927217E1,-8.519084473E0,3.349584503E0,-2.781216431E0,9.567114582E0
1.423934117E1,-7.882608032E0,3.084934845E0,-3.155438232E0,9.033776775E0
1.424941117E1,-7.224127350E0,2.742596741E0,-3.117267609E0,8.332299214E0
1.425948017E1,-6.499633942E0,2.422113190E0,-2.583178253E0,7.401667621E0
1.426955017E1,-6.040688324E0,2.188598785E0,-1.942211151E0,6.712083449E0
1.427961917E1,-5.592819672E0,1.960922241E0,-1.473236389E0,6.106985621E0
1.428968817E1,-4.957840118E0,1.640438690E0,-1.207688599E0,5.360012079E0
1.429975817E1,-4.524491272E0,1.371597748E0,-9.589059448E-1,4.824085640E0
1.430982717E1,-4.220922546E0,1.189426575E0,-6.956034851E-1,4.440133661E0
1.431989717E1,-4.078718262E0,8.936416626E-1,-5.496569824E-1,4.211491527E0
1.432996617E1,-4.248914337E0,6.875202942E-1,-4.159849548E-1,4.324234115E0
1.434003617E1,-4.353397064E0,5.424719238E-1,-1.836680603E-1,4.390908305E0
1.435010517E1,-4.450245667E0,3.878434753E-1,-5.957611084E-2,4.467511429E0
1.436017517E1,-4.538262634E0,2.788700867E-1,-3.442840576E-2,4.546952999E0
1.437024417E1,-4.782404938E0,2.670446777E-1,1.721420288E-2,4.789885821E0
1.438031417E1,-5.271437988E0,1.948947144E-1,9.445358276E-2,5.275885129E0
1.439038317E1,-5.734574890E0,1.893562317E-1,1.607656860E-1,5.739952139E0
1.440045217E1,-6.059848480E0,2.656974792E-1,1.396595764E-1,6.067278101E0
1.441052217E1,-6.194718018E0,4.052073669E-1,-1.326242065E-1,6.209373037E0
1.442059117E1,-6.118975525E0,7.188052368E-1,-7.343728638E-1,6.204663242E0
1.443066117E1,-5.978866882E0,1.166224823E0,-1.498833160E0,6.273231255E0
1.444073017E1,-5.945635986E0,1.669478302E0,-2.292782135E0,6.587457400E0
1.445080017E1,-6.290369110E0,2.021246796E0,-3.203039246E0,7.342590998E0
1.446086917E1,-7.024442596E0,2.207908630E0,-4.244723053E0,8.499136904E0
1.447093917E1,-7.824828186E0,2.192341003E0,-5.382956085E0,9.747333555E0
1.448100817E1,-8.823850708E0,2.013462982E0,-6.752308502E0,1.129194601E1
1.449107817E1,-1.010249176E1,1.825903015E0,-8.091872864E0,1.307182726E1
1.450114717E1,-1.166584076E1,1.639690247E0,-9.101373596E0,1.488675338E1
1.451121617E1,-1.310315186E1,1.256187744E0,-1.004605911E1,1.655880128E1
1.452128617E1,-1.361119537E1,7.436535645E-1,-1.105241638E1,1.754917571E1
1.453135517E1,-1.301678146E1,2.017803955E-1,-1.138667130E1,1.729547913E1
1.454142517E1,-1.207374252E1,5.059478760E-2,-1.070349197E1,1.613513430E1
1.455149417E1,-1.106184677E1,4.611909485E-1,-8.728349304E0,1.409827056E1
1.456156417E1,-1.003602997E1,1.136586456E0,-6.370901642E0,1.194161271E1
1.457163317E1,-9.083261261E0,1.682501221E0,-4.116290131E0,1.011337184E1
1.458170317E1,-8.542585602E0,2.135758667E0,-2.944826202E0,9.284892849E0
1.459177217E1,-8.581354980E0,2.717449036E0,-3.304827576E0,9.588851228E0
1.460184217E1,-8.948092346E0,3.522025909E0,-4.461921387E0,1.060102663E1
1.461191117E1,-9.943073273E0,4.580474854E0,-5.762117615E0,1.237123500E1
1.462198017E1,-1.212927704E1,5.713169403E0,-6.777905273E0,1.502330410E1
1.463205017E1,-1.326286972E1,6.426585846E0,-7.269483032E0,1.643320122E1
1.464211917E1,-1.298325119E1,6.382577362E0,-6.671476593E0,1.593143764E1
1.465218917E1,-1.305420364E1,5.992638245E0,-5.729036407E0,1.546433976E1
1.466225817E1,-1.296513885E1,4.820126495E0,-4.835095367E0,1.465286976E1
1.467232817E1,-1.141810593E1,3.516936493E0,-3.194357300E0,1.236712997E1
1.468239717E1,-9.013356628E0,3.197500763E0,-1.886676636E0,9.748033523E0
1.469246717E1,-6.986870728E0,3.607348480E0,-1.588347015E0,8.021980545E0
1.470253617E1,-6.915469208E0,3.801195374E0,-1.550775146E0,8.042244972E0
1.471260617E1,-8.088579712E0,3.645070038E0,-1.638343048E0,9.021963494E0
1.472267517E1,-9.094936981E0,3.239712982E0,-1.442400513E0,9.761871651E0
1.473274417E1,-9.402547302E0,2.703677673E0,-7.192543030E-1,9.809948801E0
1.474281417E1,-9.667196960E0,2.411934357E0,1.586700439E-2,9.963552387E0
1.475288317E1,-1.026999344E1,2.132166138E0,4.502636719E-1,1.049864920E1
1.476295317E1,-1.112785950E1,1.947001190E0,6.577322388E-1,1.131603651E1
1.477302217E1,-1.206985062E1,1.691183167E0,6.197113037E-1,1.220350099E1
1.478309217E1,-1.279898438E1,1.358874207E0,3.418890381E-1,1.287545837E1
1.479316117E1,-1.310135559E1,9.577084351E-1,-5.748046875E-2,1.313643893E1
1.480323117E1,-1.262564484E1,5.571414185E-1,-7.520361328E-1,1.266028722E1
1.481330004E1,-1.168125870E1,1.559756470E-1,-1.447789307E0,1.177167053E1
1.482337004E1,-1.117007172E1,-1.366658020E-1,-1.941911774E0,1.133843909E1
1.483343904E1,-1.080138840E1,-3.290158081E-1,-2.189197540E0,1.102591622E1
1.484350804E1,-1.003588028E1,-3.971241760E-1,-2.273322601E0,1.029779570E1
1.485357804E1,-9.137598267E0,-3.897894287E-1,-2.183209991E0,9.402874228E0
1.486364704E1,-8.358019409E0,-4.960684204E-1,-2.013912048E0,8.611527975E0
1.487371704E1,-7.697143707E0,-4.996609497E-1,-1.817370758E0,7.924551646E0
1.488378604E1,-7.086862793E0,-6.361770630E-1,-1.626517639E0,7.298897529E0
1.489385604E1,-6.646777954E0,-6.122268677E-1,-1.397942963E0,6.819730452E0
1.490392504E1,-6.390211487E0,-5.839356995E-1,-1.222058716E0,6.532167424E0
1.491399504E1,-6.185287628E0,-4.966671753E-1,-1.119821320E0,6.305431081E0
1.492406404E1,-6.121071167E0,-3.456312561E-1,-1.026116180E0,6.216099067E0
1.493413404E1,-6.166127472E0,-1.465452576E-1,-9.726773071E-1,6.244093582E0
1.494420304E1,-6.223158875E0,5.179229736E-2,-1.075214081E0,6.315573936E0
1.495427204E1,-6.303092651E0,2.432441711E-1,-1.232985992E0,6.427161049E0
1.496434204E1,-6.453529816E0,4.921765137E-1,-1.363664246E0,6.614368071E0
1.497441104E1,-6.508016510E0,7.354206848E-1,-1.431772614E0,6.704110328E0
1.498448104E1,-6.649622040E0,9.298663330E-1,-1.492695923E0,6.878245837E0
1.499455004E1,-6.993007965E0,1.053209839E0,-1.670376434E0,7.266468798E0
1.500462004E1,-7.453300781E0,8.494834900E-1,-2.011816406E0,7.766641487E0
1.501468904E1,-7.767198029E0,5.605842590E-1,-2.548899536E0,8.193931216E0
1.502475904E1,-7.933651886E0,1.896556091E-1,-2.995720367E0,8.482519792E0
1.503482804E1,-7.987240448E0,-1.713935852E-1,-3.202590179E0,8.607088334E0
1.504489804E1,-8.106542358E0,-5.315446472E-1,-3.260669403E0,8.753886775E0
1.505496704E1,-8.384065247E0,-9.864486694E-1,-3.128494263E0,9.002949927E0
1.506503604E1,-8.643775177E0,-1.385818176E0,-2.770289154E0,9.182039170E0
1.507510604E1,-8.943451996E0,-1.595831451E0,-2.540367279E0,9.433211412E0
1.508517504E1,-9.240135040E0,-1.692829742E0,-2.362237701E0,9.686378841E0
1.509524504E1,-9.420959015E0,-1.548679504E0,-2.247725830E0,9.808422318E0
1.510531404E1,-9.616901550E0,-1.240620117E0,-2.106419678E0,9.922748488E0
1.511538404E1,-1.000249969E1,-8.581654358E-1,-1.873054962E0,1.021248172E1
1.512545304E1,-1.056233551E1,-5.002597046E-1,-1.564845886E0,1.068933739E1
1.513552304E1,-1.107382187E1,-3.784130859E-1,-1.194366302E0,1.114447119E1
1.514559204E1,-1.120884109E1,-4.023632813E-1,-8.918453979E-1,1.125146227E1
1.515566204E1,-1.147828079E1,-7.291337585E-1,-7.930508423E-1,1.152872480E1
1.516573104E1,-1.203108124E1,-1.219064941E0,-6.688092041E-1,1.211116596E1
1.517580104E1,-1.270378235E1,-1.736987915E0,-3.734733582E-1,1.282741967E1
1.518587004E1,-1.337663315E1,-2.082918549E0,-1.020877075E-1,1.353821576E1
1.519593904E1,-1.383048935E1,-2.200424194E0,-5.343887329E-2,1.400454062E1
1.520600904E1,-1.379890503E1,-1.922452240E0,-5.432203674E-1,1.394276483E1
1.521607804E1,-1.328247894E1,-1.629062347E0,-1.594783630E0,1.347669937E1
1.522614804E1,-1.284389099E1,-1.531016235E0,-2.875071259E0,1.325049362E1
1.523621704E1,-1.343471237E1,-1.811981964E0,-3.849395142E0,1.409228931E1
1.524628704E1,-1.439032516E1,-2.081421661E0,-4.077520752E0,1.510099169E1
1.525635604E1,-1.472472977E1,-2.000140686E0,-3.261268158E0,1.521361559E1
1.526642604E1,-1.447115707E1,-1.659748535E0,-1.857038269E0,1.468392806E1
1.527649504E1,-1.384261414E1,-1.388662262E0,-9.526190186E-1,1.394467038E1
1.528656504E1,-1.274614426E1,-1.048419800E0,-5.325924683E-1,1.280027469E1
1.529663404E1,-1.156869278E1,-8.334667969E-1,-9.804611206E-2,1.159909189E1
1.530670304E1,-1.060020676E1,-6.873706055E-1,2.847079468E-1,1.062628440E1
1.531677304E1,-9.836644592E0,-4.703219604E-1,6.975494385E-1,9.872555637E0
1.532684204E1,-9.387428741E0,-2.697390747E-1,1.053958282E0,9.450259552E0
1.533691204E1,-9.666149139E0,-1.820214844E-1,1.519190826E0,9.786496399E0
1.534698104E1,-1.066202820E1,-2.933898926E-2,2.003583527E0,1.084868900E1
1.535705104E1,-1.205039108E1,1.883084106E-1,2.307451630E0,1.227076682E1
1.536712004E1,-1.359502899E1,5.519023132E-1,2.541115723E0,1.384148397E1
1.537719004E1,-1.484702545E1,1.106049957E0,2.627486115E0,1.511824046E1
1.538725904E1,-1.500285141E1,1.764530640E0,2.150877228E0,1.525861696E1
1.539732904E1,-1.410935944E1,2.499053192E0,1.575324097E0,1.441530217E1
1.540739804E1,-1.317066147E1,2.944077759E0,8.080197144E-1,1.351986735E1
1.541746704E1,-1.200353851E1,3.174897766E0,-5.613327026E-2,1.241644328E1
1.542753704E1,-1.061906754E1,3.345093842E0,-1.005908203E0,1.117882371E1
1.543760604E1,-9.711504822E0,3.592978363E0,-1.919009399E0,1.053116406E1
1.544767604E1,-9.202712860E0,3.770060120E0,-2.753673706E0,1.031920521E1
1.545774504E1,-8.572074280E0,3.759581909E0,-3.690725098E0,1.006162836E1
1.546781504E1,-7.825726318E0,3.452720032E0,-4.068838806E0,9.471996477E0
1.547788404E1,-7.395221558E0,3.001707916E0,-3.662134552E0,8.781274496E0
1.548795404E1,-7.151528320E0,2.715054016E0,-2.840792542E0,8.160023155E0
1.549802304E1,-6.772965546E0,2.501148834E0,-2.258802795E0,7.565117173E0
1.550809304E1,-6.169570312E0,2.293231201E0,-1.821562042E0,6.829392027E0
1.551816204E1,-5.667664032E0,2.039508820E0,-1.438957672E0,6.192948489E0
1.552823204E1,-5.362897797E0,1.839824066E0,-1.133143616E0,5.781837063E0
1.553830104E1,-5.220094757E0,1.600920868E0,-8.999285889E-1,5.533733673E0
1.554837004E1,-5.055586853E0,1.439406738E0,-7.247927856E-1,5.306239230E0
1.555844004E1,-5.057981873E0,1.231339417E0,-5.562432861E-1,5.235339910E0
1.556850904E1,-5.181475067E0,1.064436493E0,-4.146377563E-1,5.305905520E0
1.557857904E1,-5.243296509E0,8.300239563E-1,-3.008743286E-1,5.317106676E0
1.558864804E1,-5.201084290E0,5.224136353E-1,-2.588117981E-1,5.233658122E0
1.559871804E1,-5.210514679E0,2.029779053E-1,-3.291654968E-1,5.224845756E0
1.560878704E1,-5.390440521E0,1.309776306E-1,-2.487826538E-1,5.397767776E0
1.561885704E1,-5.582940216E0,1.405577087E-1,-5.239105225E-2,5.584955035E0
1.562892604E1,-5.655838623E0,1.746867371E-1,4.281097412E-2,5.658697621E0
1.563899604E1,-5.456153870E0,3.737727356E-1,-1.422042847E-2,5.468959986E0
1.564906504E1,-5.344486084E0,7.927514648E-1,-1.338217163E-1,5.404617899E0
1.565913504E1,-5.451663208E0,1.501078491E0,-4.028123474E-1,5.668873447E0
1.566920404E1,-5.572611694E0,2.367776184E0,-9.630972290E-1,6.130898909E0
1.567927304E1,-5.716761932E0,2.915038147E0,-1.565294952E0,6.605222379E0
1.568934304E1,-5.976771240E0,3.158132629E0,-2.356998596E0,7.158983066E0
1.569941204E1,-6.509064331E0,3.188220062E0,-3.609893188E0,8.097159654E0
1.570948204E1,-7.276069336E0,2.955154724E0,-5.181325378E0,9.408520452E0
1.571955104E1,-8.399632874E0,2.627486115E0,-6.770121460E0,1.110369579E1
1.572962104E1,-9.811347198E0,2.344275055E0,-8.346792755E0,1.309301755E1
1.573969004E1,-1.127979355E1,2.051483917E0,-9.418713684E0,1.483760413E1
1.574976004E1,-1.261097534E1,1.794917450E0,-9.695787506E0,1.600833293E1
1.575982904E1,-1.353350693E1,1.515897675E0,-9.772877197E0,1.676194751E1
1.576989904E1,-1.370460114E1,1.132694550E0,-9.919572144E0,1.695573651E1
1.577996804E1,-1.299163376E1,8.836125183E-1,-9.008117523E0,1.583380877E1
1.579003704E1,-1.147573608E1,1.096469879E0,-7.150779877E0,1.356570742E1
1.580010704E1,-1.017194733E1,1.389111328E0,-5.606291656E0,1.169737786E1
1.581017642E1,-9.710606689E0,1.806144104E0,-4.877606964E0,1.101585623E1
1.582024642E1,-1.008677444E1,2.587818604E0,-4.857698364E0,1.149073789E1
1.583031542E1,-1.137289993E1,3.709136810E0,-5.574258270E0,1.319745824E1
1.584038542E1,-1.318847443E1,5.079986115E0,-6.887776794E0,1.572207320E1
1.585045442E1,-1.442490326E1,5.981261902E0,-7.890541534E0,1.749611310E1
1.586052442E1,-1.406744659E1,6.327641602E0,-7.522756348E0,1.716170053E1
1.587059342E1,-1.285616547E1,6.172713776E0,-5.934858398E0,1.544687444E1
1.588066342E1,-1.276545410E1,5.292544098E0,-3.799698486E0,1.433197649E1
1.589073242E1,-1.247266296E1,3.914060669E0,-2.295326843E0,1.327236669E1
1.590080242E1,-1.048359924E1,2.730921021E0,-1.320553894E0,1.091364491E1
1.591087142E1,-7.464677124E0,2.906805267E0,-1.309776306E-1,8.011746162E0
1.592094042E1,-5.763913879E0,3.929927673E0,3.743714905E-1,6.986214192E0
1.593101042E1,-6.220015411E0,4.377047882E0,3.011737061E-1,7.611691368E0
1.594107942E1,-7.342680817E0,4.542753296E0,-2.653981018E-1,8.638402933E0
1.595114942E1,-8.123756561E0,4.581073608E0,-8.602610779E-1,9.365986611E0
1.596121842E1,-8.963061218E0,4.221820679E0,-6.336323547E-1,9.927825855E0
1.597128842E1,-9.420959015E0,3.822451172E0,-2.796185303E-1,1.017073194E1
1.598135742E1,-9.614207153E0,3.618724823E0,-7.589218140E-2,1.027296978E1
1.599142742E1,-9.969119110E0,3.393443298E0,8.397537231E-2,1.053118441E1
1.600149642E1,-1.050231033E1,3.125650177E0,6.286926270E-3,1.095756592E1
1.601156642E1,-1.091290649E1,2.721340942E0,-1.131646729E-1,1.124766780E1
1.602163542E1,-1.134505783E1,2.256707153E0,-2.353106689E-1,1.156972063E1
1.603170542E1,-1.159264297E1,1.656605072E0,-4.888833618E-1,1.172061084E1
1.604177442E1,-1.153411469E1,1.007405090E0,-8.449928284E-1,1.160881904E1
1.605184342E1,-1.175550430E1,7.472460938E-1,-1.227297821E0,1.184299447E1
1.606191342E1,-1.130808472E1,3.676354980E-1,-1.809437256E0,1.145783570E1
1.607198242E1,-1.039019348E1,1.004411316E-1,-2.273771667E0,1.063655238E1
1.608205242E1,-9.387877808E0,-9.280700684E-3,-2.448308716E0,9.701883911E0
1.609212142E1,-8.414002991E0,-1.010398865E-1,-2.605182495E0,8.808667959E0
1.610219142E1,-7.727380829E0,-3.153941345E-1,-2.652484131E0,8.176035714E0
1.611226042E1,-7.281907196E0,-5.315446472E-1,-2.504142609E0,7.718772074E0
1.612233042E1,-6.993906097E0,-5.739065552E-1,-2.203867035E0,7.355346432E0
1.613239942E1,-6.725963287E0,-5.807922363E-1,-1.963916016E0,7.030851149E0
1.614246942E1,-6.500681763E0,-5.999523926E-1,-1.829944611E0,6.779933888E0
1.615253842E1,-6.301895142E0,-5.020559692E-1,-1.681154022E0,6.541576371E0
1.616260842E1,-6.303691406E0,-2.863545227E-1,-1.581611023E0,6.505383746E0
1.617267742E1,-6.209686890E0,-9.669891357E-2,-1.438059540E0,6.374760951E0
1.618274742E1,-6.291117554E0,6.975494385E-2,-1.434467010E0,6.452962221E0
1.619281642E1,-6.510561218E0,1.583706665E-1,-1.567989349E0,6.698587855E0
1.620288542E1,-6.751859436E0,1.532812500E-1,-1.984273682E0,7.039065494E0
1.621295542E1,-6.934030609E0,2.136058044E-1,-2.535876617E0,7.386276338E0
1.622302442E1,-7.152725830E0,1.969903564E-1,-2.877765656E0,7.712446251E0
1.623309442E1,-7.530091095E0,5.493576050E-2,-2.847079468E0,8.050537332E0
1.624316342E1,-7.900121613E0,-1.618135071E-1,-2.564616852E0,8.307548658E0
1.625323342E1,-8.104895782E0,-3.396437073E-1,-2.179916840E0,8.399805410E0
1.626330242E1,-8.032895508E0,-4.337979126E-1,-1.909429321E0,8.268102031E0
1.627337242E1,-8.024662628E0,-5.318440247E-1,-1.804946594E0,8.242323736E0
1.628344142E1,-8.187523956E0,-5.804928589E-1,-1.704056396E0,8.383097798E0
1.629351142E1,-8.278085632E0,-5.227130127E-1,-1.478176117E0,8.425255798E0
1.630358042E1,-8.761580200E0,-3.450325012E-1,-1.204096069E0,8.850659997E0
1.631365042E1,-9.142687683E0,4.415817261E-2,-9.319619751E-1,9.190170898E0
1.632371942E1,-9.205556946E0,4.111949158E-1,-6.243516541E-1,9.235863518E0
1.633378842E1,-9.574839020E0,7.203021240E-1,-3.787124634E-1,9.609360048E0
1.634385842E1,-1.012868729E1,8.544232178E-1,-1.615141296E-1,1.016594472E1
1.635392742E1,-1.070498886E1,6.834786987E-1,-1.203497314E-1,1.072746073E1
1.636399742E1,-1.150522476E1,2.823129272E-1,-3.477268982E-1,1.151393987E1
1.637406642E1,-1.218810471E1,-2.793191528E-1,-6.249504089E-1,1.220731250E1
1.638413642E1,-1.279164963E1,-8.414002991E-1,-8.363108826E-1,1.284654314E1
1.639420542E1,-1.341330688E1,-1.312770081E0,-8.490344238E-1,1.350411146E1
1.640427542E1,-1.403107224E1,-1.687291260E0,-7.479945374E-1,1.415194106E1
1.641434442E1,-1.450094513E1,-1.818119202E0,-6.246510315E-1,1.462782130E1
1.642441442E1,-1.411938858E1,-1.694775696E0,-9.621990967E-1,1.425325316E1
1.643448342E1,-1.339519455E1,-1.520538025E0,-1.955084381E0,1.362224753E1
1.644455242E1,-1.356733658E1,-1.510359192E0,-2.984493713E0,1.397358256E1
1.645462242E1,-1.465871704E1,-1.601070557E0,-3.654201050E0,1.519192541E1
1.646469142E1,-1.521451126E1,-1.417103119E0,-3.535946960E0,1.568414662E1
1.647476142E1,-1.455453369E1,-8.839118958E-1,-2.330503693E0,1.476641455E1
1.648483042E1,-1.354787704E1,-5.532495117E-1,-8.611592102E-1,1.358648787E1
1.649490042E1,-1.227926514E1,-6.879693604E-1,-1.770817566E-1,1.229979724E1
1.650496942E1,-1.103056183E1,-4.863386536E-1,2.171983337E-1,1.104341409E1
1.651503942E1,-1.002719833E1,2.016307068E-1,8.238867188E-1,1.006300903E1
1.652510842E1,-9.573042755E0,7.860154724E-1,1.382974091E0,9.704307562E0
1.653517842E1,-1.021835083E1,1.025068359E0,1.979184265E0,1.045861507E1
