"Time (s)","Acceleration x (m/s^2)","Acceleration y (m/s^2)","Acceleration z (m/s^2)","Absolute acceleration (m/s^2)"
1.252666581E-3,-9.081614685E-1,4.158352661E-1,6.137686615E0,6.218430124E0
1.132266666E-2,-8.009843445E-1,1.640588379E-1,6.065237274E0,6.120097582E0
2.139166661E-2,-6.676116943E-1,-1.481918335E-1,6.218069458E0,6.255561844E0
3.146166669E-2,-5.812413025E-1,-3.606001282E-1,6.798262939E0,6.832587570E0
4.153066664E-2,-8.485853577E-1,-2.230361938E-1,7.341782684E0,7.394025645E0
5.160066660E-2,-1.238524475E0,5.134323120E-2,7.818241882E0,7.915900778E0
6.166966667E-2,-1.480870514E0,3.778143311E-1,8.228688354E0,8.369410564E0
7.173966663E-2,-1.774559784E0,6.617738342E-1,8.380173340E0,8.591525606E0
8.180866658E-2,-2.061063995E0,8.469387817E-1,8.559500427E0,8.844791555E0
9.187866666E-2,-2.217039642E0,1.157393188E0,8.771609344E0,9.121181626E0
1.019476666E-1,-2.225871277E0,1.554816742E0,8.951834564E0,9.354533666E0
1.120176667E-1,-2.196232910E0,1.864522705E0,9.043294373E0,9.491104099E0
1.220866666E-1,-2.207908630E0,2.114053802E0,9.135203247E0,9.633069208E0
1.321566666E-1,-2.259401550E0,2.252366180E0,9.392667847E0,9.919690421E0
1.422256667E-1,-2.334545288E0,2.282603302E0,9.827513580E0,1.035569422E1
1.522956666E-1,-2.409239960E0,2.312091980E0,1.019709503E1,1.072990930E1
1.623646666E-1,-2.386187897E0,2.334694977E0,1.047566574E1,1.099473811E1
1.724346667E-1,-2.224524078E0,2.455643463E0,1.068223618E1,1.118431321E1
1.825036666E-1,-2.043400726E0,2.449206848E0,1.087099365E1,1.132928081E1
1.925736666E-1,-1.963017883E0,2.253264313E0,1.102592148E1,1.142372898E1
2.026426666E-1,-1.883832550E0,2.061513062E0,1.111363907E1,1.145912887E1
2.127126666E-1,-1.815275116E0,1.997595978E0,1.115689911E1,1.147876349E1
2.227816667E-1,-1.782792664E0,2.151176605E0,1.112037506E1,1.146597802E1
2.328506666E-1,-1.806293793E0,2.426454163E0,1.118504059E1,1.158686800E1
2.429206666E-1,-1.910327454E0,2.716251526E0,1.139580231E1,1.186978027E1
2.529896667E-1,-1.942809906E0,2.973865814E0,1.172616531E1,1.225240145E1
2.630596666E-1,-1.817221069E0,3.118465118E0,1.225935654E1,1.277962988E1
2.731286667E-1,-1.506916351E0,3.049608307E0,1.281185760E1,1.325573849E1
2.831986666E-1,-9.894424438E-1,2.821482697E0,1.318922287E1,1.352388113E1
2.932676666E-1,-2.769241333E-1,2.406545563E0,1.318428314E1,1.340497932E1
3.033376667E-1,5.556445312E-1,1.907932434E0,1.273506729E1,1.288917709E1
3.134066666E-1,1.023571472E0,1.449286194E0,1.191926376E1,1.205060072E1
3.234766666E-1,1.067879333E0,1.146316223E0,1.104732697E1,1.115786002E1
3.335456667E-1,1.253343658E0,1.192869415E0,1.009171417E1,1.023896981E1
3.436156666E-1,1.822310486E0,1.346899109E0,9.364526367E0,9.634796666E0
3.536846667E-1,2.093247070E0,1.416654053E0,8.801247711E0,9.156994773E0
3.637546666E-1,2.255509644E0,1.419049072E0,8.450826416E0,8.861009600E0
3.738236666E-1,2.465223541E0,1.148112488E0,8.415499878E0,8.843988217E0
3.838936667E-1,2.208806763E0,1.042881317E0,8.735833740E0,9.070899619E0
3.939621666E-1,1.135987701E0,1.041534119E0,9.944420471E0,1.006313867E1
4.040321666E-1,1.809736633E-1,1.002615051E0,1.099209183E1,1.103920609E1
4.141011667E-1,-7.855664063E-1,7.451504517E-1,1.148441803E1,1.153534660E1
4.241711666E-1,-1.649270325E0,4.772076416E-1,1.155147858E1,1.167837647E1
4.342401667E-1,-2.279010773E0,2.823129272E-1,1.131497040E1,1.154565484E1
4.443101666E-1,-3.005300446E0,2.040257263E-1,1.116632950E1,1.156548191E1
4.543791666E-1,-3.533851318E0,3.215313721E-1,1.069106781E1,1.126456473E1
4.644491667E-1,-3.601809998E0,7.134164429E-1,9.705517273E0,1.037685231E1
4.745181666E-1,-2.972368927E0,1.079555054E0,8.694220276E0,9.251480009E0
4.845881666E-1,-2.121837616E0,1.292562103E0,8.087531891E0,8.460560486E0
4.946571667E-1,-1.495689697E0,1.547931061E0,7.574398956E0,7.874306178E0
5.047271666E-1,-1.100062408E0,1.642384644E0,7.088509369E0,7.358976131E0
5.147961667E-1,-9.318122864E-1,1.545386353E0,7.112908630E0,7.338253355E0
5.248661666E-1,-7.708969116E-1,1.176403656E0,7.475005646E0,7.606176241E0
5.349351666E-1,-6.792874146E-1,7.696994019E-1,7.689210205E0,7.757436570E0
5.450051667E-1,-6.637197876E-1,4.704716492E-1,7.532635803E0,7.576441755E0
5.550741666E-1,-7.086264038E-1,2.050735474E-1,7.442223816E0,7.478696535E0
5.651441666E-1,-8.749305725E-1,-5.987548828E-4,7.382348328E0,7.434014440E0
5.752131667E-1,-9.690847778E-1,-2.258802795E-1,7.425608368E0,7.491982838E0
5.852831666E-1,-1.051413574E0,-4.668791199E-1,7.532186737E0,7.619533034E0
5.953521667E-1,-1.112187195E0,-7.831713867E-1,7.715854797E0,7.834840970E0
6.054221666E-1,-1.153650970E0,-1.057999878E0,7.962092743E0,8.114505231E0
6.154911666E-1,-1.167871399E0,-1.158441010E0,8.058192902E0,8.224377303E0
6.255611667E-1,-1.080303497E0,-1.163530426E0,8.086783447E0,8.241172564E0
6.356301666E-1,-8.451425171E-1,-1.183139648E0,8.170459442E0,8.298824784E0
6.457001666E-1,-4.737648010E-1,-1.138083344E0,8.079299011E0,8.172806085E0
6.557691667E-1,-1.453477478E-1,-1.030606842E0,7.944878540E0,8.012763034E0
6.658391666E-1,1.031355286E-1,-8.440946960E-1,8.006550293E0,8.051582477E0
6.759081667E-1,2.007325745E-1,-6.506968689E-1,8.333171082E0,8.360947330E0
6.859781666E-1,8.412506104E-2,-4.430786133E-1,8.745413818E0,8.757034803E0
6.960471666E-1,-2.649490356E-1,-1.686991882E-1,9.026229858E0,9.031693245E0
7.061171667E-1,-6.848258972E-1,1.169068909E-1,9.160350952E0,9.186657896E0
7.161861666E-1,-1.127305756E0,3.266207886E-1,9.258846130E0,9.332937966E0
7.262561666E-1,-1.539548492E0,4.694238281E-1,9.346414032E0,9.483987745E0
7.363251667E-1,-1.860481110E0,5.357359314E-1,9.327104187E0,9.525926488E0
7.463951666E-1,-2.120640106E0,4.864883423E-1,9.389973450E0,9.638744044E0
7.564641667E-1,-2.193388824E0,4.089495850E-1,9.727222137E0,9.979831903E0
7.665341666E-1,-2.068997498E0,2.721340942E-1,1.066636917E1,1.086858955E1
7.766031666E-1,-1.465302887E0,1.258882141E-1,1.186582489E1,1.195661995E1
7.866721667E-1,-3.442840576E-1,5.284011841E-2,1.284359161E1,1.284831386E1
7.967421666E-1,5.599855042E-1,-2.649490356E-2,1.384081787E1,1.385216680E1
8.068111666E-1,7.692503357E-1,-2.923420715E-1,1.421294403E1,1.423674780E1
8.168811667E-1,5.059478760E-2,-6.740483093E-1,1.398751282E1,1.400383575E1
8.269501666E-1,-8.264314270E-1,-6.653663635E-1,1.318143906E1,1.322407036E1
8.370201667E-1,-1.072220306E0,-5.075944519E-1,1.242416382E1,1.248067126E1
8.470891666E-1,-7.768844604E-1,-4.043092346E-1,1.226953537E1,1.230075256E1
8.571591666E-1,1.796264648E-3,-1.930984497E-1,1.269974075E1,1.270120882E1
8.672281667E-1,9.331594849E-1,2.080673218E-2,1.332169739E1,1.335435662E1
8.772981666E-1,1.539698181E0,7.604187012E-2,1.359083771E1,1.367798678E1
8.873671666E-1,1.743574219E0,-7.888595581E-2,1.340462494E1,1.351777511E1
8.974371667E-1,1.585353241E0,-2.935395813E-1,1.268806503E1,1.279009401E1
9.075061666E-1,1.391656036E0,-2.865042114E-1,1.166329605E1,1.174952195E1
9.175761667E-1,1.373094635E0,-1.556762695E-2,1.093955109E1,1.102539837E1
9.276451666E-1,1.381327515E0,9.909393311E-2,1.030726593E1,1.039988540E1
9.377151666E-1,1.358125763E0,1.425036621E-1,9.801767120E0,9.896436306E0
9.477841667E-1,1.141526184E0,1.071771240E-1,9.753567352E0,9.820725282E0
9.578541666E-1,8.626560974E-1,-1.619631958E-1,9.999954987E0,1.003840163E1
9.679231666E-1,7.018904114E-1,-4.174818420E-1,1.040725800E1,1.043925094E1
9.779931667E-1,7.488926697E-1,-6.048921204E-1,1.059751236E1,1.064114669E1
9.880621666E-1,1.055305481E0,-8.117619324E-1,1.097652420E1,1.105697565E1
9.981321667E-1,1.176703033E0,-7.671546936E-1,1.113923584E1,1.122745436E1
1.008201167E0,9.979747009E-1,-5.408253479E-1,1.078207855E1,1.084166332E1
1.018271167E0,6.222560120E-1,-2.800675964E-1,1.020757324E1,1.023035639E1
1.028340167E0,3.989204407E-1,-5.703140259E-2,9.476493530E0,9.485057708E0
1.038410167E0,1.960922241E-1,1.378633118E-1,8.695417786E0,8.698721108E0
1.048479167E0,2.507286072E-1,2.342628479E-1,8.292605438E0,8.299701734E0
1.058549167E0,4.966671753E-1,8.427474976E-2,8.245902557E0,8.261276506E0
1.068618167E0,6.456074524E-1,-2.137554932E-1,8.138276367E0,8.166642065E0
1.078688167E0,4.384382629E-1,-5.261558533E-1,8.194709015E0,8.223279390E0
1.088757167E0,9.744735718E-2,-6.918612671E-1,8.282276917E0,8.311695310E0
1.098827167E0,-1.172062683E-1,-6.894662476E-1,7.968229980E0,7.998861796E0
1.108896167E0,-3.558100891E-1,-4.354444885E-1,7.628286896E0,7.648985141E0
1.118965167E0,-3.526666260E-1,-1.338217163E-1,7.153025208E0,7.162963885E0
1.129035167E0,-3.921844482E-1,9.445358276E-2,6.720275116E0,6.732371629E0
1.139104167E0,-1.244362335E0,-3.227288818E-1,6.121669922E0,6.255192578E0
1.149174167E0,-1.404828644E0,-4.763095093E-1,5.576802979E0,5.770714490E0
1.159243167E0,-6.024971008E-1,-2.844085693E-1,5.668861542E0,5.707878955E0
1.169313167E0,-3.454815674E-1,-3.724255371E-1,5.724396057E0,5.746892074E0
1.179382167E0,-4.667294312E-1,-4.713697815E-1,5.924380188E0,5.961401383E0
1.189452167E0,-6.634204102E-1,-5.938151550E-1,6.250851288E0,6.313943689E0
1.199521167E0,-8.607101440E-1,-1.056502991E0,6.534361725E0,6.674945968E0
1.209591167E0,-7.220983887E-1,-1.891915741E0,6.916816406E0,7.207157585E0
1.219660167E0,-5.987548828E-4,-1.366508331E0,7.282955017E0,7.410045827E0
1.229730167E0,-4.451742554E-1,-9.830058289E-1,7.594756622E0,7.671037005E0
1.239799167E0,-1.025068359E0,-4.583468628E-1,7.997868347E0,8.076307639E0
1.249869167E0,-1.297501831E0,-6.152206421E-2,8.729247437E0,8.825364399E0
1.259938167E0,-1.429826660E0,-9.580078125E-3,9.515262909E0,9.622095628E0
1.270008167E0,-1.509610748E0,-1.926493835E-1,9.838440857E0,9.955448603E0
1.280077167E0,-1.459465027E0,-3.065625000E-1,9.987830200E0,1.009855291E1
1.290147167E0,-1.242266693E0,-2.345622253E-1,1.004022125E1,1.011950042E1
1.300216167E0,-1.363065491E0,-1.475930786E-1,1.010548553E1,1.019806693E1
1.310286167E0,-1.610650635E0,7.244934082E-2,1.045201492E1,1.057563522E1
1.320355167E0,-1.680106201E0,1.483415222E-1,1.107112747E1,1.119886715E1
1.330425167E0,-1.566492462E0,1.206491089E-1,1.166509232E1,1.177042198E1
1.340494167E0,-1.350641327E0,1.146615601E-1,1.178484329E1,1.186254234E1
1.350564167E0,-1.090482330E0,1.610650635E-1,1.155132889E1,1.160380510E1
1.360633167E0,-7.125183105E-1,1.445993042E-1,1.136182297E1,1.138506093E1
1.370703167E0,-3.574566650E-1,8.816665649E-2,1.125075394E1,1.125677630E1
1.380772167E0,-1.004411316E-1,9.056167603E-2,1.127665009E1,1.127746102E1
1.390841292E0,-6.721023560E-2,-1.571731567E-2,1.170940018E1,1.170960361E1
1.400911292E0,-3.601510620E-1,-1.465452576E-1,1.230531097E1,1.231145249E1
1.410980292E0,-7.090754700E-1,-1.142124939E-1,1.276410690E1,1.278429730E1
1.421050292E0,-7.318281555E-1,1.532812500E-1,1.315868637E1,1.317991254E1
1.431119292E0,-5.327421570E-1,4.816983032E-1,1.338741074E1,1.340666303E1
1.441189292E0,-2.251318359E-1,7.852670288E-1,1.342692856E1,1.345175599E1
1.451258292E0,2.619552612E-2,9.400451660E-1,1.342258759E1,1.345549065E1
1.461328292E0,1.791773987E-1,1.001118164E0,1.363978592E1,1.367764973E1
1.471397292E0,2.739303589E-1,9.747729492E-1,1.377809830E1,1.381525291E1
1.481467292E0,4.951702881E-1,7.795788574E-1,1.369756577E1,1.372866507E1
1.491536292E0,8.692424011E-1,6.511459351E-1,1.353979385E1,1.358328351E1
1.501606292E0,1.134191437E0,6.444099426E-1,1.322739349E1,1.329156097E1
1.511675292E0,1.207838287E0,5.755531311E-1,1.277563293E1,1.284550239E1
1.521745292E0,1.159039764E0,4.800517273E-1,1.212328949E1,1.218802572E1
1.531814292E0,1.286424866E0,3.144960022E-1,1.146076721E1,1.153702656E1
1.541884292E0,1.169068909E0,1.775308228E-1,1.110420868E1,1.116699108E1
1.551953292E0,8.129594421E-1,2.550695801E-1,1.055140823E1,1.058575360E1
1.562023292E0,6.959028625E-1,7.158114624E-1,9.943672028E0,9.993662003E0
1.572092292E0,8.665480042E-1,9.288185120E-1,9.762848053E0,9.845141511E0
1.582162292E0,9.720785522E-1,1.085692291E0,9.918674011E0,1.002515629E1
1.592231292E0,7.963439941E-1,1.281634827E0,1.012569351E1,1.023750070E1
1.602301292E0,6.382727051E-1,1.342109070E0,9.752519531E0,9.865104460E0
1.612370292E0,5.203179932E-1,1.195863190E0,8.999285889E0,9.093292368E0
1.622439292E0,5.038522339E-1,1.027463379E0,8.319399719E0,8.397735395E0
1.632509292E0,8.342152405E-1,9.045689392E-1,7.965385895E0,8.059871741E0
1.642578292E0,8.955876160E-1,8.119116211E-1,7.749983826E0,7.843693451E0
1.652648292E0,7.231462097E-1,8.827143860E-1,7.676786041E0,7.761131944E0
1.662717292E0,3.701802063E-1,9.725276184E-1,7.929909668E0,7.997894141E0
1.672787292E0,3.519181824E-1,1.253193970E0,8.020770721E0,8.125706400E0
1.682856292E0,-1.814227295E-1,1.286125488E0,7.932903442E0,8.038531583E0
1.692926292E0,-1.228944397E0,1.146166534E0,7.873626709E0,8.050962651E0
1.702995292E0,-1.645079041E0,1.007105713E0,7.813751221E0,8.048307593E0
1.713065292E0,-1.352886658E0,7.232958984E-1,7.581883392E0,7.735529396E0
1.723134292E0,-9.346563721E-1,5.113366699E-1,7.288942566E0,7.366392024E0
1.733204292E0,-6.872209167E-1,3.451821899E-1,6.963369598E0,7.005707637E0
1.743273292E0,-6.730004883E-1,-5.987548828E-4,6.349346466E0,6.384914296E0
1.753343292E0,-6.120771790E-1,-2.450404358E-1,5.854774933E0,5.891780105E0
1.763412292E0,-1.025816803E0,-3.754193115E-1,6.061195679E0,6.158841841E0
1.773482292E0,-1.571881256E0,-7.457492065E-1,7.585475922E0,7.782441617E0
1.783551292E0,-1.717378693E0,-1.794767761E-1,7.631729736E0,7.824634193E0
1.793621292E0,-1.334924011E0,1.344204712E-1,7.008575592E0,7.135840722E0
1.803690292E0,-9.791139221E-1,5.044509888E-1,6.491251373E0,6.584032143E0
1.813760292E0,-9.717791748E-1,9.361532593E-1,6.379284210E0,6.520429796E0
1.823829292E0,-1.135838013E0,1.060394897E0,6.722670135E0,6.899917324E0
1.833898292E0,-1.128054199E0,1.235680389E0,6.889273682E0,7.089534834E0
1.843968292E0,-1.108894043E0,1.278491364E0,7.441026306E0,7.631058816E0
1.854037292E0,-1.162033539E0,1.221609650E0,8.022716675E0,8.197965292E0
1.864107292E0,-1.122066650E0,9.999206543E-1,8.361611938E0,8.495612344E0
1.874176292E0,-1.196162567E0,7.241940308E-1,8.790320435E0,8.900842388E0
1.884246292E0,-1.357676697E0,5.460644531E-1,9.162147217E0,9.278276458E0
1.894315292E0,-1.466350708E0,4.897814941E-1,9.537416840E0,9.661904071E0
1.904385292E0,-1.737736359E0,5.623805237E-1,9.789492645E0,9.958421851E0
1.914454292E0,-2.039209442E0,8.466394043E-1,9.948611755E0,1.019068444E1
1.924524292E0,-2.180365906E0,1.249302063E0,1.007240433E1,1.038114060E1
1.934593292E0,-2.200124817E0,1.649569702E0,1.031983978E1,1.067992147E1
1.944663292E0,-2.145039368E0,1.923949127E0,1.058823166E1,1.097330505E1
1.954732292E0,-1.928589478E0,1.940115509E0,1.082503922E1,1.116534727E1
1.964802292E0,-1.678759003E0,1.757046204E0,1.138831787E1,1.164470812E1
1.974871292E0,-1.425485687E0,1.498084717E0,1.218720657E1,1.236140248E1
1.984941292E0,-1.126557312E0,1.279090118E0,1.297861084E1,1.309005509E1
1.995010292E0,-8.273295593E-1,1.047671356E0,1.348096619E1,1.354690145E1
2.005080292E0,-5.789959717E-1,7.334747314E-1,1.360266312E1,1.363472278E1
2.015149292E0,-3.803590393E-1,4.860392761E-1,1.340911560E1,1.342331138E1
2.025218292E0,-4.218228149E-1,3.847000122E-1,1.302905594E1,1.304155770E1
2.035288292E0,-6.107299805E-1,4.019142151E-1,1.268387375E1,1.270492737E1
2.045357292E0,-6.794371033E-1,2.511776733E-1,1.242161911E1,1.244272262E1
2.055427292E0,-5.162763977E-1,1.020877075E-1,1.250125351E1,1.251232602E1
2.065496292E0,2.874023438E-1,8.831634521E-2,1.288475601E1,1.288826355E1
2.075566292E0,1.437610474E0,-7.080276489E-2,1.317185898E1,1.325026814E1
2.085635292E0,1.101259918E0,-1.624122620E-1,1.326122314E1,1.330786198E1
2.095705292E0,1.191372528E0,1.041833496E-1,1.296454010E1,1.301958228E1
2.105774292E0,1.493294678E0,5.858816528E-1,1.260004807E1,1.270174781E1
2.115844292E0,1.237177277E0,9.638456726E-1,1.236563553E1,1.246469206E1
2.125913292E0,1.061442719E0,1.333127747E0,1.182196609E1,1.194415223E1
2.135983292E0,1.054856415E0,1.241368561E0,1.109148514E1,1.121047548E1
2.146052292E0,9.392967224E-1,9.801617432E-1,1.054886353E1,1.063585996E1
2.156122292E0,7.957452393E-1,7.607180786E-1,1.016566040E1,1.022509432E1
2.166191292E0,7.650590515E-1,5.736071777E-1,9.973160706E0,1.001889590E1
2.176261292E0,7.002438354E-1,4.209246826E-1,1.001058289E1,1.004386822E1
2.186330292E0,6.950047302E-1,2.264790344E-1,9.967322845E0,9.994090706E0
2.196399292E0,8.077203369E-1,-8.966354370E-2,9.928852844E0,9.962056540E0
2.206469292E0,7.194039917E-1,-3.296145630E-1,9.841734009E0,9.873495641E0
2.216538292E0,6.050418091E-1,-5.057981873E-1,9.521250458E0,9.553853551E0
2.226608292E0,5.462141418E-1,-6.825805664E-1,9.178014221E0,9.219555909E0
2.236677292E0,4.408332825E-1,-7.903564453E-1,8.903335419E0,8.949211075E0
2.246747292E0,3.020718384E-1,-8.312214661E-1,8.671317902E0,8.716302580E0
2.256816292E0,2.077679443E-1,-8.140072632E-1,8.553213501E0,8.594372376E0
2.266886292E0,1.193019104E-1,-7.843688965E-1,8.485105133E0,8.522116910E0
2.276955292E0,-1.077758789E-2,-7.415579224E-1,8.448132019E0,8.480622555E0
2.287025292E0,-1.131646729E-1,-6.963519287E-1,8.305029602E0,8.334940248E0
2.297094292E0,-2.119592285E-1,-6.286926270E-1,8.055049438E0,8.082326558E0
2.307164292E0,-3.246748352E-1,-5.060975647E-1,7.795638885E0,7.818793649E0
2.317233292E0,-4.339476013E-1,-4.016148376E-1,7.509284363E0,7.532526577E0
2.327303292E0,-4.682263184E-1,-3.739224243E-1,7.326364746E0,7.350828134E0
2.337372292E0,-5.589376831E-1,-4.504133606E-1,7.396718445E0,7.431468716E0
2.347441292E0,-6.819818115E-1,-4.700225830E-1,7.311994629E0,7.358755729E0
2.357511292E0,-6.626719666E-1,-4.409829712E-1,7.034621429E0,7.079512608E0
2.367580292E0,-6.577322388E-1,-3.728746033E-1,6.799759827E0,6.841665065E0
2.377650292E0,-7.954458618E-1,-2.418969727E-1,6.713838501E0,6.765122001E0
2.387719958E0,-8.089178467E-1,-4.730163574E-2,6.729705505E0,6.778312601E0
2.397789958E0,-9.148974609E-1,1.556762695E-1,6.805447998E0,6.868434677E0
2.407858958E0,-1.027912445E0,3.197351074E-1,6.867568817E0,6.951426903E0
2.417928958E0,-1.103654938E0,3.683839417E-1,7.048542480E0,7.143928335E0
2.427997958E0,-1.215622101E0,2.763253784E-1,7.427105255E0,7.531001612E0
2.438067958E0,-1.306782532E0,2.463876343E-1,7.940088501E0,8.050676546E0
2.448136958E0,-1.318607941E0,1.679507446E-1,8.426127777E0,8.530331979E0
2.458206958E0,-1.309776306E0,-7.155120850E-2,9.047934723E0,9.142524613E0
2.468275958E0,-1.264270935E0,-2.362088013E-1,9.572743378E0,9.658757237E0
2.478345958E0,-1.167572021E0,-1.294807434E-1,9.826465759E0,9.896434661E0
2.488414958E0,-1.040785675E0,1.425036621E-1,1.003498215E1,1.008981709E1
2.498483958E0,-9.851014709E-1,4.543052673E-1,1.013991394E1,1.019777784E1
2.508553958E0,-9.324110413E-1,7.168592834E-1,1.006222549E1,1.013072848E1
2.518622958E0,-9.726773071E-1,9.177415466E-1,9.971364441E0,1.006063912E1
2.528692958E0,-1.002016296E0,9.898915100E-1,1.008333160E1,1.018123264E1
2.538761958E0,-9.154962158E-1,8.449928284E-1,1.045440994E1,1.052838228E1
2.548831958E0,-9.108558655E-1,6.261479187E-1,1.082518890E1,1.088147207E1
2.558900958E0,-7.860154724E-1,3.812571716E-1,1.122186401E1,1.125581669E1
2.568970958E0,-5.860313416E-1,2.436932373E-1,1.168290527E1,1.170013225E1
2.579039958E0,-3.906875610E-1,1.926493835E-1,1.207239532E1,1.208025163E1
2.589109958E0,-4.700225830E-2,2.198927307E-1,1.231623825E1,1.231829074E1
2.599178958E0,1.401086426E-1,4.599934387E-1,1.260917908E1,1.261834464E1
2.609248958E0,1.484912109E-1,7.548802185E-1,1.281365387E1,1.283672931E1
2.619317958E0,5.089416504E-2,9.785151672E-1,1.268821472E1,1.272599210E1
2.629387958E0,9.654922485E-2,1.175206146E0,1.246293320E1,1.251859158E1
2.639456958E0,2.727328491E-1,1.398841095E0,1.236578522E1,1.244764169E1
2.649525958E0,3.001258850E-1,1.662891998E0,1.228076202E1,1.239646729E1
2.659595958E0,3.559597778E-1,1.810934143E0,1.204140976E1,1.218202524E1
2.669664958E0,4.812492371E-1,1.672771454E0,1.169248535E1,1.182133575E1
2.679734958E0,6.294410706E-1,1.386416931E0,1.136062546E1,1.146220567E1
2.689803958E0,6.891668701E-1,1.121168518E0,1.086246140E1,1.094189368E1
2.699873958E0,6.161187744E-1,9.773176575E-1,1.010803024E1,1.017384035E1
2.709942958E0,5.634283447E-1,8.666976929E-1,9.437724152E0,9.494169450E0
2.720012958E0,6.863227844E-1,7.244934082E-1,9.059460754E0,9.114261288E0
2.730081958E0,7.536827087E-1,5.501060486E-1,8.729247437E0,8.778975743E0
2.740151958E0,9.545649719E-1,4.945715332E-1,8.679251404E0,8.745581754E0
2.750220958E0,1.239422607E0,5.025050354E-1,9.029523010E0,9.128031853E0
2.760290958E0,1.595831451E0,6.319857788E-1,9.917925568E0,1.006535303E1
2.770359958E0,1.885628815E0,9.214837646E-1,1.100840790E1,1.120668429E1
2.780429958E0,2.081571350E0,1.227597198E0,1.170550827E1,1.195235784E1
2.790498958E0,2.118993530E0,1.491199036E0,1.192450287E1,1.220276923E1
2.800567958E0,1.949695587E0,1.643731842E0,1.159803177E1,1.187507929E1
2.810637958E0,1.817071381E0,1.691033478E0,1.096859070E1,1.124594703E1
2.820706958E0,1.609752502E0,1.666334839E0,1.048329987E1,1.073627268E1
2.830776958E0,1.324296112E0,1.587299194E0,1.011895752E1,1.032795140E1
2.840845958E0,9.900411987E-1,1.520837402E0,9.851763153E0,1.001750294E1
2.850915958E0,6.045927429E-1,1.411115570E0,9.502239990E0,9.625452944E0
2.860984958E0,3.390449524E-1,1.323248291E0,9.116043091E0,9.217818568E0
2.871054958E0,1.016386414E-1,1.278042297E0,8.805738373E0,8.898581394E0
2.881123958E0,-9.445358276E-2,1.341510315E0,8.483009491E0,8.588947632E0
2.891193958E0,-2.797682190E-1,1.438957672E0,8.070467377E0,8.202518706E0
2.901262958E0,-4.782554626E-1,1.479523315E0,7.613617401E0,7.770771355E0
2.911332958E0,-6.212081909E-1,1.368005219E0,7.353308716E0,7.505230640E0
2.921401958E0,-7.822732544E-1,1.158441010E0,7.201823730E0,7.336225328E0
2.931470958E0,-1.003363495E0,8.650511169E-1,6.942263489E0,7.067536635E0
2.941540958E0,-1.224453735E0,5.361849976E-1,6.675967255E0,6.808474138E0
2.951609958E0,-1.429227905E0,2.896476746E-1,6.590045929E0,6.749466166E0
2.961679958E0,-1.488504639E0,3.382965088E-2,6.651268616E0,6.815875931E0
2.971748958E0,-1.516496429E0,-2.216889954E-1,6.826404419E0,6.996335092E0
2.981818958E0,-1.573976898E0,-4.206253052E-1,6.981931000E0,7.169497152E0
2.991887958E0,-1.525328064E0,-2.948867798E-1,7.198380890E0,7.364120542E0
3.001957958E0,-1.404080200E0,-6.646179199E-2,7.475155334E0,7.606168921E0
3.012026958E0,-1.269659729E0,1.710942078E-1,7.829318848E0,7.933444565E0
3.022096958E0,-1.242416382E0,3.483256531E-1,8.111182709E0,8.213173209E0
3.032165958E0,-1.144969025E0,4.061054993E-1,8.349187775E0,8.437109235E0
3.042234958E0,-1.007704468E0,4.529580688E-1,8.826844482E0,8.895719354E0
3.052304958E0,-1.005309448E0,5.113366699E-1,9.410480804E0,9.477829986E0
3.062373958E0,-9.903405762E-1,5.689668274E-1,9.791887665E0,9.858273771E0
3.072443958E0,-8.762777710E-1,6.065386963E-1,1.009006760E1,1.014619219E1
3.082512958E0,-8.177494812E-1,6.833290100E-1,1.046428940E1,1.051841268E1
3.092582958E0,-9.461824036E-1,6.891668701E-1,1.068463120E1,1.074856064E1
3.102651958E0,-9.750723267E-1,6.809339905E-1,1.079001205E1,1.085535800E1
3.112721958E0,-1.097667389E0,7.321275330E-1,1.073462723E1,1.081541059E1
3.122790958E0,-1.152154083E0,8.449928284E-1,1.070349197E1,1.079843564E1
3.132860958E0,-1.133143616E0,9.720785522E-1,1.083087708E1,1.093329088E1
3.142929958E0,-1.150657196E0,9.560618591E-1,1.117216736E1,1.127188492E1
3.152998958E0,-1.168470154E0,8.273295593E-1,1.161434784E1,1.170225929E1
3.163068958E0,-1.117875366E0,6.348298645E-1,1.207613754E1,1.214437122E1
3.173137958E0,-1.000369720E0,4.959187317E-1,1.245200592E1,1.250196490E1
3.183207958E0,-8.749305725E-1,4.698728943E-1,1.272788223E1,1.276656846E1
3.193276958E0,-6.453080750E-1,4.496649170E-1,1.291439438E1,1.293832305E1
3.203346958E0,-4.351451111E-1,4.040098572E-1,1.299417847E1,1.300773805E1
3.213415958E0,-4.564009094E-1,3.598516846E-1,1.283475998E1,1.284791262E1
3.223485958E0,-4.215234375E-1,2.603086853E-1,1.234153564E1,1.235147541E1
3.233554958E0,-2.868035889E-1,1.571731567E-1,1.185519699E1,1.185970722E1
3.243624958E0,-2.561174011E-1,3.577560425E-2,1.154668854E1,1.154958407E1
3.253693958E0,-1.380130005E-1,-2.424957275E-2,1.151076324E1,1.151161614E1
3.263763958E0,1.663041687E-1,2.260299683E-2,1.162826889E1,1.162948001E1
3.273832958E0,5.343887329E-1,1.116677856E-1,1.183873123E1,1.185131209E1
3.283901958E0,9.122030640E-1,2.576142883E-1,1.204634949E1,1.208358455E1
3.293971958E0,1.103355560E0,3.694317627E-1,1.181942139E1,1.187655654E1
3.304040958E0,1.141526184E0,3.121009827E-1,1.121452927E1,1.127679723E1
3.314110958E0,1.161135406E0,5.254074097E-2,1.054527100E1,1.060913457E1
3.324179958E0,1.122366028E0,-1.661544800E-1,1.001372635E1,1.007779878E1
3.334249958E0,1.018482056E0,-3.417393494E-1,9.543254700E0,9.603530692E0
3.344318958E0,1.132395172E0,-3.692820740E-1,9.602232056E0,9.675822886E0
3.354388958E0,1.204545135E0,-2.751278687E-1,1.031445099E1,1.038819154E1
3.364457958E0,1.241817627E0,-1.091230774E-1,1.103639969E1,1.110658079E1
3.374527958E0,1.225202179E0,7.993377686E-2,1.147214355E1,1.153765953E1
3.384596958E0,1.072369995E0,3.035687256E-1,1.156794434E1,1.162150883E1
3.394665542E0,8.717871094E-1,5.080435181E-1,1.123907822E1,1.128428111E1
3.404735542E0,6.944059753E-1,5.815406799E-1,1.050605255E1,1.054502392E1
3.414804542E0,5.022056580E-1,5.950126648E-1,9.771979065E0,9.802949834E0
3.424874542E0,3.070115662E-1,5.601351929E-1,9.070537720E0,9.093000718E0
3.434943542E0,2.338137817E-1,4.805007935E-1,8.551417236E0,8.568097026E0
3.445013542E0,1.612147522E-1,4.740641785E-1,8.211324463E0,8.226577446E0
3.455082542E0,1.649569702E-1,4.079017639E-1,7.934400330E0,7.946590668E0
3.465152542E0,2.073188782E-1,2.770738220E-1,7.867040405E0,7.874647659E0
3.475221542E0,1.664538574E-1,1.175056458E-1,7.872728577E0,7.875364735E0
3.485291542E0,1.543290710E-1,-4.879852295E-2,7.867190094E0,7.868854982E0
3.495360542E0,1.221459961E-1,-2.384541321E-1,7.810009003E0,7.814603038E0
3.505429542E0,8.547225952E-2,-3.083587646E-1,7.673343201E0,7.680012143E0
3.515499542E0,2.529739380E-2,-3.739224243E-1,7.439679108E0,7.449112911E0
3.525568542E0,-2.903961182E-2,-4.722679138E-1,7.240892487E0,7.256335458E0
3.535638542E0,-1.393601990E-1,-4.198768616E-1,7.001240845E0,7.015204289E0
3.545707542E0,-2.823129272E-1,-3.321592712E-1,6.677464142E0,6.691678245E0
3.555777542E0,-4.321513367E-1,-2.350112915E-1,6.453829193E0,6.472549447E0
3.565846542E0,-6.393205261E-1,-1.359173584E-1,6.344257050E0,6.377836763E0
3.575916542E0,-8.267308044E-1,-4.311035156E-2,6.341412964E0,6.395221709E0
3.585985542E0,-9.876461792E-1,1.407073975E-2,6.413413239E0,6.489030153E0
3.596055542E0,-1.077908478E0,9.774673462E-2,6.678062897E0,6.765202522E0
3.606124542E0,-1.221609650E0,1.242416382E-1,7.068301392E0,7.174165504E0
3.616193542E0,-1.287173309E0,7.514373779E-2,7.527396698E0,7.637025780E0
3.626263542E0,-1.319955139E0,6.197113037E-2,8.029752045E0,8.137753983E0
3.636332542E0,-1.352287903E0,1.067280579E-1,8.459807739E0,8.567871406E0
3.646402542E0,-1.261875916E0,1.040336609E-1,8.832083588E0,8.922379410E0
3.656471542E0,-1.225651245E0,2.679428101E-2,9.280550995E0,9.361173307E0
3.666541542E0,-1.208586731E0,-1.402583313E-1,9.596244507E0,9.673068950E0
3.676610542E0,-1.078507233E0,-2.356100464E-1,9.655521240E0,9.718424788E0
3.686680542E0,-9.271719360E-1,-2.040257263E-1,9.760153656E0,9.806216074E0
3.696749542E0,-8.006849670E-1,-3.128494263E-2,1.009186386E1,1.012362541E1
3.706818542E0,-6.788383484E-1,1.576222229E-1,1.054826477E1,1.057126085E1
3.716888542E0,-6.135740662E-1,1.104702759E-1,1.078671890E1,1.080472033E1
3.726957542E0,-5.481600952E-1,1.251397705E-1,1.105062012E1,1.106491502E1
3.737027542E0,-5.390290833E-1,1.327738953E-1,1.137798935E1,1.139152417E1
3.747096542E0,-3.647914124E-1,3.622467041E-2,1.170880142E1,1.171453865E1
3.757166542E0,-1.624122620E-1,-7.095245361E-2,1.202748871E1,1.202879448E1
3.767235542E0,1.451980591E-2,-8.023315430E-2,1.246053818E1,1.246080494E1
3.777305542E0,2.484832764E-1,1.975891113E-2,1.284957916E1,1.285199669E1
3.787374542E0,4.076023865E-1,2.546205139E-1,1.298220337E1,1.299109601E1
3.797444542E0,4.604425049E-1,5.050497437E-1,1.286065613E1,1.287880268E1
3.807513542E0,5.725593567E-1,7.514373779E-1,1.282682648E1,1.286156910E1
3.817582542E0,6.932084656E-1,9.735754395E-1,1.292966263E1,1.298478197E1
3.827652542E0,7.442523193E-1,1.136287079E0,1.306273590E1,1.313316904E1
3.837721542E0,8.095166016E-1,1.217568054E0,1.321032898E1,1.329099623E1
3.847791542E0,8.807684326E-1,1.196162567E0,1.323263260E1,1.331574720E1
3.857860542E0,9.898915100E-1,1.165177002E0,1.304627014E1,1.313555051E1
3.867930542E0,1.026864624E0,1.010099487E0,1.274479706E1,1.282593482E1
3.877999542E0,1.002615051E0,7.855664063E-1,1.210158463E1,1.216843055E1
3.888069542E0,1.037043457E0,5.783972168E-1,1.136511612E1,1.142697978E1
3.898138542E0,1.082399139E0,4.851411438E-1,1.071950867E1,1.078493467E1
3.908207542E0,9.494755554E-1,4.713697815E-1,1.005129822E1,1.010704156E1
3.918277542E0,9.171427917E-1,4.197271729E-1,9.651180267E0,9.703741668E0
3.928346542E0,1.019380188E0,4.715194702E-1,9.671987000E0,9.736981005E0
3.938416542E0,1.267713776E0,8.087681580E-1,1.019410126E1,1.030441190E1
3.948485542E0,1.338965607E0,1.250200195E0,1.094553864E1,1.109777660E1
3.958555542E0,1.225202179E0,1.569186859E0,1.131571884E1,1.148951525E1
3.968624542E0,1.077758789E0,1.582658844E0,1.123698257E1,1.139895392E1
3.978694542E0,8.237370300E-1,1.336869965E0,1.083806213E1,1.095122618E1
3.988763542E0,5.993536377E-1,9.771679688E-1,1.011925690E1,1.018397968E1
3.998833542E0,4.098477173E-1,6.171665955E-1,9.328601074E0,9.357973486E0
4.008902542E0,2.439926147E-1,4.182302856E-1,8.833730164E0,8.846990311E0
4.018971542E0,8.756790161E-2,2.552192688E-1,8.547375641E0,8.551633491E0
4.029041542E0,2.365081787E-2,1.586700439E-1,8.154143372E0,8.155721284E0
4.039110542E0,-1.047821045E-2,1.315763855E-1,7.852670288E0,7.853779523E0
4.049180542E0,-7.574249268E-2,1.929487610E-1,7.583679657E0,7.586511932E0
4.059249542E0,-1.293310547E-1,2.460882568E-1,7.360493774E0,7.365741956E0
4.069319542E0,-2.083666992E-1,3.153941345E-1,7.218439178E0,7.228329981E0
4.079388542E0,-3.811074829E-1,3.782633972E-1,7.026687927E0,7.047174564E0
4.089458542E0,-4.632865906E-1,3.878434753E-1,6.869664459E0,6.896183496E0
4.099527542E0,-5.334906006E-1,5.951623535E-1,6.889423370E0,6.935631538E0
4.109596542E0,-6.535409546E-1,9.737251282E-1,6.954987030E0,7.053162482E0
4.119666542E0,-7.676037598E-1,1.261726227E0,6.804100800E0,6.962539500E0
4.129735542E0,-9.014254761E-1,1.342558136E0,6.533014526E0,6.730178975E0
4.139805542E0,-1.153800659E0,1.219663696E0,6.304290161E0,6.524025592E0
4.149874542E0,-1.375040588E0,9.746232605E-1,6.192622375E0,6.417881193E0
4.159944542E0,-1.503473511E0,7.804769897E-1,6.256539459E0,6.481810159E0
4.170013542E0,-1.563648376E0,6.891668701E-1,6.464008026E0,6.686056161E0
4.180083542E0,-1.562750244E0,6.274951172E-1,6.662794647E0,6.872319183E0
4.190152542E0,-1.460961914E0,6.116281128E-1,7.043303375E0,7.219184241E0
4.200221542E0,-1.373693390E0,5.839356995E-1,7.527696075E0,7.674257139E0
4.210291542E0,-1.293160858E0,6.093827820E-1,8.093968506E0,8.219241970E0
4.220360542E0,-1.138532410E0,7.378157043E-1,8.728648682E0,8.833455489E0
4.230430542E0,-1.023421783E0,8.195457458E-1,9.353748779E0,9.445192619E0
4.240499542E0,-1.020428009E0,8.110134888E-1,9.797276459E0,9.883604717E0
4.250569542E0,-1.027613068E0,7.815248108E-1,1.015443375E1,1.023617577E1
4.260638542E0,-1.073866882E0,7.702981567E-1,1.042087967E1,1.050434588E1
4.270708542E0,-1.124311981E0,7.768844604E-1,1.061757065E1,1.070515919E1
4.280777542E0,-1.149010620E0,8.411009216E-1,1.086575455E1,1.095866315E1
4.290846542E0,-1.111438751E0,8.375083923E-1,1.113235016E1,1.121899891E1
4.300916542E0,-1.056353302E0,7.623646545E-1,1.149579437E1,1.156937208E1
4.310985542E0,-9.592053223E-1,6.632707214E-1,1.200728073E1,1.206378023E1
4.321055542E0,-7.834707642E-1,5.310955811E-1,1.258477982E1,1.262032377E1
4.331124542E0,-5.728587341E-1,4.793032837E-1,1.299672318E1,1.301816854E1
4.341194542E0,-3.381468201E-1,5.342390442E-1,1.332693649E1,1.334192606E1
4.351263542E0,-1.276844788E-1,6.188131714E-1,1.346345261E1,1.347827100E1
4.361333542E0,-7.978408813E-2,6.598278809E-1,1.335477859E1,1.337130695E1
4.371402542E0,-1.245410156E-1,5.767506409E-1,1.306468185E1,1.307799922E1
4.381471542E0,-1.562750244E-1,3.885919189E-1,1.275108398E1,1.275796098E1
4.391542167E0,-1.854643250E-1,1.339714050E-1,1.251457581E1,1.251666701E1
4.401611167E0,-1.302291870E-1,-1.100212097E-1,1.244422211E1,1.244538984E1
4.411681167E0,1.905537415E-1,-2.080673218E-1,1.288206161E1,1.288515092E1
4.421750167E0,6.855743408E-1,-9.250762939E-2,1.361658417E1,1.363414589E1
4.431820167E0,1.004111938E0,1.528321838E-1,1.360580658E1,1.364366414E1
4.441889167E0,1.117725677E0,4.531077576E-1,1.281979111E1,1.287639939E1
4.451959167E0,1.080153809E0,5.655239868E-1,1.165790726E1,1.172149100E1
4.462028167E0,1.005608826E0,3.266207886E-1,1.058359131E1,1.063627450E1
4.472097167E0,9.123527527E-1,-1.089733887E-1,9.680369568E0,9.723878738E0
4.482167167E0,7.234455872E-1,-4.899311829E-1,9.160949707E0,9.202521699E0
4.492236167E0,5.701643372E-1,-7.685018921E-1,9.042545929E0,9.093036864E0
4.502306167E0,5.780978394E-1,-9.630972290E-1,9.318871307E0,9.386326003E0
4.512375167E0,6.372248840E-1,-1.059945831E0,9.804760895E0,9.882452981E0
4.522445167E0,6.994953918E-1,-9.871971130E-1,1.022284149E1,1.029418963E1
4.532514167E0,7.442523193E-1,-7.655081177E-1,1.040022263E1,1.045488139E1
4.542584167E0,8.430468750E-1,-4.522096252E-1,1.028795609E1,1.033234059E1
4.552653167E0,8.922944641E-1,-2.062710571E-1,9.906399536E0,9.948642567E0
4.562722167E0,7.442523193E-1,-8.412506104E-2,9.249715118E0,9.279990211E0
4.572792167E0,5.911207581E-1,-4.236190796E-2,8.427624664E0,8.448436291E0
4.582861167E0,4.658312988E-1,-6.870712280E-2,7.684270477E0,7.698683799E0
4.592931167E0,3.809577942E-1,-2.215393066E-2,7.277715912E0,7.287713532E0
4.603000167E0,3.857478333E-1,3.622467041E-2,7.313042450E0,7.323298676E0
4.613070167E0,3.323089600E-1,1.437011719E-2,7.587571564E0,7.594858654E0
4.623139167E0,1.899549866E-1,-3.158432007E-2,7.794441376E0,7.796819661E0
4.633209167E0,1.077758789E-1,-1.169068909E-1,7.895181885E0,7.896782880E0
4.643278167E0,2.320175171E-2,-2.462379456E-1,7.902366943E0,7.906236447E0
4.653347167E0,-8.113128662E-2,-3.041674805E-1,7.798033905E0,7.804385493E0
4.663417167E0,-2.366578674E-1,-2.769241333E-1,7.621101837E0,7.629802562E0
4.673486167E0,-4.314028931E-1,-2.435435486E-1,7.313192139E0,7.329952331E0
4.683556167E0,-6.081852722E-1,-2.148033142E-1,6.901997223E0,6.932070070E0
4.693625167E0,-8.349636841E-1,-2.630030823E-1,6.625671844E0,6.683252379E0
4.703695167E0,-1.042581940E0,-2.986289978E-1,6.417005768E0,6.508004257E0
4.713764167E0,-1.208287354E0,-2.514770508E-1,6.196214905E0,6.317933062E0
4.723833167E0,-1.368454285E0,-1.842668152E-1,6.086642761E0,6.241301266E0
4.733903167E0,-1.509610748E0,-1.255888367E-1,6.193819885E0,6.376370593E0
4.743972167E0,-1.646426239E0,-1.402583313E-1,6.493197327E0,6.700149497E0
4.754042167E0,-1.770218811E0,-2.869532776E-1,6.990313568E0,7.216682105E0
4.764111167E0,-1.838027802E0,-6.060896301E-1,7.660020905E0,7.900734845E0
4.774181167E0,-1.851350098E0,-9.391470337E-1,8.250692596E0,8.507844771E0
4.784250167E0,-1.884431305E0,-1.168619843E0,8.954678650E0,9.225129994E0
4.794320167E0,-1.792522430E0,-1.106948090E0,9.769134979E0,9.993721478E0
4.804389167E0,-1.690734100E0,-8.111631775E-1,1.029214737E1,1.046158998E1
4.814458167E0,-1.545086975E0,-4.290078735E-1,1.057446030E1,1.069535189E1
4.824528167E0,-1.422491913E0,-7.933502197E-2,1.067520081E1,1.076985095E1
4.834597167E0,-1.344803467E0,1.065783691E-1,1.070962921E1,1.079425834E1
4.844667167E0,-1.232985992E0,1.709445190E-1,1.095601685E1,1.102650360E1
4.854736167E0,-1.228944397E0,2.624043274E-1,1.129700775E1,1.136668573E1
4.864806167E0,-1.197809143E0,3.162922668E-1,1.161060562E1,1.167651277E1
4.874875167E0,-1.033600616E0,2.302212524E-1,1.192869415E1,1.197560338E1
4.884944167E0,-8.187973022E-1,2.160008240E-1,1.212538513E1,1.215491876E1
4.895014167E0,-5.101391602E-1,3.986210632E-1,1.236743179E1,1.238436554E1
4.905083167E0,-1.248403931E-1,6.346801758E-1,1.264495468E1,1.266148818E1
4.915153167E0,9.131011963E-2,7.536827087E-1,1.290331741E1,1.292563250E1
4.925222167E0,2.064207458E-1,7.152127075E-1,1.303818695E1,1.305942027E1
4.935292167E0,2.639012146E-1,6.556365967E-1,1.302501434E1,1.304417502E1
4.945361167E0,8.232879639E-3,6.798861694E-1,1.283416122E1,1.285215964E1
4.955431167E0,-1.683998108E-1,7.360194397E-1,1.253463409E1,1.255735382E1
4.965500167E0,-1.302291870E-1,8.196954346E-1,1.249885849E1,1.252638511E1
4.975569167E0,-2.068698120E-1,9.321116638E-1,1.258073822E1,1.261691727E1
4.985639167E0,-1.194515991E-1,9.596543884E-1,1.259885056E1,1.263591075E1
4.995708167E0,2.350112915E-2,8.816665649E-1,1.263447647E1,1.266522341E1
5.005778167E0,3.115022278E-1,8.476872253E-1,1.264076340E1,1.267298333E1
5.015847167E0,6.477030945E-1,9.560618591E-1,1.247745300E1,1.253077839E1
5.025917167E0,7.598199463E-1,1.027164001E0,1.191192902E1,1.198025230E1
5.035986167E0,8.378077698E-1,9.204359436E-1,1.090377548E1,1.097458172E1
5.046055167E0,9.156459045E-1,8.443940735E-1,9.964927826E0,1.004246958E1
5.056125167E0,8.657995605E-1,7.650590515E-1,9.231752472E0,9.303772242E0
5.066194167E0,7.611671448E-1,6.027964783E-1,8.706794128E0,8.760764979E0
5.076264167E0,7.391629028E-1,5.947132874E-1,8.522826691E0,8.575466197E0
5.086333167E0,8.153544617E-1,7.219487000E-1,8.630752258E0,8.699189466E0
5.096403167E0,8.484356689E-1,9.033714294E-1,9.295819244E0,9.378069015E0
5.106472167E0,8.497828674E-1,1.109193420E0,1.026535309E1,1.036001520E1
5.116542167E0,7.185058594E-1,1.167721710E0,1.081216599E1,1.089875029E1
5.126611167E0,5.316943359E-1,1.024319916E0,1.075303894E1,1.081479434E1
5.136680167E0,3.369493103E-1,6.854246521E-1,1.031235535E1,1.034060030E1
5.146750167E0,1.546284485E-1,2.948867798E-1,9.622290344E0,9.628049628E0
5.156819167E0,7.229965210E-2,5.837860107E-2,8.822503510E0,8.822992887E0
5.166889167E0,-4.041595459E-2,-8.442443848E-2,8.194259949E0,8.194794509E0
5.176958167E0,-1.059796143E-1,-9.235794067E-2,7.743696899E0,7.744972778E0
5.187028167E0,-9.056167603E-2,2.514770508E-2,7.411537628E0,7.412133555E0
5.197097167E0,-1.324745178E-1,1.868115234E-1,7.226073303E0,7.229701476E0
5.207166167E0,-2.134561157E-1,3.041674805E-1,7.075037384E0,7.084789013E0
5.217236167E0,-2.754272461E-1,4.236190796E-1,7.062313843E0,7.080366523E0
5.227305167E0,-3.635939026E-1,5.116360474E-1,7.186854858E0,7.214211996E0
5.237375167E0,-5.499563599E-1,5.043013000E-1,7.168742523E0,7.207471204E0
5.247444167E0,-7.708969116E-1,4.743635559E-1,7.066654816E0,7.124388613E0
5.257514167E0,-9.833052063E-1,4.492158508E-1,6.959028625E0,7.042496959E0
5.267583167E0,-1.152752838E0,3.914360046E-1,6.850803680E0,6.958129944E0
5.277652167E0,-1.311871948E0,3.118016052E-1,6.778354340E0,6.911173258E0
5.287722167E0,-1.403631134E0,3.311114502E-1,6.813231812E0,6.964190037E0
5.297791167E0,-1.507814484E0,4.281097412E-1,6.754404144E0,6.933884756E0
5.307861167E0,-1.601220245E0,5.378315735E-1,6.616540833E0,6.828746713E0
5.317930167E0,-1.570534058E0,6.418652344E-1,6.589896240E0,6.804799825E0
5.328000167E0,-1.539997559E0,7.185058594E-1,6.730004883E0,6.941239722E0
5.338069167E0,-1.504820709E0,7.018904114E-1,6.912475433E0,7.109110502E0
5.348139167E0,-1.442250824E0,6.060896301E-1,7.149881744E0,7.319032794E0
5.358208167E0,-1.390159149E0,5.270539856E-1,7.573351135E0,7.717899700E0
5.368277167E0,-1.315314789E0,5.035528564E-1,8.216563568E0,8.336398224E0
5.378347167E0,-1.285227356E0,4.673281860E-1,8.715925140E0,8.822559495E0
5.388416167E0,-1.230291595E0,4.261637878E-1,9.100475464E0,9.193143459E0
5.398485917E0,-1.209784241E0,4.143383789E-1,9.550439758E0,9.635670904E0
5.408554917E0,-1.307830353E0,3.535647583E-1,9.916129303E0,1.000824903E1
5.418624917E0,-1.411864014E0,2.558180237E-1,1.016251694E1,1.026331103E1
5.428693917E0,-1.502126312E0,2.661465454E-1,1.037956558E1,1.049107235E1
5.438762917E0,-1.579066315E0,3.035687256E-1,1.063014450E1,1.075107327E1
5.448832917E0,-1.634600830E0,3.351530457E-1,1.099478622E1,1.112068215E1
5.458901917E0,-1.739382935E0,4.074526978E-1,1.135209320E1,1.149180102E1
5.468971917E0,-1.702858887E0,4.397854614E-1,1.175146271E1,1.188234049E1
5.479040917E0,-1.633403320E0,4.966671753E-1,1.228166016E1,1.239975245E1
5.489110917E0,-1.525028687E0,5.490582275E-1,1.277742920E1,1.287982431E1
5.499179917E0,-1.273701324E0,6.640191650E-1,1.324415863E1,1.332182324E1
5.509248917E0,-1.075363770E0,7.408094788E-1,1.343605957E1,1.349936675E1
5.519318917E0,-9.743238831E-1,7.360194397E-1,1.328367645E1,1.333968110E1
5.529387917E0,-9.458830261E-1,6.887178040E-1,1.302067337E1,1.307313895E1
5.539457917E0,-9.134005737E-1,4.379891968E-1,1.263417709E1,1.267472153E1
5.549526917E0,-8.626560974E-1,1.776805115E-1,1.243134888E1,1.246251102E1
5.559596917E0,-7.496411133E-1,-1.227447510E-2,1.245260468E1,1.247515433E1
5.569665917E0,-4.080514526E-1,-1.685494995E-1,1.284628601E1,1.285387020E1
5.579734917E0,1.493893433E-1,-2.139051819E-1,1.379276779E1,1.379523526E1
5.589804917E0,8.523275757E-1,-1.032852173E-1,1.451097427E1,1.453635114E1
5.599873917E0,1.222058716E0,4.236190796E-2,1.448897003E1,1.454047711E1
5.609943917E0,1.235530701E0,-3.667373657E-2,1.385249359E1,1.390753248E1
5.620012917E0,1.362017670E0,-1.604663086E-1,1.256412277E1,1.263875083E1
5.630082917E0,1.443897400E0,-1.730401611E-1,1.138727005E1,1.147975182E1
5.640151917E0,1.351240082E0,-2.212399292E-1,1.068912186E1,1.077646152E1
5.650220917E0,1.314865723E0,-3.360511780E-1,1.039184006E1,1.048008311E1
5.660290917E0,1.311871948E0,-4.631369019E-1,1.038585251E1,1.047861804E1
5.670359917E0,1.264121246E0,-5.008584595E-1,1.068957092E1,1.077570361E1
5.680429917E0,1.236578522E0,-3.791615295E-1,1.100451599E1,1.108026453E1
5.690498917E0,1.256038055E0,-1.188528442E-1,1.092024124E1,1.099288071E1
5.700568917E0,1.257534943E0,1.905537415E-1,1.065708847E1,1.073271818E1
5.710637917E0,1.169517975E0,3.585044861E-1,1.016281631E1,1.023616790E1
5.720706917E0,1.020577698E0,3.026705933E-1,9.457033997E0,9.516757869E0
5.730776917E0,8.843609619E-1,1.703457642E-1,8.808432770E0,8.854354852E0
5.740845917E0,7.364685059E-1,-1.317260742E-2,8.253686371E0,8.286488888E0
5.750915917E0,6.517446899E-1,-1.513352966E-1,7.846383362E0,7.874859070E0
5.760984917E0,5.909710693E-1,-2.718347168E-1,7.647746429E0,7.675360993E0
5.771054917E0,5.656736755E-1,-3.246748352E-1,7.549400940E0,7.577523013E0
5.781123917E0,5.547463989E-1,-3.561094666E-1,7.529192963E0,7.557996043E0
5.791192917E0,5.096900940E-1,-4.324507141E-1,7.349716187E0,7.380049162E0
5.801262917E0,4.834945679E-1,-5.227130127E-1,7.157815247E0,7.193143610E0
5.811331917E0,4.469705200E-1,-6.489006042E-1,7.099736023E0,7.143325993E0
5.821401917E0,3.402424622E-1,-7.957452393E-1,6.999294891E0,7.052595579E0
5.831470917E0,2.668949890E-1,-8.267308044E-1,6.821464691E0,6.876561444E0
5.841540917E0,2.131567383E-1,-7.343728638E-1,6.581962738E0,6.626233680E0
5.851609917E0,1.128652954E-1,-6.346801758E-1,6.408174133E0,6.440516534E0
5.861678917E0,-5.987548828E-4,-4.908293152E-1,6.371650085E0,6.390527254E0
5.871748917E0,-1.032852173E-1,-3.567082214E-1,6.405479736E0,6.416235598E0
5.881817917E0,-2.392025757E-1,-2.752775574E-1,6.376140747E0,6.386561393E0
5.891887917E0,-4.245172119E-1,-2.832110596E-1,6.414311371E0,6.434579530E0
5.901956917E0,-5.816903687E-1,-2.603086853E-1,6.607709198E0,6.638369163E0
5.912026917E0,-7.535330200E-1,-2.058219910E-1,6.915918274E0,6.959892260E0
5.922095917E0,-8.707392883E-1,-1.746867371E-1,7.216493225E0,7.270933697E0
5.932164917E0,-9.238787842E-1,-1.324745178E-1,7.423961792E0,7.482400029E0
5.942234917E0,-9.153465271E-1,-3.861968994E-2,7.832761688E0,7.886159167E0
5.952303917E0,-9.397457886E-1,-7.783813477E-3,8.380023651E0,8.432554721E0
5.962373917E0,-8.363108826E-1,1.257385254E-2,9.089548187E0,9.127949400E0
5.972442917E0,-6.950047302E-1,3.427871704E-2,9.725575562E0,9.750437252E0
5.982512917E0,-6.402186584E-1,1.300794983E-1,1.022613464E1,1.024698152E1
5.992581917E0,-5.360353088E-1,1.907034302E-1,1.073702225E1,1.075208577E1
6.002650917E0,-5.122348022E-1,2.829116821E-2,1.099418747E1,1.100615024E1
6.012720917E0,-5.019062805E-1,-1.752854919E-1,1.121228394E1,1.122488067E1
6.022789917E0,-5.059478760E-1,-3.287164307E-1,1.146316223E1,1.147902984E1
6.032859917E0,-4.367916870E-1,-3.809577942E-1,1.172272247E1,1.173704128E1
6.042928917E0,-2.552192688E-1,-2.576142883E-1,1.186747147E1,1.187301061E1
6.052998917E0,3.427871704E-2,-1.437011719E-2,1.212493607E1,1.212499304E1
6.063067917E0,3.258723450E-1,2.646496582E-1,1.250409760E1,1.251114259E1
6.073136917E0,6.605763245E-1,4.698728943E-1,1.299672318E1,1.302197968E1
6.083206917E0,8.653504944E-1,4.965174866E-1,1.346450043E1,1.350141225E1
6.093275917E0,8.595126343E-1,4.634362793E-1,1.358230545E1,1.361736232E1
6.103345917E0,7.726931763E-1,4.583468628E-1,1.331900299E1,1.334926879E1
6.113414917E0,6.777905273E-1,4.802014160E-1,1.298220337E1,1.300875081E1
6.123483917E0,6.191125488E-1,5.246589661E-1,1.286978714E1,1.289534755E1
6.133553917E0,4.519102478E-1,5.059478760E-1,1.289792862E1,1.291575661E1
6.143622917E0,3.754193115E-1,3.387455750E-1,1.288206161E1,1.289198199E1
6.153692917E0,2.884501648E-1,9.325607300E-2,1.291768753E1,1.292124419E1
6.163761917E0,2.818638611E-1,-1.130149841E-1,1.308114761E1,1.308467204E1
6.173831917E0,3.763174438E-1,-2.348616028E-1,1.308593765E1,1.309345405E1
6.183900917E0,5.219645691E-1,-2.459385681E-1,1.273012756E1,1.274319742E1
6.193969917E0,7.800279236E-1,-7.095245361E-2,1.224842926E1,1.227344683E1
6.204039917E0,1.061143341E0,1.453477478E-1,1.172406967E1,1.177289093E1
6.214108917E0,1.385219421E0,3.929328918E-1,1.139415573E1,1.148477313E1
6.224178917E0,1.670825500E0,8.059240723E-1,1.140613083E1,1.155599377E1
6.234247917E0,1.988015900E0,1.257684631E0,1.181552948E1,1.204743602E1
6.244317917E0,2.213596802E0,1.595831451E0,1.229767685E1,1.259680693E1
6.254386917E0,2.237996063E0,1.852846985E0,1.241667938E1,1.275208200E1
6.264455917E0,2.220332794E0,1.998494110E0,1.208736420E1,1.245103328E1
6.274525917E0,2.213147736E0,2.052980804E0,1.144115799E1,1.183270253E1
6.284594917E0,2.078876953E0,2.070195007E0,1.052057236E1,1.092199064E1
6.294664917E0,1.893412628E0,1.997446289E0,9.447753296E0,9.840469775E0
6.304733917E0,1.718127136E0,1.850002899E0,8.440048828E0,8.809591126E0
6.314803917E0,1.543739777E0,1.677711182E0,7.579039307E0,7.914523619E0
6.324872917E0,1.370998993E0,1.480571136E0,6.853348389E0,7.144236367E0
6.334941917E0,1.201551361E0,1.257534943E0,6.344556427E0,6.578640898E0
6.345011917E0,1.028062134E0,1.002914429E0,6.048621826E0,6.216797817E0
6.355080917E0,8.842112732E-1,7.444020081E-1,5.969586182E0,6.080454186E0
6.365150917E0,7.433541870E-1,5.113366699E-1,6.102659454E0,6.168994493E0
6.375219917E0,5.316943359E-1,3.345542908E-1,6.253395996E0,6.284869682E0
6.385288917E0,3.471281433E-1,3.174897766E-1,6.218817902E0,6.236585107E0
6.395358542E0,1.755848694E-1,2.924917603E-1,6.100264435E0,6.109796040E0
6.405427542E0,-2.095642090E-2,1.743873596E-1,5.816903687E0,5.819554847E0
6.415497542E0,-2.285746765E-1,6.092330933E-2,5.371430054E0,5.376636389E0
6.425566542E0,-4.375401306E-1,8.083190918E-3,4.966821442E0,4.986062769E0
6.435636542E0,-6.152206421E-1,5.209167480E-2,4.732857971E0,4.772960775E0
6.445705542E0,-7.108717346E-1,2.026785278E-1,4.821773071E0,4.878105448E0
6.455774542E0,-8.193960571E-1,3.842509460E-1,5.122797089E0,5.202125402E0
6.465844542E0,-9.409432983E-1,5.730084229E-1,5.423072662E0,5.533844057E0
6.475913542E0,-9.710307312E-1,7.297325134E-1,5.663173370E0,5.791972276E0
6.485983542E0,-1.003812561E0,7.924520874E-1,6.058501282E0,6.192015645E0
6.496052542E0,-9.961784363E-1,8.134085083E-1,6.678661652E0,6.801362094E0
6.506122542E0,-9.779164124E-1,6.349795532E-1,7.464677124E0,7.555191864E0
6.516191542E0,-9.723779297E-1,3.062631226E-1,8.253836060E0,8.316557319E0
6.526260542E0,-9.198371887E-1,2.028282166E-1,8.844507751E0,8.894523995E0
6.536330542E0,-8.279283142E-1,2.466870117E-1,9.384584656E0,9.424263841E0
6.546399542E0,-7.322772217E-1,2.923420715E-1,9.902657318E0,9.933997975E0
6.556469542E0,-6.971003723E-1,3.198847961E-1,1.016386414E1,1.019276260E1
6.566538542E0,-6.915618896E-1,4.430786133E-1,1.043659698E1,1.046886494E1
6.576607542E0,-7.872129822E-1,6.762936401E-1,1.083027832E1,1.087988997E1
6.586677542E0,-9.545649719E-1,8.521778870E-1,1.110331055E1,1.117680216E1
6.596746542E0,-1.040935364E0,8.107141113E-1,1.139714951E1,1.147326547E1
6.606816542E0,-1.173260193E0,6.433621216E-1,1.183783310E1,1.191321731E1
6.616885542E0,-1.267713776E0,2.948867798E-1,1.234378098E1,1.241221113E1
6.626955542E0,-1.219214630E0,-1.077758789E-1,1.277129196E1,1.282980897E1
6.637024542E0,-1.052760773E0,-3.341052246E-1,1.317754715E1,1.322375440E1
6.647093542E0,-7.122189331E-1,-3.498225403E-1,1.351928650E1,1.354255290E1
6.657163542E0,-3.122506714E-1,-2.516267395E-1,1.387030655E1,1.387610249E1
6.667232542E0,1.234931946E-1,-6.002517700E-2,1.421144714E1,1.421211045E1
6.677302542E0,4.055067444E-1,1.008901978E-1,1.432985092E1,1.433594231E1
6.687371542E0,5.688171387E-1,1.797761536E-1,1.425829971E1,1.427077374E1
6.697440542E0,5.674699402E-1,2.204914856E-1,1.384500916E1,1.385838797E1
6.707510542E0,5.192701721E-1,1.827699280E-1,1.312680267E1,1.313834064E1
6.717579542E0,4.016148376E-1,8.771759033E-2,1.264166153E1,1.264834357E1
6.727649542E0,2.719844055E-1,1.960922241E-2,1.250888763E1,1.251185957E1
6.737718542E0,3.924838257E-1,3.757186890E-2,1.249556534E1,1.250178421E1
6.747788542E0,6.830296326E-1,1.502874756E-1,1.268252655E1,1.270179497E1
6.757857542E0,1.020428009E0,3.294648743E-1,1.281125885E1,1.285605592E1
6.767926542E0,1.196611633E0,4.456233215E-1,1.237267090E1,1.243838594E1
6.777996542E0,1.276096344E0,3.921844482E-1,1.157662628E1,1.165334744E1
6.788065542E0,1.406924286E0,2.369572449E-1,1.049737061E1,1.059388382E1
6.798135542E0,1.521436157E0,4.056564331E-2,9.736652527E0,9.854887923E0
6.808204542E0,1.423839111E0,-2.192939758E-1,9.366322632E0,9.476465971E0
6.818273542E0,1.372495880E0,-4.701722717E-1,9.158105621E0,9.272308530E0
6.828343542E0,1.398541718E0,-5.550457764E-1,9.208550720E0,9.330669918E0
6.838412542E0,1.435963898E0,-4.147874451E-1,9.448801117E0,9.566288909E0
6.848482542E0,1.430724792E0,-2.284249878E-1,9.605225830E0,9.713882574E0
6.858551542E0,1.441053314E0,-4.700225830E-2,9.611961823E0,9.719498647E0
6.868621542E0,1.449884949E0,5.224136353E-2,9.466464386E0,9.576995536E0
6.878690542E0,1.395398254E0,3.652404785E-2,9.234147491E0,9.339055101E0
6.888759542E0,1.262774048E0,-3.697311401E-2,8.752748566E0,8.843448013E0
6.898829542E0,1.235680389E0,-1.290316772E-1,8.142617340E0,8.236854518E0
6.908898542E0,1.229543152E0,-1.261875916E-1,7.767347717E0,7.865074077E0
6.918968542E0,1.275796967E0,-1.422042847E-1,7.505392456E0,7.614380860E0
6.929037542E0,1.257534943E0,-2.092648315E-1,7.433392181E0,7.541916548E0
6.939106542E0,1.108295288E0,-2.546205139E-1,7.422913971E0,7.509514090E0
6.949176542E0,9.536668396E-1,-2.891986084E-1,7.289691010E0,7.357493547E0
6.959245542E0,7.018904114E-1,-2.782713318E-1,7.156168671E0,7.195890155E0
6.969315542E0,4.457730103E-1,-1.669029236E-1,6.932982788E0,6.949303598E0
6.979384542E0,2.140548706E-1,-5.837860107E-3,6.571783905E0,6.575271649E0
6.989454542E0,-4.655319214E-2,1.851649475E-1,6.171965332E0,6.174917758E0
6.999523542E0,-3.701802063E-1,4.204756165E-1,5.881868591E0,5.908486376E0
7.009592542E0,-6.346801758E-1,6.433621216E-1,5.629942474E0,5.702015960E0
7.019662542E0,-8.150550842E-1,7.605683899E-1,5.335504761E0,5.450723816E0
7.029731542E0,-9.595046997E-1,8.761280823E-1,5.231620789E0,5.390557092E0
7.039801542E0,-1.102307739E0,8.394543457E-1,5.513484650E0,5.684916792E0
7.049870542E0,-1.170266418E0,6.845265198E-1,6.083349609E0,6.232595167E0
7.059939542E0,-1.264869690E0,4.499642944E-1,6.880741425E0,7.010489694E0
7.070009542E0,-1.307081909E0,1.062789917E-1,7.695347443E0,7.806287889E0
7.080078542E0,-1.155896301E0,-9.041198730E-2,8.604257355E0,8.682022530E0
7.090148542E0,-1.017883301E0,-8.696914673E-2,9.611063690E0,9.665205394E0
7.100217542E0,-8.816665649E-1,8.891510010E-2,1.032043854E1,1.035841172E1
7.110286542E0,-7.702981567E-1,3.035687256E-1,1.077115128E1,1.080292613E1
7.120356542E0,-7.255412292E-1,4.471202087E-1,1.113863708E1,1.117119343E1
7.130425542E0,-7.457492065E-1,4.302053833E-1,1.141301651E1,1.144544295E1
7.140495542E0,-7.939489746E-1,3.109034729E-1,1.164174088E1,1.167292365E1
7.150564542E0,-7.622149658E-1,2.092648315E-1,1.201207077E1,1.203804833E1
7.160634542E0,-7.262896729E-1,2.155517578E-1,1.238374786E1,1.240690011E1
7.170703542E0,-5.424719238E-1,2.751278687E-1,1.266471359E1,1.267931156E1
7.180772542E0,-3.359014893E-1,3.689826965E-1,1.300989578E1,1.301946106E1
7.190842542E0,-1.164578247E-1,3.068618774E-1,1.335268295E1,1.335671624E1
7.200911542E0,1.657054138E-1,1.178050232E-1,1.352886658E1,1.353039420E1
7.210981542E0,3.829037476E-1,-2.499801636E-2,1.353799759E1,1.354343453E1
7.221050542E0,6.405180359E-1,-1.511856079E-2,1.356628876E1,1.358140945E1
7.231119542E0,8.349636841E-1,2.679428101E-2,1.369277573E1,1.371823565E1
7.241189542E0,9.110055542E-1,-1.130149841E-1,1.373962830E1,1.377026104E1
7.251258542E0,8.943901062E-1,-3.823049927E-1,1.348261276E1,1.351765282E1
7.261328542E0,7.512876892E-1,-5.623805237E-1,1.311617477E1,1.314970516E1
7.271397542E0,5.857319641E-1,-4.983137512E-1,1.268581970E1,1.270910776E1
7.281466542E0,5.638774109E-1,-1.715432739E-1,1.243628860E1,1.245024735E1
7.291536542E0,5.301974487E-1,2.576142883E-1,1.255244705E1,1.256628033E1
7.301605542E0,4.541555786E-1,6.390211487E-1,1.268342468E1,1.270763027E1
7.311675542E0,3.769161987E-1,8.153544617E-1,1.278356644E1,1.281508640E1
7.321744542E0,3.294648743E-1,7.502398682E-1,1.272683441E1,1.275318474E1
7.331813542E0,3.438349915E-1,6.125262451E-1,1.253717880E1,1.255684129E1
7.341883542E0,5.131329346E-1,5.566923523E-1,1.216669922E1,1.219023304E1
7.351952542E0,6.834786987E-1,5.640270996E-1,1.157542877E1,1.160929890E1
7.362022542E0,8.045768738E-1,6.056405640E-1,1.089778793E1,1.094421885E1
7.372091542E0,9.235794067E-1,5.647755432E-1,1.016446289E1,1.022195070E1
7.382161542E0,1.036145325E0,5.161267090E-1,9.397158508E0,9.468187363E0
7.392230542E0,1.162033539E0,6.077362061E-1,8.897647247E0,8.993764050E0
7.402299292E0,1.325643311E0,8.440946960E-1,8.759783936E0,8.899642725E0
7.412369292E0,1.561403046E0,1.108894043E0,8.965156860E0,9.167424011E0
7.422438292E0,1.685045929E0,1.431922302E0,9.477541351E0,9.732089772E0
7.432508292E0,1.603465576E0,1.631906433E0,9.969717865E0,1.022885599E1
7.442577292E0,1.443298645E0,1.682351532E0,1.012165192E1,1.036152765E1
7.452646292E0,1.176703033E0,1.515448608E0,9.809251556E0,9.995130345E0
7.462716292E0,8.065228271E-1,1.036444702E0,9.270521851E0,9.363080266E0
7.472785292E0,5.517526245E-1,5.228627014E-1,8.531508636E0,8.565305364E0
7.482855292E0,3.775149536E-1,1.222956848E-1,7.905510406E0,7.915463888E0
7.492924292E0,2.405497742E-1,-1.257385254E-1,7.438032532E0,7.442983428E0
7.502993292E0,1.568737793E-1,-1.143621826E-1,7.162156219E0,7.164786794E0
7.513063292E0,8.053253174E-2,-3.203338623E-2,6.981481934E0,6.982019881E0
7.523132292E0,1.184037781E-1,2.888992310E-2,6.880891113E0,6.881970401E0
7.533202292E0,7.364685059E-2,1.125659180E-1,6.953939209E0,6.955240144E0
7.543271292E0,-2.769241333E-2,3.062631226E-1,7.046596527E0,7.053303239E0
7.553341292E0,-1.172062683E-1,5.279521179E-1,6.987319794E0,7.008217223E0
7.563410292E0,-3.055146790E-1,6.566844177E-1,6.813680878E0,6.852066896E0
7.573479292E0,-5.005590820E-1,6.041436768E-1,6.618786163E0,6.665124099E0
7.583549292E0,-7.030879211E-1,4.270619202E-1,6.427783356E0,6.480209362E0
7.593618292E0,-9.276210022E-1,2.674937439E-1,6.266269226E0,6.340202177E0
7.603688292E0,-1.060394897E0,1.089733887E-1,6.130800934E0,6.222783351E0
7.613757292E0,-1.132993927E0,1.466949463E-2,6.219566345E0,6.321937674E0
7.623826292E0,-1.184636536E0,-4.340972900E-3,6.418951721E0,6.527351972E0
7.633896292E0,-1.175804901E0,8.277786255E-2,6.583160248E0,6.687852285E0
7.643965292E0,-1.070124664E0,2.233355713E-1,6.773713989E0,6.861358960E0
7.654035292E0,-9.946815491E-1,3.830534363E-1,7.175029449E0,7.253769290E0
7.664104292E0,-9.894424438E-1,4.323010254E-1,7.650440826E0,7.726262056E0
7.674173292E0,-9.560618591E-1,3.707789612E-1,7.967481537E0,8.033199447E0
7.684243292E0,-9.205856323E-1,3.267704773E-1,8.336763611E0,8.393800352E0
7.694312292E0,-8.804690552E-1,3.370989990E-1,8.785380707E0,8.835823428E0
7.704382292E0,-8.909472656E-1,2.517764282E-1,9.192234650E0,9.238742136E0
7.714451292E0,-8.904981995E-1,1.960922241E-1,9.681567078E0,9.724411565E0
7.724520292E0,-8.508306885E-1,1.974394226E-1,1.007674530E1,1.011452871E1
7.734590292E0,-8.960366821E-1,1.646575928E-1,1.017643799E1,1.021713678E1
7.744659292E0,-9.873468018E-1,1.327738953E-1,1.027747787E1,1.032564933E1
7.754729292E0,-1.094374237E0,1.472937012E-1,1.044812302E1,1.050631358E1
7.764798292E0,-1.176253967E0,1.703457642E-1,1.067759583E1,1.074353963E1
7.774867292E0,-1.236728210E0,1.213975525E-1,1.106978027E1,1.113931189E1
7.784937292E0,-1.231339417E0,-3.367996216E-2,1.161105469E1,1.167621180E1
7.795006292E0,-1.184337158E0,-2.290237427E-1,1.227222977E1,1.233137177E1
7.805076292E0,-1.024469604E0,-3.585044861E-1,1.284269348E1,1.288847700E1
7.815145292E0,-7.509883118E-1,-4.281097412E-1,1.322350159E1,1.325172651E1
7.825215292E0,-4.540058899E-1,-3.399430847E-1,1.352168152E1,1.353357136E1
7.835284292E0,-1.526824951E-1,-1.806742859E-1,1.383662659E1,1.383864843E1
7.845353292E0,4.340972900E-3,-1.410067749E-1,1.391416534E1,1.391488049E1
7.855423292E0,-1.508862305E-1,-2.633024597E-1,1.354817642E1,1.355157479E1
7.865492292E0,-2.978805542E-1,-4.661306763E-1,1.289777893E1,1.290963640E1
7.875562292E0,-4.098477173E-1,-7.379653931E-1,1.245050903E1,1.247909224E1
7.885631292E0,-4.842430115E-1,-9.595046997E-1,1.234647537E1,1.239316726E1
7.895700292E0,-2.874023438E-1,-1.015787659E0,1.263642242E1,1.268044149E1
7.905770292E0,5.298980713E-2,-9.919871521E-1,1.336854996E1,1.340540840E1
7.915839292E0,4.715194702E-1,-1.008901978E0,1.395368317E1,1.399805300E1
7.925909292E0,8.907975769E-1,-9.397457886E-1,1.402523438E1,1.408487990E1
7.935978292E0,1.065933380E0,-8.156538391E-1,1.344099930E1,1.350784836E1
7.946047292E0,1.190773773E0,-7.822732544E-1,1.220831268E1,1.229116724E1
7.956117292E0,1.268312531E0,-6.759942627E-1,1.116318604E1,1.125532351E1
7.966186292E0,1.183139648E0,-6.738986206E-1,1.042147842E1,1.051005097E1
7.976256292E0,1.030307465E0,-8.056246948E-1,9.847571869E0,9.934044309E0
7.986325292E0,8.749305725E-1,-9.502239990E-1,9.463320923E0,9.551066540E0
7.996394292E0,7.863148499E-1,-1.050066376E0,9.248966675E0,9.341537078E0
8.006464292E0,7.650590515E-1,-9.309141541E-1,9.278455353E0,9.356369501E0
8.016533292E0,7.408094788E-1,-7.433541870E-1,9.661957855E0,9.718786124E0
8.026603292E0,7.000941467E-1,-6.667135620E-1,9.857900391E0,9.905192522E0
8.036672292E0,6.188131714E-1,-7.312294006E-1,9.774972839E0,9.821798216E0
8.046741292E0,4.995112610E-1,-8.029302979E-1,9.496252441E0,9.543218482E0
8.056811292E0,4.046086121E-1,-8.897497559E-1,8.933572540E0,8.986883836E0
8.066880292E0,3.679348755E-1,-9.081614685E-1,8.277486877E0,8.335281779E0
8.076950292E0,3.418890381E-1,-8.396040344E-1,7.693700867E0,7.746925589E0
8.087019292E0,3.122506714E-1,-7.635621643E-1,7.266040192E0,7.312719585E0
8.097088292E0,2.951861572E-1,-7.438032532E-1,6.951095123E0,6.997006614E0
8.107158292E0,2.891986084E-1,-7.825726318E-1,6.687493286E0,6.739333959E0
8.117227292E0,1.930984497E-1,-8.330177307E-1,6.493197327E0,6.549260804E0
8.127297292E0,1.016386414E-1,-8.334667969E-1,6.402036896E0,6.456862530E0
8.137366292E0,4.176315308E-2,-7.614665222E-1,6.401438141E0,6.446703475E0
8.147435292E0,-5.673202515E-2,-6.551875305E-1,6.404431915E0,6.438108214E0
8.157505292E0,-1.832189941E-1,-6.105802917E-1,6.446195068E0,6.477639103E0
8.167574292E0,-3.119512939E-1,-6.222560120E-1,6.419550476E0,6.457177748E0
8.177644292E0,-4.646337891E-1,-6.571334839E-1,6.380032654E0,6.430592946E0
8.187713292E0,-5.391787720E-1,-6.797364807E-1,6.446494446E0,6.504617289E0
8.197782292E0,-6.128256226E-1,-5.908213806E-1,6.397845612E0,6.454227577E0
8.207852292E0,-6.424639893E-1,-4.264631653E-1,6.400689697E0,6.446972887E0
8.217921292E0,-6.685098267E-1,-2.839595032E-1,6.459068298E0,6.499777048E0
8.227991292E0,-7.553292847E-1,-1.938468933E-1,6.572831726E0,6.618928603E0
8.238060292E0,-8.183482361E-1,-1.317260742E-1,6.758445740E0,6.809084697E0
8.248130292E0,-9.092092896E-1,-7.020401001E-2,7.091054077E0,7.149450193E0
8.258199292E0,-1.075064392E0,-1.161584473E-1,7.568561096E0,7.645415182E0
8.268268292E0,-1.176703033E0,-1.790277100E-1,8.213420105E0,8.299213865E0
8.278338292E0,-1.271605682E0,-3.279679871E-1,9.003327484E0,9.098596034E0
8.288407292E0,-1.328786774E0,-4.816983032E-1,9.807305603E0,9.908630114E0
8.298476292E0,-1.292412415E0,-7.162605286E-1,1.070139633E1,1.080292749E1
8.308546292E0,-1.275347900E0,-1.010698242E0,1.140313705E1,1.151866129E1
8.318615292E0,-1.305135956E0,-1.190025330E0,1.182196609E1,1.195317625E1
8.328685292E0,-1.139879608E0,-1.142873383E0,1.196626602E1,1.207464317E1
8.338754292E0,-9.325607300E-1,-9.237290955E-1,1.185160446E1,1.192407117E1
8.348824292E0,-6.779402161E-1,-6.563850403E-1,1.179816559E1,1.183584199E1
8.358893292E0,-4.975653076E-1,-3.281176758E-1,1.182825302E1,1.184325977E1
8.368962292E0,-3.790118408E-1,-1.083746338E-1,1.194560898E1,1.195211148E1
8.379032292E0,-2.106120300E-1,-8.861572266E-2,1.210562622E1,1.210778247E1
8.389101292E0,-4.191284180E-2,-1.971400452E-1,1.218900284E1,1.219066902E1
8.399172042E0,1.440005493E-1,-3.537144470E-1,1.253433472E1,1.254015139E1
8.409241042E0,2.989283752E-1,-5.081932068E-1,1.287682251E1,1.289031328E1
8.419310042E0,3.812571716E-1,-6.060896301E-1,1.299298096E1,1.301269595E1
8.429380042E0,2.865042114E-1,-6.750961304E-1,1.275647278E1,1.277753643E1
8.439449042E0,2.800675964E-1,-6.442602539E-1,1.253014343E1,1.254982086E1
8.449519042E0,2.896476746E-1,-5.501060486E-1,1.265363663E1,1.266890020E1
8.459588042E0,3.005749512E-1,-3.794609070E-1,1.287831940E1,1.288741426E1
8.469657042E0,3.891906738E-1,-3.679348755E-1,1.304791672E1,1.305890409E1
8.479727042E0,5.123844910E-1,-3.691323853E-1,1.340731934E1,1.342218344E1
8.489796042E0,7.412585449E-1,-2.719844055E-1,1.339983490E1,1.342307771E1
8.499866042E0,1.018781433E0,-7.828720093E-2,1.312515610E1,1.316486867E1
8.509935042E0,1.157692566E0,1.288819885E-1,1.282637741E1,1.287916224E1
8.520004042E0,1.269060974E0,2.908451843E-1,1.226175156E1,1.233067954E1
8.530074042E0,1.434766388E0,4.525090027E-1,1.154998169E1,1.164754893E1
8.540143042E0,1.489851837E0,5.821394348E-1,1.099927689E1,1.111497354E1
8.550213042E0,1.579964447E0,6.860234070E-1,1.076875626E1,1.090564198E1
8.560282042E0,1.642983398E0,7.747888184E-1,1.075917618E1,1.091144189E1
8.570351042E0,1.757944336E0,9.854008484E-1,1.047431854E1,1.066643015E1
8.580421042E0,1.883682861E0,1.296753387E0,1.056308395E1,1.080780149E1
8.590490042E0,1.869462433E0,1.420096893E0,1.086994583E1,1.112057945E1
8.600559042E0,1.749112701E0,1.218915253E0,1.061113403E1,1.082318415E1
8.610629042E0,1.567839661E0,8.804690552E-1,1.006477020E1,1.022413547E1
8.620698042E0,1.319206696E0,5.536985779E-1,9.424252167E0,9.532230448E0
8.630768042E0,1.093326416E0,2.820135498E-1,8.759035492E0,8.831511594E0
8.640837042E0,8.445437622E-1,9.430389404E-2,8.136929169E0,8.181183514E0
8.650906042E0,6.354286194E-1,-2.544708252E-3,7.699089661E0,7.725267478E0
8.660976042E0,4.770579529E-1,-6.601272583E-2,7.335495758E0,7.351288322E0
8.671045042E0,2.553689575E-1,-9.699829102E-2,6.996001740E0,7.001332895E0
8.681115042E0,3.008743286E-2,-1.065783691E-1,6.714586945E0,6.715500133E0
8.691184042E0,-1.672023010E-1,-5.822891235E-2,6.539151764E0,6.541548212E0
8.701253042E0,-3.809577942E-1,5.164260864E-2,6.256988525E0,6.268787858E0
8.711323042E0,-5.867797852E-1,1.095721436E-1,5.916596375E0,5.946631755E0
8.721392042E0,-7.908055115E-1,1.113684082E-1,5.631738739E0,5.688080300E0
8.731462042E0,-9.889933777E-1,6.511459351E-2,5.414091339E0,5.504065119E0
8.741531042E0,-1.112785950E0,-2.859054565E-2,5.276377716E0,5.392519985E0
8.751601042E0,-1.241218872E0,-1.463955688E-1,5.284311218E0,5.430101380E0
8.761670042E0,-1.364263000E0,-3.113525391E-1,5.415737915E0,5.593600907E0
8.771739042E0,-1.455722809E0,-4.522096252E-1,5.646707611E0,5.848839995E0
8.781809042E0,-1.537003784E0,-4.501139832E-1,5.885760498E0,6.099767198E0
8.791878042E0,-1.559906158E0,-3.611988831E-1,6.129154358E0,6.334848459E0
8.801947042E0,-1.555116119E0,-2.345622253E-1,6.446195068E0,6.635272145E0
8.812017042E0,-1.604214020E0,-1.308279419E-1,6.777306519E0,6.965809516E0
8.822086042E0,-1.620230713E0,-3.278182983E-2,7.077432404E0,7.260597196E0
8.832156042E0,-1.553619232E0,4.849914551E-2,7.537575531E0,7.696176308E0
8.842225042E0,-1.511706390E0,1.920506287E-1,8.154442749E0,8.295605837E0
8.852294042E0,-1.404229889E0,3.463796997E-1,8.786727905E0,8.904966466E0
8.862364042E0,-1.269060974E0,4.376898193E-1,9.250762939E0,9.347657626E0
8.872433042E0,-1.203946381E0,5.424719238E-1,9.731862488E0,9.821044250E0
8.882503042E0,-1.118025055E0,5.602848816E-1,1.035786072E1,1.043308094E1
8.892572042E0,-1.103355560E0,4.481680298E-1,1.106199646E1,1.112591631E1
8.902641042E0,-1.123264160E0,2.770738220E-1,1.149714157E1,1.155520474E1
8.912711042E0,-1.133442993E0,1.561253357E-1,1.168874313E1,1.174460660E1
8.922780042E0,-1.109193420E0,8.771759033E-2,1.186792053E1,1.191996402E1
8.932850042E0,-9.665400696E-1,1.612147522E-1,1.206431213E1,1.210404136E1
8.942919042E0,-6.876699829E-1,3.005749512E-1,1.233659592E1,1.235940266E1
8.952988042E0,-2.501298523E-1,4.384382629E-1,1.282907181E1,1.283899827E1
8.963058042E0,1.119671631E-1,6.038442993E-1,1.366822678E1,1.368201695E1
8.973127042E0,4.147874451E-1,6.840774536E-1,1.446157700E1,1.448368806E1
8.983197042E0,5.774990845E-1,4.881349182E-1,1.487307129E1,1.489228090E1
8.993266042E0,5.779481506E-1,2.546205139E-1,1.476664261E1,1.478014173E1
9.003335042E0,6.045927429E-1,8.277786255E-2,1.423644516E1,1.424951772E1
9.013405042E0,5.947132874E-1,4.595443726E-2,1.366044296E1,1.367345961E1
9.023474042E0,5.920188904E-1,5.643264771E-2,1.317140991E1,1.318482878E1
9.033544042E0,6.203100586E-1,2.050735474E-2,1.282952087E1,1.284452455E1
9.043613042E0,7.348219299E-1,-6.571334839E-2,1.263627274E1,1.265779089E1
9.053682042E0,8.616082764E-1,-1.182540894E-1,1.239572296E1,1.242619413E1
9.063752042E0,9.178912354E-1,-1.115180969E-1,1.209589645E1,1.213118591E1
9.073821042E0,8.893006897E-1,-1.688488770E-1,1.166090103E1,1.169598130E1
9.083891042E0,8.833131409E-1,-3.510200500E-1,1.114013397E1,1.118061010E1
9.093960042E0,9.231303406E-1,-6.773414612E-1,1.062266006E1,1.068418775E1
9.104029042E0,9.473799133E-1,-1.032403107E0,1.030502060E1,1.039984781E1
9.114099042E0,1.066532135E0,-1.363664246E0,1.021161484E1,1.035732343E1
9.124168042E0,1.178499298E0,-1.628313904E0,1.026894562E1,1.046381913E1
9.134238042E0,1.329684906E0,-1.728305969E0,1.057056839E1,1.079314688E1
9.144307042E0,1.490300903E0,-1.620979156E0,1.090961334E1,1.112961066E1
9.154376042E0,1.540446625E0,-1.414259033E0,1.099583405E1,1.119292056E1
9.164446042E0,1.457519073E0,-1.226250000E0,1.069585785E1,1.086413485E1
9.174515042E0,1.311123505E0,-1.077160034E0,1.007165588E1,1.021359735E1
9.184585042E0,1.129551086E0,-1.043779449E0,9.491312714E0,9.615111971E0
9.194654042E0,8.629554749E-1,-9.960287476E-1,8.814869385E0,8.912838363E0
9.204723042E0,6.066883850E-1,-9.608518982E-1,8.123906250E0,8.202997009E0
9.214793042E0,5.137316895E-1,-8.538244629E-1,7.633076935E0,7.697843851E0
9.224862042E0,5.352868652E-1,-6.885681152E-1,7.513325958E0,7.563777167E0
9.234931042E0,5.391787720E-1,-5.788462830E-1,7.681725769E0,7.722349873E0
9.245001042E0,5.424719238E-1,-5.737568665E-1,7.998616791E0,8.037496084E0
9.255070042E0,5.197192383E-1,-6.822811890E-1,8.247399445E0,8.291876344E0
9.265140042E0,5.050497437E-1,-7.514373779E-1,8.273145905E0,8.322540269E0
9.275209042E0,4.391867065E-1,-7.161108398E-1,8.086035004E0,8.129554833E0
9.285278042E0,3.402424622E-1,-7.461982727E-1,7.764353943E0,7.807545642E0
9.295348042E0,1.791773987E-1,-8.075706482E-1,7.255412292E0,7.302416205E0
9.305417042E0,-1.437011719E-2,-7.936495972E-1,6.628515930E0,6.675875195E0
9.315487042E0,-7.349716187E-2,-6.891668701E-1,6.158343658E0,6.197221105E0
9.325556042E0,-1.628613281E-1,-5.279521179E-1,5.794749756E0,5.821029289E0
9.335625042E0,-2.519261169E-1,-4.282594299E-1,5.662275238E0,5.684033232E0
9.345695042E0,-3.369493103E-1,-4.394860840E-1,5.748795319E0,5.775407386E0
9.355764042E0,-5.168751526E-1,-4.725672913E-1,5.862409058E0,5.904093472E0
9.365834042E0,-6.658154297E-1,-5.516029358E-1,6.029761047E0,6.091436142E0
9.375903042E0,-8.009843445E-1,-6.182144165E-1,6.412664795E0,6.491997748E0
9.385972042E0,-1.041833496E0,-7.192543030E-1,6.745871887E0,6.863638343E0
9.396041542E0,-1.179846497E0,-8.535250854E-1,7.166796570E0,7.313242502E0
9.406110542E0,-1.301992493E0,-1.033301239E0,7.785460052E0,7.960922317E0
9.416180542E0,-1.406325531E0,-1.205742645E0,8.299341431E0,8.503566017E0
9.426249542E0,-1.483714600E0,-1.401236115E0,8.842711487E0,9.075153889E0
9.436318542E0,-1.494192810E0,-1.550775146E0,9.454638977E0,9.696788845E0
9.446388542E0,-1.284927979E0,-1.555714874E0,1.015308655E1,1.035164021E1
9.456457542E0,-1.064137115E0,-1.497036896E0,1.086276077E1,1.101694508E1
9.466526542E0,-7.719447327E-1,-1.300944672E0,1.158815231E1,1.168647208E1
9.476596542E0,-5.171745300E-1,-1.028960266E0,1.230590973E1,1.235967811E1
9.486665542E0,-3.463796997E-1,-8.219407654E-1,1.280811539E1,1.283913491E1
9.496735542E0,-3.132984924E-1,-6.189628601E-1,1.297397049E1,1.299250481E1
9.506804542E0,-2.148033142E-1,-4.763095093E-1,1.290526337E1,1.291583655E1
9.516873542E0,2.035766602E-2,-3.369493103E-1,1.294014084E1,1.294454303E1
9.526943542E0,3.433859253E-1,-1.128652954E-1,1.308893143E1,1.309392143E1
9.537012542E0,7.902067566E-1,1.884580994E-1,1.317380493E1,1.319882872E1
9.547082542E0,1.310824127E0,3.854484558E-1,1.339444611E1,1.346395250E1
9.557151542E0,1.636995850E0,4.638853455E-1,1.402014496E1,1.412300994E1
9.567220542E0,1.591041412E0,3.957769775E-1,1.434960983E1,1.444296903E1
9.577290542E0,1.507664795E0,3.332070923E-1,1.402014496E1,1.410491208E1
9.587359542E0,1.526226196E0,2.999761963E-1,1.356344467E1,1.365233985E1
9.597429542E0,1.571581879E0,2.932402039E-1,1.326272003E1,1.335872756E1
9.607498542E0,1.522334290E0,3.239263916E-1,1.294537994E1,1.303860774E1
9.617567542E0,1.504820709E0,2.603086853E-1,1.265588196E1,1.274768976E1
9.627637542E0,1.567240906E0,1.805245972E-1,1.247401016E1,1.257337515E1
9.637706542E0,1.683998108E0,9.011260986E-2,1.231893265E1,1.243382771E1
9.647775542E0,1.745220795E0,1.197509766E-2,1.196297287E1,1.208960954E1
9.657845542E0,1.849703522E0,2.320175171E-2,1.123533600E1,1.138660250E1
9.667914542E0,1.948647766E0,1.901046753E-2,1.063957489E1,1.081656800E1
9.677984542E0,2.047891388E0,-9.131011963E-3,1.012823822E1,1.033320628E1
9.688053542E0,2.223625946E0,1.501377869E-1,9.523046722E0,9.780361577E0
9.698122542E0,2.357297974E0,3.915856934E-1,9.133257294E0,9.440687575E0
9.708192542E0,2.487377472E0,6.435118103E-1,8.932225342E0,9.294396360E0
9.718261542E0,2.559527435E0,8.710386658E-1,9.098679199E0,9.491883492E0
9.728331542E0,2.423310699E0,9.681866455E-1,9.641749878E0,9.988651602E0
9.738400542E0,2.055375824E0,7.985893250E-1,1.015383499E1,1.039050912E1
9.748469542E0,1.627266083E0,3.459306335E-1,1.025143204E1,1.038554388E1
9.758539542E0,1.236877899E0,-4.490661621E-3,9.917775879E0,9.994606820E0
9.768608542E0,9.246272278E-1,-2.236349487E-1,9.283095703E0,9.331710129E0
9.778678542E0,6.388714600E-1,-3.121009827E-1,8.603508911E0,8.632840167E0
9.788747542E0,3.495231628E-1,-2.306703186E-1,7.891888733E0,7.902992029E0
9.798816542E0,1.938468933E-1,-1.257385254E-1,7.232360229E0,7.236050116E0
9.808886542E0,3.098556519E-2,-5.867797852E-2,6.762038269E0,6.762363844E0
9.818955542E0,-1.332229614E-1,-5.688171387E-3,6.332281952E0,6.333685770E0
9.829025542E0,-1.889071655E-1,3.607498169E-2,6.015241241E0,6.018314923E0
9.839094542E0,-3.182382202E-1,-2.814147949E-2,5.849835205E0,5.858552674E0
9.849163542E0,-4.397854614E-1,-1.618135071E-1,5.669160919E0,5.688495442E0
9.859233542E0,-5.653742981E-1,-3.053649902E-1,5.565127258E0,5.602101148E0
9.869302542E0,-7.304809570E-1,-4.751119995E-1,5.599855042E0,5.667248920E0
9.879371542E0,-8.785231018E-1,-6.731501770E-1,5.767656097E0,5.872886076E0
9.889441542E0,-1.035097504E0,-9.235794067E-1,6.035299530E0,6.192678433E0
9.899510542E0,-1.179098053E0,-1.078656921E0,6.228697357E0,6.430431070E0
9.909580542E0,-1.263821869E0,-1.151854706E0,6.204747162E0,6.436062641E0
9.919649542E0,-1.292412415E0,-1.042581940E0,6.088888092E0,6.311249096E0
9.929718542E0,-1.371597748E0,-8.560697937E-1,6.119274902E0,6.329270195E0
9.939788542E0,-1.450633392E0,-7.864645386E-1,6.167923737E0,6.384837267E0
9.949857542E0,-1.532064056E0,-7.420069885E-1,6.500831451E0,6.720015194E0
9.959927542E0,-1.568288727E0,-6.457571411E-1,7.114255829E0,7.313628909E0
9.969996542E0,-1.658251648E0,-5.417234802E-1,7.845634918E0,8.037241450E0
9.980065542E0,-1.645827484E0,-5.924679565E-1,8.599467316E0,8.775568614E0
9.990135542E0,-1.595232697E0,-6.477030945E-1,9.489516449E0,9.644439283E0
1.000020454E1,-1.478176117E0,-7.300318909E-1,1.052835617E1,1.065665214E1
1.001027354E1,-1.151555328E0,-7.839198303E-1,1.153770721E1,1.162150153E1
1.002034354E1,-8.918453979E-1,-6.982978821E-1,1.231863327E1,1.237059957E1
1.003041254E1,-6.354286194E-1,-4.948709106E-1,1.272743317E1,1.275289072E1
1.004048254E1,-5.352868652E-1,-2.588117981E-1,1.273282196E1,1.274669646E1
1.005055154E1,-4.872367859E-1,-1.124162292E-1,1.232252518E1,1.233266653E1
1.006062054E1,-4.644841003E-1,-4.745132446E-2,1.185310135E1,1.186229357E1
1.007069054E1,-4.213737488E-1,-1.062789917E-1,1.160656403E1,1.161469670E1
1.008075954E1,-2.829116821E-1,-1.978884888E-1,1.159878021E1,1.160391750E1
1.009082954E1,-9.969268799E-2,-1.927990723E-1,1.194590836E1,1.194788000E1
1.010089854E1,8.666976929E-2,-3.171903992E-1,1.250185226E1,1.250617573E1
1.011096754E1,4.143383789E-1,-5.613327026E-1,1.311303131E1,1.313157876E1
1.012103754E1,7.640112305E-1,-6.532415771E-1,1.354682922E1,1.358407228E1
1.013110654E1,9.988728333E-1,-7.864645386E-1,1.388362885E1,1.394171522E1
1.014117554E1,1.031654663E0,-1.016536102E0,1.390742935E1,1.398264096E1
1.015124554E1,9.225315857E-1,-1.128652954E0,1.327723984E1,1.335702136E1
1.016131454E1,8.638536072E-1,-1.082249451E0,1.252310806E1,1.259943421E1
1.017138454E1,7.517367554E-1,-9.386979675E-1,1.197075668E1,1.203101316E1
1.018145354E1,6.969506836E-1,-8.277786255E-1,1.165656006E1,1.170667972E1
1.019152254E1,8.372090149E-1,-7.397616577E-1,1.160371994E1,1.165737889E1
1.020159254E1,9.602531433E-1,-6.794371033E-1,1.165730850E1,1.171650811E1
1.021166154E1,1.014290771E0,-6.222560120E-1,1.149549500E1,1.155691972E1
1.022173154E1,9.445358276E-1,-6.303392029E-1,1.100571350E1,1.106414050E1
1.023180054E1,7.765850830E-1,-8.264314270E-1,1.022688309E1,1.028956807E1
1.024186954E1,7.466473389E-1,-9.454339600E-1,9.619895325E0,9.695035517E0
1.025193954E1,6.116281128E-1,-1.088087311E0,9.125323792E0,9.210296263E0
1.026200854E1,6.456074524E-1,-1.141376495E0,9.056167603E0,9.150613145E0
1.027207854E1,7.310797119E-1,-1.119372253E0,9.602980499E0,9.695602418E0
1.028214754E1,8.253836060E-1,-1.146914978E0,1.030966095E1,1.040604540E1
1.029221654E1,9.360035706E-1,-9.876461792E-1,1.071636520E1,1.080240857E1
1.030228654E1,9.936337280E-1,-7.158114624E-1,1.067774551E1,1.074774131E1
1.031235554E1,1.063837738E0,-4.266128540E-1,1.020353165E1,1.026770701E1
1.032242454E1,1.182840271E0,-1.104702759E-1,9.428892517E0,9.503437740E0
1.033249454E1,1.196911011E0,6.631210327E-2,8.704698486E0,8.786852053E0
1.034256354E1,1.165027313E0,1.698966980E-1,8.344397736E0,8.427047354E0
1.035263354E1,1.115929413E0,1.977388000E-1,8.108937378E0,8.187750881E0
1.036270254E1,1.036295013E0,1.417552185E-1,7.953859863E0,8.022336855E0
1.037277154E1,9.969268799E-1,4.176315308E-2,8.020770721E0,8.082596757E0
1.038284154E1,8.686436462E-1,-1.871109009E-2,8.048762512E0,8.095521593E0
1.039291054E1,7.319778442E-1,-1.933978271E-1,8.201145630E0,8.236017480E0
1.040297967E1,5.742059326E-1,-5.995033264E-1,8.449479218E0,8.490159936E0
1.041304967E1,4.366419983E-1,-1.042881317E0,8.457263031E0,8.532499965E0
1.042311867E1,3.350033569E-1,-1.306932220E0,8.296197968E0,8.405188861E0
1.043318867E1,2.918930054E-1,-1.335822144E0,8.095016327E0,8.209684017E0
1.044325767E1,2.179467773E-1,-1.244362335E0,7.864495697E0,7.965314243E0
1.045332667E1,1.130149841E-1,-1.068777466E0,7.581584015E0,7.657380351E0
1.046339667E1,-2.185455322E-2,-8.773255920E-1,7.541617126E0,7.592507273E0
1.047346567E1,-2.082170105E-1,-7.354206848E-1,7.579937439E0,7.618375777E0
1.048353567E1,-4.330494690E-1,-7.075785828E-1,7.553741913E0,7.599158913E0
1.049360467E1,-6.268963623E-1,-7.436535645E-1,7.608677673E0,7.670592911E0
1.050367367E1,-8.358618164E-1,-8.318202209E-1,7.780819702E0,7.869672490E0
1.051374367E1,-9.431886292E-1,-9.319619751E-1,7.892786865E0,8.003389433E0
1.052381267E1,-9.830058289E-1,-9.021739197E-1,8.036188660E0,8.146198280E0
1.053388167E1,-1.074914703E0,-8.946894836E-1,8.311615906E0,8.428455959E0
1.054395167E1,-1.081950073E0,-8.710386658E-1,8.615633698E0,8.726881936E0
1.055402067E1,-9.641450500E-1,-8.496331787E-1,9.001980286E0,9.093244816E0
1.056409067E1,-8.303233337E-1,-8.298742676E-1,9.484127655E0,9.556505926E0
1.057415967E1,-7.048841858E-1,-7.518864441E-1,1.009830048E1,1.015075699E1
1.058422867E1,-5.513035583E-1,-6.813830566E-1,1.067385361E1,1.070977914E1
1.059429867E1,-3.851490784E-1,-6.589297485E-1,1.121976837E1,1.124569831E1
1.060436767E1,-2.541714478E-1,-5.813909912E-1,1.152737869E1,1.154482906E1
1.061443667E1,-1.872605896E-1,-5.364843750E-1,1.154878418E1,1.156275478E1
1.062450667E1,-8.128097534E-2,-4.258644104E-1,1.142319534E1,1.143141981E1
1.063457567E1,2.559677124E-2,-2.308200073E-1,1.122455841E1,1.122696061E1
1.064464567E1,6.451583862E-2,-7.679031372E-2,1.086964645E1,1.087010916E1
1.065471467E1,1.044827271E-1,5.763015747E-2,1.058763290E1,1.058830527E1
1.066478367E1,1.175056458E-1,1.202000427E-1,1.024739044E1,1.024876902E1
1.067485367E1,8.053253174E-2,5.553451538E-2,9.853559418E0,9.854044995E0
1.068492267E1,2.110610962E-2,-1.288819885E-1,9.611662445E0,9.612549661E0
1.069499267E1,-5.867797852E-2,-4.008663940E-1,9.445807343E0,9.454491701E0
1.070506167E1,-1.115180969E-1,-6.228547668E-1,9.391919403E0,9.413210633E0
1.071513067E1,-3.749702454E-1,-8.449928284E-1,9.416618042E0,9.461887281E0
1.072520067E1,-6.051914978E-1,-1.097218323E0,9.457782440E0,9.540429418E0
1.073526967E1,-6.616241455E-1,-1.199605408E0,9.527836761E0,9.625823237E0
1.074533867E1,-5.650749207E-1,-9.657916260E-1,9.562863922E0,9.628106227E0
1.075540867E1,-3.686833191E-1,-4.616400146E-1,9.554631042E0,9.572879047E0
1.076547767E1,-3.637435913E-2,8.382568359E-3,9.840985565E0,9.841056359E0
1.077554767E1,2.456391907E-1,3.625460815E-1,1.042821442E1,1.043740553E1
1.078561667E1,4.264631653E-1,5.104385376E-1,1.116528168E1,1.118507636E1
1.079568567E1,6.168672180E-1,3.921844482E-1,1.176298874E1,1.178567936E1
1.080575567E1,6.709048462E-1,2.143542480E-1,1.213810867E1,1.215852554E1
1.081582467E1,7.295828247E-1,5.718109131E-2,1.240215958E1,1.242373225E1
1.082589367E1,9.276210022E-1,-8.023315430E-2,1.254196884E1,1.257648204E1
1.083596367E1,1.251397705E0,1.547781372E-1,1.284254379E1,1.290429710E1
1.084603267E1,1.679507446E0,8.412506104E-1,1.329101120E1,1.342309303E1
1.085610267E1,2.101929016E0,1.672472076E0,1.361179413E1,1.387430026E1
1.086617167E1,2.412832489E0,2.302960968E0,1.398691406E1,1.437912219E1
1.087624067E1,2.706372070E0,2.663710785E0,1.415082321E1,1.465147100E1
1.088631067E1,2.703677673E0,2.749781799E0,1.410636566E1,1.462397774E1
1.089637967E1,2.539918213E0,2.561323700E0,1.365819763E1,1.412649731E1
1.090644867E1,2.264640656E0,2.266885986E0,1.280691788E1,1.320168606E1
1.091651867E1,2.011067963E0,2.039957886E0,1.189471481E1,1.223478905E1
1.092658767E1,1.715432739E0,1.820813599E0,1.095092743E1,1.123302645E1
1.093665767E1,1.366807709E0,1.583556976E0,9.920170898E0,1.013832366E1
1.094672667E1,1.039887543E0,1.317410431E0,9.087751923E0,9.241437732E0
1.095679567E1,7.655081177E-1,1.044228516E0,8.493487701E0,8.591609233E0
1.096686567E1,5.489085388E-1,7.599696350E-1,8.026458893E0,8.081020776E0
1.097693467E1,3.011737061E-1,3.378474426E-1,7.681875458E0,7.695197011E0
1.098700367E1,-1.916015625E-2,-4.114942932E-1,7.487579498E0,7.498902680E0
1.099707367E1,-2.124082947E-1,-9.825567627E-1,7.248227234E0,7.317604329E0
1.100714267E1,-3.555107117E-1,-1.113983459E0,6.845414886E0,6.944569964E0
1.101721267E1,-3.890409851E-1,-9.325607300E-1,6.268065491E0,6.348989479E0
1.102728167E1,-3.924838257E-1,-7.168592834E-1,5.628445587E0,5.687471364E0
1.103735067E1,-4.275109863E-1,-5.656736755E-1,5.107079773E0,5.156065957E0
1.104742067E1,-5.438191223E-1,-4.278103638E-1,4.790338440E0,4.840051995E0
1.105748967E1,-7.014413452E-1,-3.682342529E-1,4.540957031E0,4.609545225E0
1.106755867E1,-8.216413879E-1,-3.791615295E-1,4.424948273E0,4.516528009E0
1.107762867E1,-9.852511597E-1,-2.665956116E-1,4.602030029E0,4.713859720E0
1.108769767E1,-1.146765289E0,-6.706054688E-2,5.081333313E0,5.209560057E0
1.109776767E1,-1.224902802E0,7.334747314E-2,5.584736481E0,5.717958402E0
1.110783667E1,-1.339414673E0,2.487826538E-1,6.231242065E0,6.378424739E0
1.111790567E1,-1.355730743E0,5.081932068E-1,7.070696411E0,7.217410472E0
1.112797567E1,-1.321452026E0,7.640112305E-1,7.774832153E0,7.923254611E0
1.113804467E1,-1.303938446E0,1.030457153E0,8.461753693E0,8.623420027E0
1.114811367E1,-1.343605957E0,1.183289337E0,9.246571655E0,9.418308659E0
1.115818367E1,-1.355431366E0,1.270707550E0,1.002001328E1,1.019080752E1
1.116825267E1,-1.371747437E0,1.290466461E0,1.074779984E1,1.091156249E1
1.117832267E1,-1.471440125E0,1.341061249E0,1.124521545E1,1.142008984E1
1.118839167E1,-1.505269775E0,1.527274017E0,1.169083878E1,1.188587878E1
1.119846067E1,-1.521286469E0,1.722468109E0,1.211191315E1,1.232800264E1
1.120853067E1,-1.557810516E0,1.832788696E0,1.239826767E1,1.262944691E1
1.121859967E1,-1.579365692E0,1.734293518E0,1.258313324E1,1.279989891E1
1.122866867E1,-1.664089508E0,1.473386078E0,1.260798157E1,1.280239273E1
1.123873867E1,-1.644929352E0,1.287023621E0,1.274210266E1,1.291214167E1
1.124880767E1,-1.538650360E0,1.156345367E0,1.304686890E1,1.318807672E1
1.125887767E1,-1.504820709E0,9.770182800E-1,1.325433746E1,1.337522006E1
1.126894667E1,-1.392554169E0,7.488926697E-1,1.346420105E1,1.355672369E1
1.127901567E1,-1.224603424E0,5.965095520E-1,1.361688354E1,1.368484544E1
1.128908567E1,-1.057850189E0,5.481600952E-1,1.370789429E1,1.375957457E1
1.129915467E1,-9.319619751E-1,4.697232056E-1,1.346000977E1,1.350040947E1
1.130922467E1,-9.539662170E-1,2.561174011E-1,1.312620392E1,1.316331558E1
1.131929367E1,-1.067130890E0,-2.694396973E-2,1.264794846E1,1.269291513E1
1.132936267E1,-1.076860657E0,-1.948947144E-1,1.199201248E1,1.204184272E1
1.133943267E1,-1.042881317E0,-1.889071655E-1,1.168080963E1,1.172879367E1
1.134950167E1,-8.128097534E-1,-1.664538574E-1,1.188109314E1,1.191002690E1
1.135957067E1,-3.567082214E-1,-2.026785278E-1,1.217118988E1,1.217810258E1
1.136964067E1,2.356100464E-1,-8.637039185E-2,1.245784378E1,1.246037093E1
1.137970967E1,5.864804077E-1,-5.538482666E-3,1.261711258E1,1.263073710E1
1.138977967E1,7.361691284E-1,-1.380130005E-1,1.208556793E1,1.210875488E1
1.139984879E1,8.147557068E-1,-5.324427795E-1,1.105885300E1,1.110160132E1
1.140991779E1,7.876620483E-1,-9.762698364E-1,1.013362701E1,1.021097012E1
1.141998779E1,6.536906433E-1,-1.373843079E0,9.409882050E0,9.532084580E0
1.143005679E1,5.777984619E-1,-1.724863129E0,8.901539154E0,9.085505115E0
1.144012579E1,6.463558960E-1,-1.811083832E0,8.768914948E0,8.977286335E0
1.145019579E1,8.931925964E-1,-1.586700439E0,9.173373871E0,9.352336578E0
1.146026479E1,1.214723969E0,-1.119222565E0,1.016910324E1,1.030237226E1
1.147033379E1,1.343755646E0,-6.927593994E-1,1.087817871E1,1.098273039E1
1.148040379E1,1.436862030E0,-5.321434021E-1,1.100331848E1,1.110948994E1
1.149047279E1,1.452130280E0,-5.938151550E-1,1.069031937E1,1.080482424E1
1.150054279E1,1.296454010E0,-8.068222046E-1,1.008033783E1,1.019534040E1
1.151061179E1,1.172511749E0,-1.009949799E0,9.239685974E0,9.368381893E0
1.152068079E1,1.010249176E0,-1.061143341E0,8.377628632E0,8.504780425E0
1.153075079E1,7.988887024E-1,-1.012045441E0,7.923173676E0,8.027399344E0
1.154081979E1,6.153703308E-1,-8.394543457E-1,7.560477905E0,7.631788152E0
1.155088879E1,4.593946838E-1,-6.514453125E-1,7.217391357E0,7.261278295E0
1.156095879E1,2.718347168E-1,-5.019062805E-1,7.101232910E0,7.124135939E0
1.157102779E1,8.277786255E-2,-3.718267822E-1,7.123686218E0,7.133863796E0
1.158109779E1,-8.397537231E-2,-3.502716064E-1,7.062762909E0,7.071941881E0
1.159116679E1,-2.698887634E-1,-5.135820007E-1,6.822063446E0,6.846689425E0
1.160123579E1,-4.315525818E-1,-7.571255493E-1,6.392307129E0,6.451439154E0
1.161130579E1,-6.289920044E-1,-9.433383179E-1,6.116430817E0,6.220630519E0
1.162137479E1,-7.634124756E-1,-9.951306152E-1,5.923182678E0,6.054517040E0
1.163144379E1,-7.921527100E-1,-1.000519409E0,5.660179596E0,5.802256291E0
1.164151379E1,-9.009764099E-1,-9.446855164E-1,5.445376282E0,5.599670710E0
1.165158279E1,-9.973759460E-1,-8.514294434E-1,5.463787994E0,5.618956320E0
1.166165279E1,-1.164578247E0,-8.214916992E-1,5.511688385E0,5.692960562E0
1.167172179E1,-1.379082184E0,-8.493338013E-1,5.725294189E0,5.949977238E0
1.168179079E1,-1.559457092E0,-9.213340759E-1,6.277645569E0,6.533727634E0
1.169186079E1,-1.821412354E0,-1.066083069E0,7.037315826E0,7.346964687E0
1.170192979E1,-1.941013641E0,-1.097817078E0,7.729476471E0,8.044721425E0
1.171199879E1,-2.057172089E0,-1.041234741E0,8.419691162E0,8.729680753E0
1.172206879E1,-2.152224426E0,-8.951385498E-1,9.095685425E0,9.389613216E0
1.173213779E1,-2.139051819E0,-8.207432556E-1,9.846973114E0,1.010999712E1
1.174220779E1,-2.256258087E0,-9.578581238E-1,1.058838135E1,1.086839511E1
1.175227679E1,-2.182760925E0,-1.146765289E0,1.122605530E1,1.149364318E1
1.176234579E1,-1.960922241E0,-1.192270660E0,1.179711777E1,1.201826581E1
1.177241579E1,-1.712738342E0,-1.047821045E0,1.226654160E1,1.242978054E1
1.178248479E1,-1.416953430E0,-7.351213074E-1,1.234063751E1,1.244345188E1
1.179255379E1,-1.146166534E0,-3.770658875E-1,1.222642502E1,1.228581886E1
1.180262379E1,-9.650431824E-1,3.861968994E-2,1.211879883E1,1.215722357E1
1.181269279E1,-8.735833740E-1,2.948867798E-1,1.192076065E1,1.195636402E1
1.182276179E1,-7.819738770E-1,4.049079895E-1,1.182121765E1,1.185397066E1
1.183283179E1,-6.530918884E-1,3.501219177E-1,1.210487778E1,1.212753810E1
1.184290079E1,-5.288502502E-1,2.101629639E-1,1.251068390E1,1.252362019E1
1.185297079E1,-3.073109436E-1,1.029858398E-1,1.290032364E1,1.290439445E1
1.186303979E1,-1.460961914E-1,6.301895142E-2,1.316961365E1,1.317057474E1
1.187310879E1,-7.888595581E-2,2.095642090E-3,1.320074890E1,1.320098477E1
1.188317879E1,-6.361770630E-2,2.215393066E-2,1.296409103E1,1.296426606E1
1.189324779E1,-2.688409424E-1,6.466552734E-2,1.237102432E1,1.237411410E1
1.190331679E1,-3.598516846E-1,6.466552734E-2,1.179337555E1,1.179904156E1
1.191338679E1,-3.567082214E-1,1.026864624E-1,1.144490021E1,1.145091813E1
1.192345579E1,-3.797602844E-1,1.718426514E-1,1.135194351E1,1.135959371E1
1.193352579E1,-2.017803955E-1,1.613644409E-1,1.142214752E1,1.142506927E1
1.194359479E1,1.556762695E-2,6.137237549E-3,1.155986115E1,1.155987326E1
1.195366379E1,2.790197754E-1,-1.633103943E-1,1.161000687E1,1.161450738E1
1.196373379E1,5.572911072E-1,-2.345622253E-1,1.133023865E1,1.134636068E1
1.197380279E1,7.069798279E-1,-2.300715637E-1,1.071696396E1,1.074272172E1
1.198387179E1,8.372090149E-1,-2.924917603E-1,9.890233154E0,9.929913505E0
1.199394179E1,9.900411987E-1,-3.481759644E-1,9.061107330E0,9.121681541E0
1.200401079E1,1.024319916E0,-2.842588806E-1,8.373287659E0,8.440496467E0
1.201408079E1,1.178050232E0,2.859054565E-2,8.279732208E0,8.363168371E0
1.202414979E1,1.382674713E0,5.078938293E-1,8.671916656E0,8.796128921E0
1.203421879E1,1.404080200E0,9.099577332E-1,9.282047882E0,9.431642337E0
1.204428879E1,1.303339691E0,1.095721436E0,9.715097351E0,9.863184899E0
1.205435779E1,1.169817352E0,8.577163696E-1,9.978699188E0,1.008358009E1
1.206442679E1,9.476792908E-1,4.300556946E-1,9.800419922E0,9.855520006E0
1.207449679E1,7.819738770E-1,1.028361511E-1,9.051377563E0,9.085675221E0
1.208456579E1,7.427554321E-1,-9.250762939E-2,8.189619598E0,8.223752943E0
1.209463479E1,5.774990845E-1,-1.462458801E-1,7.265591125E0,7.289973076E0
1.210470479E1,4.326004028E-1,-3.427871704E-2,6.387217712E0,6.401942537E0
1.211477379E1,3.832031250E-1,2.180964661E-1,5.918692017E0,5.935092745E0
1.212484379E1,3.832031250E-1,5.057981873E-1,5.836512909E0,5.870907884E0
1.213491279E1,1.980381775E-1,7.225474548E-1,6.219716034E0,6.264675689E0
1.214498179E1,-2.724334717E-2,7.316784668E-1,6.844367065E0,6.883418926E0
1.215505179E1,-3.077600098E-1,3.558100891E-1,7.509883118E0,7.524603743E0
1.216512079E1,-6.475534058E-1,-2.095642090E-1,7.876171417E0,7.905524572E0
1.217518979E1,-9.626481628E-1,-7.484436035E-1,8.037685547E0,8.129652407E0
1.218525979E1,-1.221609650E0,-1.095721436E0,7.990383911E0,8.157154568E0
1.219532879E1,-1.223106537E0,-1.049018555E0,7.695497131E0,7.862385492E0
1.220539879E1,-1.119521942E0,-7.975415039E-1,7.446265411E0,7.572071738E0
1.221546779E1,-1.182391205E0,-5.502557373E-1,7.187453613E0,7.304814835E0
1.222553679E1,-1.274749146E0,-4.514611816E-1,6.932234344E0,7.062908437E0
1.223560679E1,-1.353934479E0,-5.010081482E-1,6.946155396E0,7.094591075E0
1.224567579E1,-1.564396820E0,-6.342311096E-1,7.193141785E0,7.388563815E0
1.225574479E1,-1.770218811E0,-8.451425171E-1,7.484136658E0,7.736940094E0
1.226581479E1,-1.810784454E0,-1.027762756E0,8.059390411E0,8.324002068E0
1.227588379E1,-1.825603638E0,-1.085991669E0,8.675209808E0,8.931487657E0
1.228595279E1,-1.898951111E0,-1.184486847E0,9.480684814E0,9.741273477E0
1.229602279E1,-1.834135895E0,-1.367107086E0,1.027553192E1,1.052708851E1
1.230609179E1,-1.886826324E0,-1.320703583E0,1.070783295E1,1.095271920E1
1.231616179E1,-1.823807373E0,-1.145717468E0,1.102577179E1,1.123417044E1
1.232623079E1,-1.694027252E0,-9.436376953E-1,1.120704483E1,1.137356735E1
1.233629979E1,-1.704655151E0,-6.548881531E-1,1.126257935E1,1.140966350E1
1.234636979E1,-1.667532349E0,-4.514611816E-1,1.115555191E1,1.128852602E1
1.235643879E1,-1.708996124E0,-4.079017639E-1,1.113728989E1,1.127502894E1
1.236650779E1,-1.766027527E0,-4.131408691E-1,1.119237534E1,1.133837750E1
1.237657779E1,-1.701661377E0,-4.222718811E-1,1.130344437E1,1.143861091E1
1.238664679E1,-1.623523865E0,-5.292993164E-1,1.154713760E1,1.167271924E1
1.239671729E1,-1.509011993E0,-7.286846924E-1,1.210862000E1,1.222402457E1
1.240678629E1,-1.372495880E0,-9.584568787E-1,1.270962021E1,1.281939275E1
1.241685529E1,-1.153201904E0,-1.077160034E0,1.315733917E1,1.325163094E1
1.242692529E1,-8.801696777E-1,-9.988728333E-1,1.354503296E1,1.361030358E1
1.243699429E1,-6.932084656E-1,-9.165440369E-1,1.380594040E1,1.385368475E1
1.244706329E1,-5.978567505E-1,-8.967851257E-1,1.382255585E1,1.386451248E1
1.245713329E1,-6.381230164E-1,-8.982820129E-1,1.361433884E1,1.365885550E1
1.246720229E1,-6.780899048E-1,-9.366023254E-1,1.328382614E1,1.333405665E1
1.247727129E1,-5.993536377E-1,-1.010099487E0,1.299477722E1,1.304774926E1
1.248734129E1,-3.653901672E-1,-9.400451660E-1,1.288161255E1,1.292103466E1
1.249741029E1,3.951782227E-2,-8.342152405E-1,1.281410294E1,1.284128930E1
1.250748029E1,4.960684204E-1,-6.981481934E-1,1.277832733E1,1.280699591E1
1.251754929E1,9.011260986E-1,-5.716612244E-1,1.257774445E1,1.262293469E1
1.252761829E1,1.177750854E0,-5.087919617E-1,1.207164688E1,1.213963034E1
1.253768829E1,1.318907318E0,-5.037025452E-1,1.137903717E1,1.146628622E1
1.254775729E1,1.469194794E0,-5.276527405E-1,1.079704742E1,1.090931638E1
1.255782629E1,1.402283936E0,-6.915618896E-1,1.036175262E1,1.047905413E1
1.256789629E1,1.307680664E0,-9.367520142E-1,1.011820908E1,1.024527637E1
1.257796529E1,1.221609650E0,-1.236578522E0,1.013467484E1,1.028265970E1
1.258803429E1,1.093027039E0,-1.491049347E0,1.046878006E1,1.063077101E1
1.259810429E1,1.038690033E0,-1.547481995E0,1.092563004E1,1.108345475E1
1.260817329E1,1.057999878E0,-1.477727051E0,1.091425369E1,1.106453680E1
1.261824329E1,1.073717194E0,-1.301992493E0,1.048554520E1,1.062048545E1
1.262831229E1,1.028960266E0,-1.070573730E0,9.823022919E0,9.934619600E0
1.263838129E1,9.620494080E-1,-9.220825195E-1,9.259594574E0,9.354991551E0
1.264845129E1,8.964857483E-1,-9.213340759E-1,8.548423462E0,8.644540870E0
1.265852029E1,8.731343079E-1,-8.848100281E-1,7.937693481E0,8.034440249E0
1.266858929E1,8.146060181E-1,-8.068222046E-1,7.774832153E0,7.858915959E0
1.267865929E1,8.412506104E-1,-7.940986633E-1,7.916587372E0,8.000665653E0
1.268872829E1,7.948471069E-1,-8.183482361E-1,8.043822784E0,8.124319094E0
1.269879729E1,7.283853149E-1,-7.541317749E-1,7.988288269E0,8.056798953E0
1.270886729E1,6.676116943E-1,-5.885760498E-1,7.992778931E0,8.042178944E0
1.271893629E1,5.013075256E-1,-4.674778748E-1,7.867339783E0,7.897143791E0
1.272900629E1,2.415975952E-1,-6.815327454E-1,7.499105530E0,7.533886117E0
1.273907529E1,1.990859985E-2,-9.776170349E-1,6.962172089E0,7.030502942E0
1.274914429E1,-1.377136230E-1,-1.056502991E0,6.409072266E0,6.497027853E0
1.275921429E1,-2.688409424E-1,-9.397457886E-1,5.860912170E0,5.941859058E0
1.276928329E1,-4.408332825E-1,-7.671546936E-1,5.428162079E0,5.499800347E0
1.277935229E1,-5.969586182E-1,-5.864804077E-1,5.115761719E0,5.183757018E0
1.278942229E1,-7.881111145E-1,-4.755610657E-1,4.941224670E0,5.026229074E0
1.279949129E1,-9.801617432E-1,-4.782554626E-1,4.884193268E0,5.004476916E0
1.280956029E1,-1.165626068E0,-6.938072205E-1,5.125042419E0,5.301519819E0
1.281963029E1,-1.338067474E0,-1.008901978E0,5.586233368E0,5.832178924E0
1.282969929E1,-1.456022186E0,-1.321002960E0,6.190676422E0,6.495346333E0
1.283976929E1,-1.501377869E0,-1.574276276E0,7.076384583E0,7.403222275E0
1.284983829E1,-1.582060089E0,-1.714534607E0,7.820487213E0,8.161039351E0
1.285990729E1,-1.610650635E0,-1.731898499E0,8.346792755E0,8.675402998E0
1.286997729E1,-1.585802307E0,-1.577270050E0,8.744515686E0,9.026023729E0
1.288004629E1,-1.517095184E0,-1.392254791E0,9.094188538E0,9.324388257E0
1.289011529E1,-1.500779114E0,-1.347946930E0,9.530381470E0,9.741533238E0
1.290018529E1,-1.434317322E0,-1.362766113E0,1.017134857E1,1.036198482E1
1.291025429E1,-1.311273193E0,-1.246308289E0,1.079959213E1,1.095006447E1
1.292032329E1,-1.185983734E0,-1.073268127E0,1.133233429E1,1.144466087E1
1.293039329E1,-9.824070740E-1,-7.622149658E-1,1.176972473E1,1.183522351E1
1.294046229E1,-6.511459351E-1,-3.309617615E-1,1.208526855E1,1.210732187E1
1.295053229E1,-4.587959290E-1,7.783813477E-2,1.232581833E1,1.233459971E1
1.296060129E1,-2.782713318E-1,3.272195435E-1,1.233869156E1,1.234616608E1
1.297067029E1,-5.852828979E-2,5.134323120E-1,1.243958176E1,1.245031054E1
1.298074029E1,1.077758789E-1,6.113287354E-1,1.266082169E1,1.267603030E1
1.299080929E1,3.017724609E-1,5.577401733E-1,1.281799484E1,1.283367182E1
1.300087829E1,4.364923096E-1,3.912863159E-1,1.290331741E1,1.291662614E1
1.301094829E1,4.153862000E-1,3.028202820E-1,1.296454010E1,1.297472720E1
1.302101729E1,2.591111755E-1,2.342628479E-1,1.298893936E1,1.299363550E1
1.303108629E1,2.330653381E-1,2.751278687E-1,1.290631119E1,1.291134707E1
1.304115629E1,3.192860413E-1,4.064048767E-1,1.299627411E1,1.300654640E1
1.305122529E1,2.899470520E-1,5.189707947E-1,1.313069458E1,1.314414471E1
1.306129529E1,3.005749512E-1,5.599855042E-1,1.293355453E1,1.294916067E1
1.307136429E1,3.885919189E-1,4.971162415E-1,1.293954208E1,1.295491712E1
1.308143329E1,4.957690430E-1,3.944297791E-1,1.289568329E1,1.291123578E1
1.309150329E1,6.140231323E-1,3.703298950E-1,1.248119522E1,1.250177599E1
1.310157229E1,6.888674927E-1,4.643344116E-1,1.198617462E1,1.201492934E1
1.311164129E1,7.613168335E-1,5.749543762E-1,1.132679581E1,1.136690279E1
1.312171129E1,8.074209595E-1,6.598278809E-1,1.058987823E1,1.064109123E1
1.313178029E1,7.550299072E-1,7.173083496E-1,1.000833755E1,1.006237656E1
1.314184929E1,8.183482361E-1,8.104147339E-1,9.680369568E0,9.748642000E0
1.315191929E1,1.099014587E0,1.076860657E0,9.905651093E0,1.002443941E1
1.316198829E1,1.303339691E0,1.571282501E0,1.069331314E1,1.088643968E1
1.317205729E1,1.385818176E0,2.234403534E0,1.161674286E1,1.191057370E1
1.318212729E1,1.404678955E0,2.660717010E0,1.202090240E1,1.239171629E1
1.319219629E1,1.483564911E0,2.609373779E0,1.193872330E1,1.231027661E1
1.320226629E1,1.124910736E0,2.181862793E0,1.122246277E1,1.148780310E1
1.321233529E1,8.181985474E-1,1.573677521E0,1.015608032E1,1.030979521E1
1.322240429E1,7.295828247E-1,1.103355560E0,9.225615234E0,9.319960356E0
1.323247429E1,6.236032104E-1,7.620652771E-1,8.433013458E0,8.490308619E0
1.324254329E1,6.569837952E-1,6.258485413E-1,7.798782349E0,7.851389700E0
1.325261229E1,5.602848816E-1,5.369334412E-1,7.307054901E0,7.348147249E0
1.326268229E1,5.364843750E-1,3.523672485E-1,6.885980530E0,6.915830103E0
1.327275129E1,5.310955811E-1,1.315763855E-1,6.665039978E0,6.687460861E0
1.328282029E1,3.632945251E-1,2.230361938E-2,6.517746277E0,6.527901416E0
1.329289029E1,2.151026917E-1,-6.616241455E-2,6.509962463E0,6.513851235E0
1.330295929E1,3.532653809E-2,-1.987866211E-1,6.468648376E0,6.471798506E0
1.331302929E1,-1.857637024E-1,-3.661386108E-1,6.403234406E0,6.416383443E0
1.332309829E1,-3.490740967E-1,-5.761518860E-1,6.297554169E0,6.333481841E0
1.333316729E1,-5.216651917E-1,-8.593629456E-1,6.149212646E0,6.230847087E0
1.334323729E1,-7.821235657E-1,-1.100511475E0,6.066734161E0,6.215151339E0
1.335330629E1,-9.370513916E-1,-1.312620392E0,6.036497040E0,6.248226478E0
1.336337529E1,-9.918374634E-1,-1.488804016E0,6.068530426E0,6.326716406E0
1.337344529E1,-9.987231445E-1,-1.488055573E0,6.081104279E0,6.339683474E0
1.338351429E1,-8.634045410E-1,-1.298250275E0,6.106251984E0,6.302161095E0
1.339358329E1,-8.424481201E-1,-9.991722107E-1,6.130651245E0,6.268408780E0
1.340365217E1,-8.325686646E-1,-7.882608032E-1,6.310277710E0,6.413589514E0
1.341372117E1,-7.830216980E-1,-6.502478027E-1,6.818770294E0,6.894314579E0
1.342379017E1,-7.578739929E-1,-6.596781921E-1,7.429799652E0,7.497430972E0
1.343386017E1,-6.536906433E-1,-6.108796692E-1,8.108787689E0,8.157997500E0
1.344392917E1,-6.580316162E-1,-4.174818420E-1,8.768465881E0,8.803027355E0
1.345399817E1,-7.035369873E-1,-2.430944824E-1,9.198222198E0,9.228290786E0
1.346406817E1,-6.985972595E-1,-2.224374390E-1,9.597741394E0,9.625702905E0
1.347413717E1,-8.476872253E-1,-2.902464294E-1,1.012434631E1,1.016391681E1
1.348420717E1,-1.031954041E0,-4.170327759E-1,1.063807800E1,1.069614646E1
1.349427617E1,-1.166673889E0,-5.083428955E-1,1.092233688E1,1.099622587E1
1.350434517E1,-1.249601440E0,-5.411247253E-1,1.114237930E1,1.122528112E1
1.351441517E1,-1.227297821E0,-4.342469788E-1,1.152902527E1,1.160229520E1
1.352448417E1,-1.229842529E0,-3.839515686E-1,1.179217804E1,1.186235197E1
1.353455317E1,-1.134939880E0,-3.538641357E-1,1.198273178E1,1.204156009E1
1.354462317E1,-9.797126770E-1,-4.023632813E-1,1.226339813E1,1.230904817E1
1.355469217E1,-7.692503357E-1,-3.899391174E-1,1.254047195E1,1.257009290E1
1.356476117E1,-5.300477600E-1,-3.739224243E-1,1.265408569E1,1.267070059E1
1.357483117E1,-3.540138245E-1,-4.852908325E-1,1.278925461E1,1.280335372E1
1.358490017E1,-1.812730408E-1,-6.994953918E-1,1.298160461E1,1.300170035E1
1.359496917E1,-5.403762817E-2,-9.180409241E-1,1.309147614E1,1.312373676E1
1.360503917E1,2.888992310E-2,-1.112336884E0,1.323397980E1,1.328067578E1
1.361510817E1,1.228944397E-1,-1.303639069E0,1.329535217E1,1.335967691E1
1.362517817E1,2.165995789E-1,-1.434467010E0,1.327200073E1,1.335105293E1
1.363524717E1,3.412902832E-1,-1.369801483E0,1.333457062E1,1.340908680E1
1.364531617E1,5.330415344E-1,-1.179397430E0,1.331556015E1,1.337831281E1
1.365538617E1,8.638536072E-1,-9.515711975E-1,1.327170135E1,1.333378370E1
1.366545517E1,1.182091827E0,-7.379653931E-1,1.308878174E1,1.316275584E1
1.367552417E1,1.324296112E0,-6.194119263E-1,1.258313324E1,1.266778092E1
1.368559417E1,1.180744629E0,-6.578819275E-1,1.158201508E1,1.166061918E1
1.369566317E1,1.051263885E0,-9.042695618E-1,1.075663147E1,1.084564335E1
1.370573217E1,8.641529846E-1,-1.200802917E0,1.018062927E1,1.028756047E1
1.371580217E1,7.101232910E-1,-1.382674713E0,9.705816650E0,9.829493441E0
1.372587117E1,8.162525940E-1,-1.360520782E0,9.921667786E0,1.004772495E1
1.373594017E1,8.509803772E-1,-1.308279419E0,1.084419937E1,1.095593093E1
1.374601017E1,9.201365662E-1,-1.231489105E0,1.179412399E1,1.189388824E1
1.375607917E1,1.003363495E0,-1.137334900E0,1.217747681E1,1.227156104E1
1.376614917E1,1.036744080E0,-1.036295013E0,1.209544739E1,1.218394818E1
1.377621817E1,1.084644470E0,-8.946894836E-1,1.140178986E1,1.148815628E1
1.378628717E1,1.107546844E0,-7.375163269E-1,1.046054718E1,1.054483938E1
1.379635717E1,1.044976959E0,-6.816824341E-1,9.529782715E0,9.611109529E0
1.380642617E1,9.777667236E-1,-6.691085815E-1,8.778495026E0,8.858087207E0
1.381649517E1,9.285191345E-1,-6.249504089E-1,8.048163757E0,8.125616940E0
1.382656517E1,9.273216248E-1,-5.583389282E-1,7.613767090E0,7.690326199E0
1.383663417E1,9.843530273E-1,-5.384303284E-1,7.397167511E0,7.481774207E0
1.384670317E1,1.040935364E0,-5.186714172E-1,7.503895569E0,7.593485048E0
1.385677317E1,1.015937347E0,-4.546046448E-1,7.589966583E0,7.671139864E0
1.386684217E1,9.921368408E-1,-4.156855774E-1,7.429649963E0,7.507118528E0
1.387691117E1,9.479786682E-1,-3.679348755E-1,7.172035675E0,7.243765275E0
1.388698117E1,7.011419678E-1,-3.441343689E-1,6.869664459E0,6.913922064E0
1.389705017E1,4.507127380E-1,-4.932243347E-1,6.406976624E0,6.441720397E0
1.390712017E1,2.835104370E-1,-6.077362061E-1,5.930966492E0,5.968759083E0
1.391718917E1,2.245330811E-3,-6.360273743E-1,5.551056519E0,5.587375442E0
1.392725817E1,-2.592608643E-1,-6.741979980E-1,5.279970245E0,5.329150488E0
1.393732817E1,-4.478686523E-1,-7.006929016E-1,5.098996582E0,5.166364584E0
1.394739717E1,-6.493496704E-1,-7.153623962E-1,5.223537598E0,5.312131718E0
1.395746617E1,-8.306227112E-1,-7.649093628E-1,5.556894379E0,5.670458144E0
1.396753617E1,-9.159452820E-1,-8.414002991E-1,5.947132874E0,6.075796214E0
1.397760517E1,-1.024170227E0,-9.885443115E-1,6.445895691E0,6.601190481E0
1.398767417E1,-1.043629761E0,-1.139729919E0,7.114405518E0,7.280309968E0
1.399774417E1,-1.020128632E0,-1.260079651E0,7.886200562E0,8.051125539E0
1.400781317E1,-1.057550812E0,-1.326092377E0,8.480015717E0,8.647982497E0
1.401788217E1,-1.020428009E0,-1.187181244E0,9.085356903E0,9.219239811E0
1.402795217E1,-9.798623657E-1,-1.057700500E0,9.798773346E0,9.904282896E0
1.403802117E1,-9.871971130E-1,-1.049617310E0,1.031939072E1,1.041950476E1
1.404809017E1,-9.101074219E-1,-9.134005737E-1,1.077938416E1,1.085622950E1
1.405816017E1,-7.857160950E-1,-7.613168335E-1,1.126751907E1,1.132050967E1
1.406822917E1,-6.756948853E-1,-7.192543030E-1,1.178229858E1,1.182355489E1
1.407829917E1,-6.123765564E-1,-6.703060913E-1,1.216535202E1,1.219918461E1
1.408836817E1,-4.090992737E-1,-7.120692444E-1,1.231324448E1,1.234059943E1
1.409843717E1,-1.692979431E-1,-7.191046143E-1,1.235575607E1,1.237782216E1
1.410850717E1,1.423539734E-1,-5.255570984E-1,1.231623825E1,1.232826831E1
1.411857617E1,4.791535950E-1,-1.049317932E-1,1.252071304E1,1.253031739E1
1.412864517E1,8.466394043E-1,3.053649902E-1,1.293100983E1,1.296229382E1
1.413871517E1,1.095571747E0,4.367916870E-1,1.334370163E1,1.339572460E1
1.414878417E1,1.128952332E0,3.406915283E-1,1.370055954E1,1.375121579E1
1.415885317E1,9.662406921E-1,8.322692871E-2,1.387644379E1,1.391029259E1
1.416892317E1,8.490344238E-1,-8.262817383E-2,1.373214386E1,1.375861410E1
1.417899217E1,7.342231750E-1,-7.035369873E-3,1.346150665E1,1.348151677E1
1.418906117E1,5.557942200E-1,1.442999268E-1,1.311392944E1,1.312649516E1
1.419913117E1,4.601431274E-1,3.653901672E-1,1.272743317E1,1.274098884E1
1.420920017E1,4.408332825E-1,5.754034424E-1,1.259196487E1,1.261281105E1
1.421926917E1,4.899311829E-1,5.966592407E-1,1.258867172E1,1.261232296E1
1.422933917E1,5.981561279E-1,3.748205566E-1,1.257130783E1,1.259111043E1
1.423940817E1,6.710545349E-1,2.305206299E-2,1.249122437E1,1.250925784E1
1.424947817E1,7.512876892E-1,-1.728904724E-1,1.217702774E1,1.220140684E1
1.425954717E1,9.145980835E-1,-8.202941895E-2,1.174622360E1,1.178206210E1
1.426961617E1,9.454339600E-1,1.249900818E-1,1.128129044E1,1.132152736E1
1.427968617E1,8.499325562E-1,3.276686096E-1,1.083282303E1,1.087105362E1
1.428975517E1,8.789721680E-1,7.104226685E-1,1.025457550E1,1.031666667E1
1.429982417E1,8.869056702E-1,1.235231323E0,9.848919067E0,9.965621149E0
1.430989417E1,9.330097961E-1,1.740430756E0,9.808353424E0,1.000516883E1
1.431996317E1,9.286688232E-1,2.227218475E0,1.023361908E1,1.051427065E1
1.433003217E1,7.777825928E-1,2.526296539E0,1.062700104E1,1.095081143E1
1.434010217E1,7.583230591E-1,2.494712219E0,1.075558365E1,1.106712350E1
1.435017117E1,4.683760071E-1,1.874402161E0,1.058419006E1,1.075908169E1
1.436024017E1,2.315684509E-1,1.066083069E0,1.019470001E1,1.025290522E1
1.437031017E1,1.495390320E-1,3.772155762E-1,9.657766571E0,9.666287222E0
1.438037917E1,1.833686829E-1,-7.708969116E-2,9.055119781E0,9.057304298E0
1.439044817E1,3.525169373E-1,-1.555265808E-1,8.476423187E0,8.485175706E0
1.440051842E1,5.774990845E-1,-4.760101318E-2,7.898175659E0,7.919403374E0
1.441058742E1,7.658074951E-1,3.367996216E-2,7.400310974E0,7.439905777E0
1.442065642E1,8.081694031E-1,5.418731689E-2,7.135361938E0,7.181188205E0
1.443072642E1,8.349636841E-1,2.110610962E-2,7.237599335E0,7.285633394E0
1.444079542E1,7.991880798E-1,-7.559280396E-2,7.419770508E0,7.463069760E0
1.445086542E1,6.725514221E-1,-1.619631958E-1,7.476652222E0,7.508587479E0
1.446093442E1,5.156776428E-1,-1.149609375E-1,7.436685333E0,7.455429444E0
1.447100342E1,3.323089600E-1,-1.097218323E-1,7.515571289E0,7.523714503E0
1.448107342E1,1.157093811E-1,-1.568737793E-1,7.430099030E0,7.432655624E0
1.449114242E1,-1.227447510E-1,-1.847158813E-1,7.114854584E0,7.118310332E0
1.450121142E1,-2.787203979E-1,-1.820214844E-1,6.537654877E0,6.546124668E0
1.451128142E1,-4.095483398E-1,-1.574725342E-1,5.820196838E0,5.836713003E0
1.452135042E1,-5.228627014E-1,-1.164578247E-1,5.183870087E0,5.211473583E0
1.453141942E1,-6.732998657E-1,3.592529297E-3,4.748575287E0,4.796072651E0
1.454148942E1,-8.957373047E-1,1.489402771E-1,4.544848938E0,4.634671552E0
1.455155842E1,-9.904902649E-1,2.824626160E-1,4.520449677E0,4.636304711E0
1.456162742E1,-1.088985443E0,2.570155334E-1,4.740941162E0,4.871187677E0
1.457169742E1,-1.205143890E0,1.368154907E-1,5.119653625E0,5.261363276E0
1.458176642E1,-1.245110779E0,3.697311401E-2,5.681435394E0,5.816388570E0
1.459183642E1,-1.247356110E0,-9.789642334E-2,6.476132812E0,6.595890931E0
1.460190542E1,-1.265169067E0,-1.652563477E-1,7.180867310E0,7.293340644E0
1.461197442E1,-1.249751129E0,-2.237846375E-1,7.786657562E0,7.889486260E0
1.462204342E1,-1.255738678E0,-3.832031250E-1,8.481063538E0,8.582083837E0
1.463211342E1,-1.338965607E0,-5.710624695E-1,9.021439819E0,9.138124406E0
1.464218242E1,-1.353485413E0,-6.324348450E-1,9.551936646E0,9.668060316E0
1.465225242E1,-1.490300903E0,-7.441026306E-1,9.898166656E0,1.003734968E1
1.466232142E1,-1.572929077E0,-8.777746582E-1,1.018526962E1,1.034332207E1
1.467239042E1,-1.662891998E0,-7.738906860E-1,1.063418610E1,1.079120153E1
1.468246042E1,-1.708696747E0,-5.980064392E-1,1.126003464E1,1.140463223E1
1.469252942E1,-1.584305420E0,-4.641847229E-1,1.186402863E1,1.197834155E1
1.470259842E1,-1.318458252E0,-2.830613708E-1,1.252071304E1,1.259312158E1
1.471266842E1,-1.161135406E0,-2.314187622E-1,1.325493622E1,1.330770920E1
1.472273742E1,-1.047970734E0,-4.052073669E-1,1.397942963E1,1.402451027E1
1.473280642E1,-8.860075378E-1,-6.797364807E-1,1.458611801E1,1.462880343E1
1.474287642E1,-8.167016602E-1,-8.562194824E-1,1.475616440E1,1.480353002E1
1.475294542E1,-8.367599487E-1,-8.229885864E-1,1.448373093E1,1.453120570E1
1.476301442E1,-8.616082764E-1,-7.240443420E-1,1.413944687E1,1.418416606E1
1.477308442E1,-8.672964478E-1,-6.577322388E-1,1.405831558E1,1.410039190E1
1.478315342E1,-8.039781189E-1,-6.324348450E-1,1.459944031E1,1.463523187E1
1.479322242E1,-7.464976501E-1,-7.090754700E-1,1.522289383E1,1.525767162E1
1.480329242E1,-4.655319214E-1,-7.650590515E-1,1.550760178E1,1.553343968E1
1.481336142E1,-3.966751099E-2,-6.828799438E-1,1.558439209E1,1.559939663E1
1.482343042E1,2.511776733E-1,-5.345384216E-1,1.507799515E1,1.508955795E1
1.483350042E1,3.234773254E-1,-3.242257690E-1,1.433598816E1,1.434330215E1
1.484356942E1,5.198689270E-1,-5.568420410E-2,1.357227631E1,1.358234326E1
1.485363942E1,6.900650024E-1,6.960525513E-2,1.282907181E1,1.284780596E1
1.486370842E1,7.704478455E-1,2.903961182E-2,1.217223770E1,1.219663084E1
1.487377742E1,7.762857056E-1,-6.122268677E-2,1.160012741E1,1.162623429E1
1.488384742E1,7.629634094E-1,-1.670526123E-1,1.098221237E1,1.100995042E1
1.489391642E1,7.873626709E-1,-1.947450256E-1,1.038779846E1,1.041941565E1
1.490398542E1,8.406518555E-1,-1.116677856E-1,1.019814285E1,1.023334173E1
1.491405542E1,7.861651611E-1,-2.694396973E-3,1.003363495E1,1.006438737E1
1.492412442E1,7.777825928E-1,8.786727905E-2,9.574689331E0,9.606630117E0
1.493419342E1,7.089257812E-1,1.231938171E-1,9.001231842E0,9.029946132E0
1.494426342E1,5.965095520E-1,1.532812500E-1,8.446635132E0,8.469059206E0
1.495433242E1,5.465135193E-1,1.255888367E-1,7.777376862E0,7.797566315E0
1.496440142E1,4.872367859E-1,6.286926270E-2,7.070846100E0,7.087892268E0
1.497447142E1,3.546125793E-1,3.712280273E-2,6.490203552E0,6.499990026E0
1.498454042E1,2.866539001E-1,2.634521484E-2,6.114784241E0,6.121556243E0
1.499460942E1,1.603166199E-1,5.089416504E-3,5.863905945E0,5.866099236E0
1.500467942E1,2.275268555E-2,-1.092727661E-2,5.424270172E0,5.424328898E0
1.501474842E1,-1.975891113E-2,-1.023870850E-1,5.124593353E0,5.125654160E0
1.502481742E1,-8.382568359E-2,-2.785707092E-1,5.144951019E0,5.153168867E0
1.503488742E1,-2.085163879E-1,-5.412744141E-1,5.158123627E0,5.190635455E0
1.504495642E1,-3.164419556E-1,-8.319699097E-1,5.129682770E0,5.206337941E0
1.505502642E1,-3.427871704E-1,-1.115779724E0,5.288053436E0,5.415346395E0
1.506509542E1,-4.375401306E-1,-1.254092102E0,5.561983795E0,5.718378451E0
1.507516442E1,-6.509962463E-1,-1.270258484E0,5.654042358E0,5.831427588E0
1.508523442E1,-7.261399841E-1,-1.290466461E0,5.679788818E0,5.869632355E0
1.509530342E1,-7.655081177E-1,-1.250050507E0,5.932762756E0,6.111162154E0
1.510537242E1,-8.906478882E-1,-1.113983459E0,6.202801208E0,6.364664613E0
1.511544242E1,-1.036295013E0,-9.678872681E-1,6.434070282E0,6.588472775E0
1.512551142E1,-1.141226807E0,-7.834707642E-1,6.717281342E0,6.858432305E0
1.513558042E1,-1.282982025E0,-7.122189331E-1,7.066804504E0,7.217549764E0
1.514565042E1,-1.390009460E0,-7.812254333E-1,7.754773865E0,7.917004305E0
1.515571942E1,-1.424288177E0,-8.825646973E-1,8.474926300E0,8.638975231E0
1.516578842E1,-1.423988800E0,-9.544152832E-1,9.069789276E0,9.230369990E0
1.517585842E1,-1.410666504E0,-9.978250122E-1,9.612560577E0,9.766624575E0
1.518592742E1,-1.397493896E0,-9.854008484E-1,1.045875092E1,1.059761646E1
1.519599642E1,-1.335971832E0,-9.467811584E-1,1.109373047E1,1.121392309E1
1.520606642E1,-1.298849030E0,-8.141569519E-1,1.135882919E1,1.146180008E1
1.521613542E1,-1.263522491E0,-6.563850403E-1,1.150941605E1,1.159715431E1
1.522620442E1,-1.230441284E0,-5.888754272E-1,1.159099640E1,1.167098786E1
1.523627442E1,-1.190474396E0,-5.673202515E-1,1.173604477E1,1.180990383E1
1.524634342E1,-1.032852173E0,-5.930667114E-1,1.194426178E1,1.200349537E1
1.525641242E1,-8.195457458E-1,-6.033952332E-1,1.212074478E1,1.216339571E1
1.526648242E1,-5.581892395E-1,-5.493576050E-1,1.242670853E1,1.245136353E1
1.527655142E1,-2.001338196E-1,-2.926414490E-1,1.279120056E1,1.279611286E1
1.528662042E1,1.127156067E-1,7.244934082E-2,1.321736435E1,1.321804350E1
1.529669042E1,3.224295044E-1,3.640429688E-1,1.358290421E1,1.359160677E1
1.530675942E1,3.956272888E-1,4.989125061E-1,1.379561188E1,1.381029839E1
1.531682942E1,2.724334717E-1,4.800517273E-1,1.370385269E1,1.371496439E1
1.532689842E1,1.275347900E-1,3.555107117E-1,1.322035812E1,1.322575222E1
1.533696742E1,1.899549866E-1,2.344125366E-1,1.291125092E1,1.291477574E1
1.534703742E1,1.914518738E-1,1.559756470E-1,1.282967056E1,1.283204695E1
1.535710642E1,2.576142883E-1,7.544311523E-2,1.270497986E1,1.270781531E1
1.536717542E1,4.228706360E-1,-7.304809570E-2,1.261052628E1,1.261782582E1
1.537724542E1,5.860313416E-1,-1.965412903E-1,1.257939102E1,1.259456786E1
1.538731442E1,7.430548096E-1,-2.653981018E-1,1.224034607E1,1.226575063E1
1.539738342E1,8.168513489E-1,-3.064128113E-1,1.155357422E1,1.158646677E1
1.540745342E1,7.804769897E-1,-3.014730835E-1,1.073672287E1,1.076927334E1
1.541752242E1,7.614665222E-1,-2.859054565E-1,9.995614014E0,1.002865259E1
1.542759142E1,7.093748474E-1,-3.547622681E-1,9.336833954E0,9.370460886E0
1.543766142E1,8.216413879E-1,-3.438349915E-1,8.813372498E0,8.858264607E0
1.544773042E1,1.113983459E0,-8.337661743E-2,8.947792969E0,9.017256225E0
1.545779942E1,1.220561829E0,1.944456482E-1,9.641450500E0,9.720347115E0
1.546786942E1,1.146016846E0,5.397775269E-1,1.017314484E1,1.025171158E1
1.547793842E1,1.030756531E0,8.434959412E-1,1.020966888E1,1.029617808E1
1.548800742E1,8.346643066E-1,8.741821289E-1,1.006806335E1,1.014035298E1
1.549807742E1,6.092330933E-1,6.417155457E-1,9.895322571E0,9.934806117E0
1.550814642E1,4.182302856E-1,3.278182983E-1,9.462572479E0,9.477481698E0
1.551821542E1,2.360591125E-1,1.856140137E-2,8.961564331E0,8.964692058E0
1.552828542E1,1.342707825E-1,-1.667532349E-1,8.539741516E0,8.542424740E0
1.553835442E1,1.327738953E-1,-2.079176331E-1,8.221503296E0,8.225203651E0
1.554842342E1,1.363664246E-1,-2.179467773E-1,7.880961456E0,7.885153776E0
1.555849342E1,1.477427673E-1,-1.579216003E-1,7.511080627E0,7.514193193E0
1.556856242E1,1.914518738E-1,-4.685256958E-2,7.163653107E0,7.166364128E0
1.557863142E1,2.300715637E-1,4.281097412E-2,7.046596527E0,7.050481425E0
1.558870142E1,1.645079041E-1,4.355941772E-2,6.980733490E0,6.982807482E0
1.559877042E1,1.098715210E-1,-1.347198486E-3,6.868616638E0,6.869495476E0
1.560884042E1,4.610412598E-2,-1.122665405E-2,6.808741150E0,6.808906496E0
1.561890942E1,-4.460723877E-2,-9.310638428E-2,6.713539124E0,6.714332891E0
1.562897842E1,-2.128573608E-1,-1.902543640E-1,6.506369934E0,6.512630398E0
1.563904842E1,-3.915856934E-1,-2.869532776E-1,6.618786163E0,6.636566267E0
1.564911742E1,-6.161187744E-1,-5.254074097E-1,6.459667053E0,6.510219177E0
1.565918642E1,-8.186476135E-1,-8.897497559E-1,6.177204437E0,6.294417622E0
1.566925642E1,-8.120613098E-1,-1.037193146E0,6.247109070E0,6.384480004E0
1.567932542E1,-7.535330200E-1,-7.143145752E-1,6.305487671E0,6.390401560E0
1.568939442E1,-7.280859375E-1,-3.189866638E-1,6.474785614E0,6.523397150E0
1.569946442E1,-7.126679993E-1,-1.143621826E-1,6.684798889E0,6.723653068E0
1.570953342E1,-6.758445740E-1,1.041833496E-1,6.930138702E0,6.963795121E0
1.571960242E1,-6.894662476E-1,2.621049500E-1,7.336393890E0,7.373380366E0
1.572967242E1,-7.598199463E-1,3.570075989E-1,7.744145966E0,7.789517155E0
1.573974142E1,-8.152047729E-1,2.668949890E-1,8.342900848E0,8.386881800E0
1.574981042E1,-8.158035278E-1,4.071533203E-2,9.159303131E0,9.195652613E0
1.575988042E1,-7.111711121E-1,-1.050814819E-1,1.002435425E1,1.005009873E1
1.576994942E1,-5.992039490E-1,-1.728904724E-1,1.068508026E1,1.070326477E1
1.578001842E1,-6.321354675E-1,-1.442999268E-1,1.096544724E1,1.098460062E1
1.579008842E1,-7.617658997E-1,-7.259902954E-2,1.070603668E1,1.073334893E1
1.580015742E1,-8.455915833E-1,5.089416504E-2,1.033795212E1,1.037260186E1
1.581022642E1,-9.945318604E-1,1.486408997E-1,1.023825943E1,1.028752370E1
1.582029642E1,-1.183888092E0,7.798782349E-2,1.020487885E1,1.027361793E1
1.583036542E1,-1.243015137E0,2.754272461E-2,1.031205597E1,1.038673883E1
1.584043442E1,-1.147663422E0,-2.484832764E-2,1.076920532E1,1.083021385E1
1.585050442E1,-9.195378113E-1,-1.541793823E-2,1.127979355E1,1.131722272E1
1.586057342E1,-6.685098267E-1,1.097218323E-1,1.199186279E1,1.201098320E1
1.587064242E1,-3.647914124E-1,7.514373779E-2,1.292966263E1,1.293502590E1
1.588071242E1,-6.017486572E-2,-1.071771240E-1,1.390293869E1,1.390348202E1
1.589078142E1,1.193019104E-1,-2.924917603E-1,1.446292419E1,1.446637344E1
1.590085042E1,1.616638184E-1,-4.510121155E-1,1.444496155E1,1.445290494E1
1.591092042E1,1.776805115E-1,-4.110452271E-1,1.385009857E1,1.385733593E1
1.592098942E1,1.880090332E-1,-2.787203979E-1,1.307845322E1,1.308277383E1
1.593105842E1,1.779798889E-1,-1.769320679E-1,1.279344589E1,1.279590714E1
1.594112842E1,2.498304749E-1,-7.170089722E-2,1.278715897E1,1.278980026E1
1.595119742E1,5.016069031E-1,6.810836792E-2,1.281125885E1,1.282125585E1
1.596126742E1,8.446934509E-1,1.592687988E-1,1.306737625E1,1.309561742E1
1.597133642E1,9.925859070E-1,1.299298096E-1,1.325224182E1,1.328999706E1
1.598140542E1,1.086889801E0,-5.224136353E-2,1.297756302E1,1.302310257E1
1.599147542E1,1.238674164E0,-3.171903992E-1,1.253313721E1,1.259819240E1
1.600154442E1,1.388362885E0,-5.215155029E-1,1.236144424E1,1.245009372E1
1.601161342E1,1.571581879E0,-4.960684204E-1,1.224004669E1,1.235049378E1
1.602168342E1,1.717678070E0,-4.022135925E-1,1.224184296E1,1.236830274E1
1.603175242E1,1.857936401E0,-2.372566223E-1,1.240799744E1,1.254857039E1
1.604182142E1,1.982028351E0,4.056564331E-2,1.243479172E1,1.259182779E1
1.605189142E1,2.026785278E0,3.462300110E-1,1.242625946E1,1.259522362E1
1.606196042E1,1.977837067E0,5.774990845E-1,1.217927307E1,1.235232922E1
1.607202942E1,1.926493835E0,7.113208008E-1,1.153276749E1,1.171418293E1
1.608209942E1,1.840273132E0,8.090675354E-1,1.079105988E1,1.097671029E1
1.609216842E1,1.619631958E0,8.198451233E-1,1.007045837E1,1.023276529E1
1.610223742E1,1.457818451E0,7.325765991E-1,9.285790100E0,9.428032716E0
1.611230742E1,1.264270935E0,5.739065552E-1,8.646768951E0,8.757531789E0
1.612237642E1,1.039737854E0,3.288661194E-1,8.104895782E0,8.177930262E0
1.613244542E1,8.678952026E-1,8.008346558E-2,7.614216156E0,7.663937833E0
1.614251542E1,6.846762085E-1,-1.246907043E-1,7.175029449E0,7.208701470E0
1.615258442E1,5.066963196E-1,-2.698887634E-1,6.737040253E0,6.761456387E0
1.616265342E1,4.399351501E-1,-4.203259277E-1,6.395001526E0,6.423882108E0
1.617272342E1,3.092568970E-1,-5.239105225E-1,6.106401672E0,6.136632908E0
1.618279242E1,1.197509766E-3,-7.508386230E-1,5.843398590E0,5.891440160E0
1.619286142E1,-1.025367737E-1,-9.671388245E-1,5.601651306E0,5.685452370E0
1.620293142E1,-1.932481384E-1,-1.066681824E0,5.426665192E0,5.533882006E0
1.621300042E1,-2.673440552E-1,-1.032552795E0,5.335205383E0,5.440777022E0
1.622306942E1,-2.992277527E-1,-9.434880066E-1,5.385351105E0,5.475555989E0
1.623313942E1,-4.884342957E-1,-9.134005737E-1,5.419180756E0,5.517280918E0
1.624320842E1,-7.234455872E-1,-9.247769165E-1,5.425018616E0,5.550622744E0
1.625327742E1,-8.809181213E-1,-9.018745422E-1,5.572012939E0,5.712855908E0
1.626334742E1,-9.110055542E-1,-7.713459778E-1,5.902675323E0,6.022165866E0
1.627341642E1,-9.430389404E-1,-6.339317322E-1,6.289321289E0,6.391146545E0
1.628348542E1,-8.916957092E-1,-6.309379578E-1,6.943760376E0,7.029154437E0
1.629355542E1,-8.997789001E-1,-7.801776123E-1,7.832612000E0,7.922631502E0
1.630362442E1,-8.592132568E-1,-8.876541138E-1,8.729846191E0,8.816824359E0
1.631369342E1,-6.959028625E-1,-8.099656677E-1,9.602232056E0,9.661427722E0
1.632376342E1,-7.500901794E-1,-7.418572998E-1,1.033480865E1,1.038851565E1
1.633383242E1,-6.270460510E-1,-6.679110718E-1,1.098355957E1,1.102170009E1
1.634390142E1,-4.700225830E-1,-5.453160095E-1,1.150971542E1,1.153220880E1
1.635397142E1,-2.811154175E-1,-2.906954956E-1,1.184950882E1,1.185640709E1
1.636404042E1,-1.896556091E-1,8.187973022E-2,1.201656143E1,1.201833691E1
1.637411042E1,-9.984237671E-2,3.700305176E-1,1.194830338E1,1.195444874E1
1.638417942E1,-5.448669434E-2,5.336402893E-1,1.184756287E1,1.185970011E1
1.639424842E1,-4.340972900E-2,6.120771790E-1,1.176538376E1,1.178137419E1
1.640431904E1,-6.661148071E-2,4.808001709E-1,1.175370804E1,1.176372639E1
1.641438804E1,-4.670288086E-2,2.634521484E-1,1.181927170E1,1.182229976E1
1.642445704E1,6.676116943E-2,1.441502380E-1,1.195593750E1,1.195699284E1
1.643452704E1,1.534309387E-1,-7.170089722E-2,1.227028381E1,1.227145252E1
1.644459604E1,1.531315613E-1,-3.682342529E-1,1.271605682E1,1.272230902E1
1.645466504E1,7.424560547E-2,-6.285429382E-1,1.294029053E1,1.295575924E1
1.646473504E1,6.451583862E-2,-7.180567932E-1,1.278476395E1,1.280507544E1
1.647480404E1,4.775070190E-2,-5.460644531E-1,1.251682114E1,1.252881790E1
1.648487304E1,6.960525513E-2,-1.725910950E-1,1.209978836E1,1.210121940E1
1.649494304E1,5.613327026E-2,1.559756470E-1,1.160237274E1,1.160355689E1
1.650501204E1,1.450483704E-1,5.263055420E-1,1.145582748E1,1.146882818E1
1.651508104E1,2.544708252E-1,7.415579224E-1,1.173350006E1,1.175966357E1
1.652515104E1,2.728825378E-1,6.080355835E-1,1.198348022E1,1.200199860E1
1.653522004E1,4.007167053E-1,3.441343689E-1,1.207179657E1,1.208334700E1
1.654528904E1,4.625381470E-1,7.634124756E-2,1.193962143E1,1.194882126E1
1.655535904E1,5.168751526E-1,-1.185534668E-1,1.143442200E1,1.144671225E1
1.656542804E1,6.300398254E-1,-2.532733154E-1,1.055305481E1,1.057487888E1
1.657549704E1,6.598278809E-1,-3.260220337E-1,9.828561401E0,9.856078450E0
1.658556704E1,7.914042664E-1,-3.670367432E-1,9.484427032E0,9.524462862E0
1.659563604E1,1.088087311E0,-1.598675537E-1,9.859247589E0,9.920395892E0
1.660570504E1,1.069226532E0,1.790277100E-1,1.031549881E1,1.037230987E1
1.661577504E1,9.611512756E-1,5.110372925E-1,1.037223083E1,1.042919668E1
1.662584404E1,1.054856415E0,7.830216980E-1,1.042596909E1,1.050840979E1
