"Time (s)","Acceleration x (m/s^2)","Acceleration y (m/s^2)","Acceleration z (m/s^2)","Absolute acceleration (m/s^2)"
-2.609166666E-3,9.737101593E0,1.027164001E0,-2.030527496E0,9.999462747E0
7.458833279E-3,1.009485764E1,-1.161584473E-1,-2.846181335E0,1.048906057E1
1.752783335E-2,9.809700623E0,-1.416803741E0,-3.675905914E0,1.057117985E1
2.759583329E-2,1.101768860E1,-2.078876953E0,-2.028880920E0,1.139418927E1
3.766483325E-2,1.345656693E1,-6.521937561E-1,3.698808289E-1,1.347743900E1
4.773283331E-2,1.446172668E1,-1.423539734E-1,1.738185425E0,1.456650582E1
5.780183326E-2,1.310943878E1,-2.713706818E0,1.147513733E0,1.343645703E1
6.786983332E-2,1.146271317E1,-4.091591492E0,8.583151245E-1,1.220129579E1
7.793783327E-2,8.330925751E0,-7.397017822E0,1.613794098E0,1.125719894E1
8.800683334E-2,9.610614624E0,-3.178939362E0,2.784210205E-1,1.012655357E1
9.807483328E-2,1.000414627E1,-1.036295013E0,-7.367678833E-1,1.008462577E1
1.081438333E-1,8.993897095E0,-1.618434448E0,-1.483564911E0,9.257995456E0
1.182118333E-1,9.327253876E0,-1.442250824E0,-2.650388489E0,9.803178640E0
1.282808332E-1,9.348509674E0,-1.901495819E0,-2.633773041E0,9.896821707E0
1.383488333E-1,9.430539093E0,-3.409609680E0,-1.188378754E0,1.009815576E1
1.484178333E-1,1.083461929E1,-3.917952576E0,3.847000122E-2,1.152131970E1
1.584858333E-1,1.326556412E1,-2.950813751E0,1.892215118E0,1.372089542E1
1.685548333E-1,1.497351242E1,-8.490344238E-1,3.801195374E0,1.547178141E1
1.786228333E-1,1.527947617E1,-4.370910645E-2,4.740492096E0,1.599801762E1
1.886918333E-1,1.301842804E1,-6.966513062E-1,3.532055054E0,1.350704278E1
1.987598334E-1,1.221609650E1,-2.586621094E-1,2.258802795E0,1.242586455E1
2.088288333E-1,1.145223495E1,9.791139221E-1,1.608854370E0,1.160606574E1
2.188968332E-1,8.759484558E0,1.392105103E-1,1.746418304E0,8.932968498E0
2.289658333E-1,7.217690735E0,-4.242178345E-1,2.689606934E0,7.714208046E0
2.390338333E-1,6.139033813E0,-5.225633240E-1,4.235142975E0,7.476445988E0
2.491028333E-1,5.411097565E0,-1.193168793E0,5.383255463E0,7.725481732E0
2.591708333E-1,6.203399963E0,-4.234693909E-1,5.741161194E0,8.463003562E0
2.692398333E-1,6.689139862E0,6.002517700E-2,4.543202362E0,8.086339272E0
2.793078333E-1,6.283034363E0,-5.559439087E-1,3.194357300E0,7.070326230E0
2.893768332E-1,5.831573181E0,-2.358794861E0,7.521858215E-1,6.335372323E0
2.994448333E-1,6.161487122E0,-2.208806763E0,9.654922485E-1,6.616262249E0
3.095138333E-1,7.456893311E0,-1.310524750E0,2.082469482E0,7.852350738E0
3.195818333E-1,7.884703674E0,-1.616638184E0,2.611170044E0,8.461694868E0
3.296498333E-1,7.824977875E0,-2.714455261E0,2.663261719E0,8.700086729E0
3.397188333E-1,7.606132965E0,-3.586092682E0,2.185904388E0,8.688584315E0
3.497868333E-1,9.785900116E0,-3.944896545E0,1.278641052E0,1.062830997E1
3.598558333E-1,1.113654144E1,-2.489024048E0,7.114704895E-1,1.143345907E1
3.699238333E-1,9.678124237E0,-2.507884827E0,1.264121246E0,1.007737950E1
3.799928332E-1,8.430618439E0,-3.304228821E0,1.065334625E0,9.117466382E0
3.900608333E-1,-1.024319916E0,-2.069446564E0,1.578916626E0,2.797287629E0
4.001298333E-1,1.071247330E1,-4.644242249E0,9.900411987E-1,1.171777504E1
4.101978333E-1,9.765542450E0,1.387614441E-1,-1.673519897E-1,9.767961956E0
4.202668333E-1,9.344468079E0,-9.580078125E-3,3.863465881E-1,9.352456316E0
4.303348333E-1,8.278684387E0,-1.417552185E-1,4.927752686E-1,8.294548643E0
4.404038333E-1,7.280110931E0,-2.005828857E-2,7.298822021E-1,7.316634851E0
4.504718333E-1,8.619375916E0,7.670050049E-1,2.189347229E0,8.926095403E0
4.605408333E-1,1.067609894E1,2.587070160E0,4.447850647E0,1.185138793E1
4.706088332E-1,1.147154480E1,3.165167999E0,4.516408081E0,1.272841587E1
4.806778333E-1,1.042522064E1,2.135159912E0,2.984942780E0,1.105233083E1
4.907458333E-1,1.159084671E1,1.911075897E0,2.341430969E0,1.197840714E1
5.008148333E-1,1.215232910E1,2.116448822E0,1.851050720E0,1.247336550E1
5.108828333E-1,1.152213959E1,2.577639771E-1,1.235530701E0,1.159106031E1
5.209518333E-1,1.126362717E1,-7.547305298E-1,9.550140381E-2,1.128928854E1
5.310198333E-1,1.195683563E1,-1.858834534E0,3.891906738E-1,1.210671936E1
5.410888332E-1,9.583071899E0,-6.181994476E0,1.253193970E0,1.147269880E1
5.511568333E-1,9.135652313E0,-3.565884705E0,1.485510864E0,9.918791229E0
5.612248332E-1,7.137307892E0,-7.080426178E0,2.183060303E0,1.028782538E1
5.712938333E-1,6.918163605E0,-4.233795776E0,1.811383209E0,8.310663239E0
5.813612083E-1,9.223818970E0,8.457412720E-1,1.793719940E0,9.434593044E0
5.914302083E-1,1.012524445E1,-3.762425995E0,-2.093097382E0,1.100261247E1
6.014982082E-1,9.932295685E0,-1.032403107E0,-5.465135193E-1,1.000075151E1
6.115672083E-1,8.069569244E0,-1.149309998E0,1.397793274E0,8.269987140E0
6.216352083E-1,8.689879303E0,-1.373843079E0,1.107546844E0,8.867249129E0
6.317042083E-1,1.048090485E1,3.537892914E0,1.442999268E0,1.115563981E1
6.417722083E-1,9.411528625E0,2.363584900E-1,2.513722687E0,9.744307987E0
6.518412083E-1,9.214238892E0,5.792953491E-2,8.879534912E-1,9.257106221E0
6.619092083E-1,1.055185730E1,-3.945794678E-1,9.395960999E-1,1.060095403E1
6.719782084E-1,1.143292511E1,-1.463207245E0,-1.939516754E0,1.168821959E1
6.820462083E-1,1.153695877E1,1.375040588E0,-1.306932220E0,1.169188719E1
6.921152083E-1,1.264480499E1,-2.385888519E0,-1.473685455E0,1.295203869E1
7.021832083E-1,1.221100708E1,-2.166594543E0,3.323089600E-2,1.240177125E1
7.122522083E-1,1.303669006E1,-1.311273193E-1,1.064436493E0,1.308073038E1
7.223202083E-1,1.344519058E1,7.315287781E-1,9.277706909E-1,1.349700124E1
7.323892083E-1,1.319116882E1,-1.496887207E-2,3.866459656E-1,1.319684258E1
7.424572083E-1,1.258807297E1,1.835183716E0,1.571881256E0,1.281788949E1
7.525262083E-1,1.256367371E1,2.267185364E0,3.334765320E0,1.319494927E1
7.625942084E-1,1.264899628E1,9.072633362E-1,2.815046082E0,1.299017775E1
7.726622083E-1,1.260723312E1,-2.251318359E-1,3.511996765E0,1.308919908E1
7.827312083E-1,1.266142044E1,-1.589394836E0,2.219734039E0,1.295241146E1
7.927992083E-1,1.189217010E1,-2.076781311E0,1.513802032E0,1.216668924E1
8.028682083E-1,1.200264038E1,-2.966830444E0,9.306147766E-1,1.239885087E1
8.129362083E-1,1.179127991E1,-3.468137970E0,7.090754700E-1,1.231117585E1
8.230052083E-1,1.180804504E1,-4.194727020E0,1.645378418E0,1.263854947E1
8.330732083E-1,1.251532425E1,-3.500919800E0,9.553134155E-1,1.303082516E1
8.431422083E-1,1.375354935E1,-2.402054901E0,-6.785389709E-1,1.397821171E1
8.532102084E-1,1.343890366E1,-3.130140839E0,-1.469943237E0,1.387669436E1
8.632792083E-1,1.347857117E1,-2.486778717E0,-1.684147797E0,1.380913838E1
8.733472083E-1,1.334714447E1,-2.000140686E0,-2.316582642E0,1.369355262E1
8.834162083E-1,1.239377701E1,-2.875071259E0,-2.020049286E0,1.288224912E1
8.934842083E-1,1.199620377E1,-3.074606323E0,-1.512604523E0,1.247598017E1
9.035532083E-1,1.111753098E1,-1.886826324E0,-2.066153412E0,1.146423126E1
9.136212083E-1,1.016910324E1,-1.149459686E0,-1.903741150E0,1.040942595E1
9.236902084E-1,9.787995758E0,-1.080153809E0,-1.205892334E0,9.920976239E0
9.337582083E-1,8.820108490E0,-7.617658997E-1,-2.539020081E0,9.209843866E0
9.438272082E-1,7.949818268E0,-6.935078430E-1,-1.982178040E0,8.222505299E0
9.538952083E-1,7.800578613E0,6.086343384E-1,-1.457668762E0,7.958910772E0
9.639642083E-1,6.461613007E0,1.223705292E0,-5.698649597E-1,6.601109252E0
9.740322083E-1,6.866371307E0,2.053280182E0,-1.429976349E0,7.308067241E0
9.841012083E-1,6.606511688E0,1.374741211E0,-2.111209717E0,7.070581062E0
9.941692083E-1,5.438490601E0,9.150471497E-1,-8.171507263E-1,5.575143640E0
1.004237208E0,5.314698029E0,-7.785310364E-1,-9.219328308E-1,5.449962005E0
1.014306208E0,5.591173096E0,-1.342408447E0,-4.242178345E-1,5.765694910E0
1.024374208E0,3.866309967E0,-2.523751831E-1,-1.908381500E0,4.319023726E0
1.034443208E0,4.100273438E0,-4.144880676E-1,-2.025138702E0,4.591865567E0
1.044511208E0,4.445755005E0,-8.810678101E-1,-1.880838776E0,4.906992210E0
1.054580208E0,4.678071899E0,-1.489552460E0,-2.045047302E0,5.318396534E0
1.064648208E0,4.355792084E0,-1.919159088E0,-2.406545563E0,5.333625205E0
1.074717208E0,4.446353760E0,-2.680026855E0,-2.609822845E0,5.810660977E0
1.084785208E0,4.527485046E0,-2.192490692E0,-1.885179749E0,5.372060961E0
1.094854208E0,4.826413422E0,-2.753374329E0,-3.432212677E0,6.531111741E0
1.104922208E0,4.848267975E0,-2.803669739E0,-3.283721466E0,6.492233285E0
1.114991208E0,5.033582611E0,-1.918111267E0,-2.982697449E0,6.157319937E0
1.125059208E0,4.909939728E0,-1.428778839E0,-3.197051697E0,6.030759210E0
1.135128208E0,4.873116302E0,-6.472540283E-1,-3.684887238E0,6.143662933E0
1.145196208E0,5.804329834E0,-6.677613831E-1,-3.707939301E0,6.919896238E0
1.155265208E0,6.833739166E0,-9.422904968E-1,-3.785627747E0,7.868855051E0
1.165333208E0,7.581733704E0,-1.143921204E0,-4.417613525E0,8.849098877E0
1.175402208E0,8.444689178E0,-8.774752808E-1,-5.142106934E0,9.925925746E0
1.185470208E0,9.849068756E0,-5.468128967E-1,-5.523064728E0,1.130519366E1
1.195538208E0,1.094987961E1,-8.158035278E-1,-5.710175629E0,1.237624760E1
1.205607208E0,1.148756149E1,-1.502425690E0,-5.735622711E0,1.292744058E1
1.215675208E0,1.294253586E1,-1.792971497E0,-6.467750244E0,1.457929266E1
1.225744208E0,1.438134384E1,-2.928360443E0,-7.697143707E0,1.657239774E1
1.235812208E0,1.460752350E1,-2.979853363E0,-7.629484406E0,1.674718786E1
1.245881208E0,1.354652985E1,-2.324216766E0,-6.530918884E0,1.521720592E1
1.255949208E0,1.132410141E1,-2.740950165E0,-5.861660614E0,1.304251301E1
1.266018208E0,9.332043915E0,-2.712209930E0,-5.730682983E0,1.128201462E1
1.276086208E0,8.075706482E0,-2.296823730E0,-6.510710907E0,1.062458427E1
1.286155208E0,7.862100677E0,-2.260449371E0,-7.453749847E0,1.106709742E1
1.296223208E0,9.051976318E0,-2.976709900E0,-8.247549133E0,1.260242611E1
1.306292208E0,1.141361526E1,-3.525768127E0,-8.539142761E0,1.468395769E1
1.316360208E0,1.397748367E1,-3.444187775E0,-8.154293060E0,1.654463582E1
1.326429208E0,1.526136383E1,-2.629881134E0,-7.133116608E0,1.705012766E1
1.336497208E0,1.488998611E1,-1.406624908E0,-4.706812134E0,1.567942475E1
1.346566208E0,1.309851151E1,-1.555714874E0,-8.183482361E-1,1.321593532E1
1.356634208E0,1.192674820E1,-3.165916443E0,4.656816101E-1,1.234857113E1
1.366703208E0,9.970915375E0,-3.707340546E0,-1.711690521E0,1.077466527E1
1.376771208E0,8.274493103E0,-3.448379059E0,-4.158352661E0,9.881824280E0
1.386840208E0,8.220006409E0,-3.345093842E0,-2.743494873E0,9.288967773E0
1.396908208E0,8.513995056E0,-2.850073242E0,-2.654280396E0,9.362490786E0
1.406976208E0,9.432784424E0,-2.892135773E0,-2.845432892E0,1.026831825E1
1.417045208E0,9.932145996E0,-2.544259186E0,-1.161434784E0,1.031841604E1
1.427113208E0,1.075273956E1,-1.499132538E0,8.334667969E-1,1.088868557E1
1.437182208E0,1.071816147E1,-5.078938293E-1,2.140399017E0,1.094158349E1
1.447250208E0,9.793683929E0,-4.351451111E-1,2.266137543E0,1.006185746E1
1.457319208E0,9.693691864E0,-8.554710388E-1,3.894900513E-1,9.739157826E0
1.467387208E0,1.068103867E1,-5.566923523E-1,-2.332299957E0,1.094687702E1
1.477456208E0,1.111019623E1,-2.122586060E-1,-3.459755402E0,1.163835991E1
1.487524208E0,1.096604599E1,2.859054565E-2,-3.431314545E0,1.149038300E1
1.497593208E0,1.017134857E1,1.050814819E-1,-1.995200958E0,1.036572239E1
1.507661208E0,9.326056366E0,-2.115101624E-1,-4.062551880E-1,9.337296566E0
1.517730208E0,8.703201599E0,-9.355545044E-1,2.484832764E-1,8.756867262E0
1.527798208E0,8.123157806E0,-1.471889191E0,-5.249583435E-1,8.272105645E0
1.537867208E0,7.283104706E0,-1.571581879E0,-1.002615051E0,7.517893368E0
1.547935208E0,6.309529266E0,-1.734293518E0,-1.386865997E0,6.688896087E0
1.558004208E0,5.897735596E0,-2.039059753E0,-1.268911285E0,6.367981288E0
1.568072208E0,6.173312531E0,-1.673968964E0,-9.692344666E-1,6.469263879E0
1.578140333E0,6.695127411E0,-1.272354126E0,-6.053411865E-1,6.841787341E0
1.588209333E0,7.079977112E0,-1.030906219E0,-4.962181091E-1,7.171825148E0
1.598277333E0,7.396568756E0,-9.653425598E-1,-5.278024292E-1,7.477946979E0
1.608346333E0,7.060816956E0,-8.777746582E-1,-5.831872559E-1,7.139028772E0
1.618414333E0,6.555018768E0,-9.391470337E-1,-4.996609497E-1,6.640777761E0
1.628483333E0,6.455625458E0,-8.009843445E-1,-1.580712891E-1,6.507047142E0
1.638551333E0,6.505771179E0,-6.351292419E-1,-1.121168518E-1,6.537661507E0
1.648620333E0,6.459068298E0,-9.011260986E-1,-1.508862305E-1,6.523370155E0
1.658688333E0,6.775809631E0,-9.135502625E-1,-1.278341675E-1,6.838312059E0
1.668757333E0,7.111860809E0,-9.006770325E-1,5.897735596E-2,7.168909374E0
1.678825333E0,7.406298523E0,-1.012943573E0,3.815565491E-1,7.484978149E0
1.688894333E0,7.641758881E0,-1.141077118E0,5.528004456E-1,7.746232898E0
1.698962333E0,7.725584564E0,-1.102307739E0,-7.828720093E-2,7.804221172E0
1.709031333E0,7.988887024E0,-9.913883972E-1,-9.723779297E-1,8.108679650E0
1.719099333E0,8.392298126E0,-1.588197327E-1,-7.176077271E-1,8.424420004E0
1.729168333E0,8.575966187E0,-5.614823914E-1,-4.692741394E-1,8.607129413E0
1.739236333E0,8.854686584E0,-1.457219696E0,1.133143616E-1,8.974508560E0
1.749305333E0,1.014365616E1,-6.027964783E-1,1.990859985E-2,1.016157075E1
1.759373333E0,1.036774017E1,1.033450928E0,-1.477427673E-1,1.042016723E1
1.769441333E0,1.022852966E1,1.008153534E0,-7.259902954E-1,1.030370101E1
1.779510333E0,9.446106720E0,6.674620056E-1,-1.376986542E0,9.569249168E0
1.789578333E0,9.662706299E0,-2.984793091E-1,-5.754034424E-1,9.684424197E0
1.799647333E0,8.907826080E0,1.742376709E0,-2.887495422E-1,9.081223396E0
1.809715333E0,1.217867432E1,5.071453857E-1,-2.980302429E-1,1.219287196E1
1.819784333E0,1.294777496E1,-2.355052643E0,-1.645079041E-1,1.316123901E1
1.829852333E0,1.369427261E1,-3.146606598E0,-2.438429260E-1,1.405324499E1
1.839921333E0,1.313802933E1,-2.563269653E0,-7.625143433E-1,1.340744547E1
1.849989333E0,1.202239929E1,-1.824106750E0,-7.455995178E-1,1.218283090E1
1.860058333E0,1.106858276E1,-1.228046265E0,-1.063238983E0,1.118713990E1
1.870126333E0,1.097457825E1,-1.203796692E0,-1.450184326E0,1.113523815E1
1.880195333E0,1.180789536E1,-1.979184265E0,-1.266216888E0,1.203938820E1
1.890263333E0,1.248134491E1,-2.190993805E0,1.707948303E-1,1.267334192E1
1.900332333E0,1.284658539E1,-1.569186859E0,1.708846436E0,1.305439618E1
1.910400333E0,1.318398376E1,-1.451232147E0,1.995500336E0,1.341288650E1
1.920469333E0,1.316302734E1,-2.749332733E0,1.795665894E0,1.356644888E1
1.930537333E0,1.306557999E1,-2.502046967E0,2.568957825E0,1.354876982E1
1.940605333E0,1.194965057E1,-1.222507782E0,3.325783997E0,1.246392849E1
1.950674333E0,1.040890457E1,-1.091530151E0,3.602857819E0,1.106875408E1
1.960742333E0,1.002809647E1,-2.906056824E0,4.092190247E0,1.121400491E1
1.970811333E0,1.013183075E1,-4.950355682E0,3.711681519E0,1.187167197E1
1.980879333E0,1.096439941E1,-5.348976746E0,3.277135162E0,1.263207115E1
1.990948333E0,1.203048248E1,-5.087021484E0,2.938090210E0,1.338815411E1
2.001016333E0,1.239302856E1,-5.230722656E0,2.784808960E0,1.373691295E1
2.011085333E0,1.270228546E1,-6.176755371E0,3.490890656E0,1.454945636E1
2.021153333E0,1.279658936E1,-7.174281006E0,2.620450745E0,1.490267658E1
2.031222333E0,1.310928909E1,-7.512577515E0,8.434959412E-1,1.513287041E1
2.041290333E0,1.389500519E1,-7.225025482E0,-4.008663940E-1,1.566629683E1
2.051359333E0,1.395817383E1,-6.675069122E0,-1.337917786E0,1.552988050E1
2.061427333E0,1.292247757E1,-5.862858124E0,-1.388512573E0,1.425803279E1
2.071496333E0,1.175565399E1,-5.413492584E0,-1.121617584E0,1.299074012E1
2.081564333E0,1.186821991E1,-5.155728607E0,-1.521136780E0,1.302881569E1
2.091632333E0,1.200653229E1,-4.409680023E0,-1.282083893E0,1.285479812E1
2.101701333E0,1.144265488E1,-3.135829010E0,-9.535171509E-1,1.190281350E1
2.111769333E0,1.065020279E1,-2.374811554E0,-6.715036011E-1,1.093240442E1
2.121838333E0,9.609566803E0,-2.239492950E0,-3.424877930E-1,9.873013760E0
2.131906333E0,8.793014832E0,-1.960772552E0,-1.044827271E-1,9.009586865E0
2.141975333E0,7.987839203E0,-1.627715149E0,2.859054565E-2,8.152045704E0
2.152043333E0,6.819967804E0,-1.160536652E0,1.089733887E-1,6.918864167E0
2.162112333E0,5.724396057E0,-1.026864624E0,-2.013313293E-1,5.819252141E0
2.172180333E0,4.882546692E0,-1.275497589E0,-5.429209900E-1,5.075521599E0
2.182249333E0,4.323309631E0,-1.985620880E0,-7.952961731E-1,4.823504167E0
2.192317333E0,4.193080444E0,-2.336790619E0,-1.090781708E0,4.922633314E0
2.202386333E0,3.836372223E0,-2.108814697E0,-1.183289337E0,4.534867684E0
2.212454333E0,3.438349915E0,-1.730401611E0,-1.422641602E0,4.103711612E0
2.222523333E0,3.465742950E0,-1.589095459E0,-2.098037109E0,4.351822410E0
2.232591333E0,4.162094879E0,-1.973047028E0,-1.075513458E0,4.729976486E0
2.242659333E0,4.067790985E0,-2.087558899E0,-1.598825226E0,4.843662639E0
2.252728333E0,3.213667145E0,-2.258353729E0,-2.378254395E0,4.591722122E0
2.262796333E0,3.028801575E0,-2.131717072E0,-2.022593994E0,4.220040653E0
2.272865333E0,3.607647858E0,-2.171534271E0,-1.751956787E0,4.560705728E0
2.282933333E0,4.482428741E0,-2.097288666E0,-1.577270050E0,5.194089716E0
2.293002333E0,5.001549225E0,-2.016157379E0,-1.817969513E0,5.690817022E0
2.303070333E0,5.420977020E0,-1.869312744E0,-2.577939148E0,6.287057518E0
2.313139333E0,5.559139709E0,-1.737287292E0,-3.476670227E0,6.783025675E0
2.323207333E0,5.754333801E0,-1.376986542E0,-4.285288696E0,7.305624453E0
2.333276333E0,6.391558685E0,-9.102571106E-1,-5.180576935E0,8.277618487E0
2.343344333E0,7.175179138E0,-6.688092041E-1,-5.967041473E0,9.356072112E0
2.353413333E0,8.193810883E0,-8.026309204E-1,-6.703659668E0,1.061705261E1
2.363481333E0,9.524543610E0,-8.961863708E-1,-6.920408936E0,1.180729185E1
2.373550333E0,1.082713486E1,-8.181985474E-1,-6.283633118E0,1.254513225E1
2.383618333E0,1.191866501E1,-1.411564636E0,-5.332960052E0,1.313345169E1
2.393686333E0,1.266965332E1,-2.856060791E0,-5.091063080E0,1.394977139E1
2.403755333E0,1.318443283E1,-4.121080170E0,-5.996230774E0,1.505879658E1
2.413823333E0,1.306453217E1,-4.696633301E0,-7.103627930E0,1.559493170E1
2.423892333E0,1.211311066E1,-4.721781006E0,-8.025261383E0,1.527833387E1
2.433960333E0,1.047072601E1,-4.800367584E0,-8.071215820E0,1.406499758E1
2.444029333E0,8.232879639E0,-5.196443939E0,-6.486461334E0,1.169861177E1
2.454097333E0,6.699618073E0,-6.137836304E0,-5.261408844E0,1.049953998E1
2.464166333E0,6.633755035E0,-6.674320679E0,-5.579347687E0,1.093994438E1
2.474234333E0,8.171207886E0,-6.691684570E0,-7.213050385E0,1.278965897E1
2.484303333E0,1.068627777E1,-6.814728699E0,-8.474926300E0,1.524668605E1
2.494371333E0,1.390473495E1,-6.581962738E0,-7.839946747E0,1.726640242E1
2.504440333E0,1.671169785E1,-6.263574829E0,-5.263055420E0,1.860679894E1
2.514508333E0,1.466156113E1,-7.754474487E0,-2.852917328E0,1.682950940E1
2.524577333E0,9.903854828E0,-7.921826477E0,-3.456611938E0,1.314495497E1
2.534645333E0,6.432124329E0,-5.414540405E0,-3.049757996E0,8.943740549E0
2.544713333E0,4.712500305E0,-3.664379883E0,-1.590292969E0,6.177731847E0
2.554782333E0,5.981411591E0,-3.799399109E0,-1.454525299E0,7.233834533E0
2.564850333E0,8.177943878E0,-4.683760071E0,-1.480571136E0,9.539835710E0
2.574919333E0,1.031714539E1,-4.509672089E0,-6.481521606E-1,1.127833022E1
2.584987250E0,1.109193420E1,-3.456911316E0,6.170169067E-1,1.163451546E1
2.595056250E0,1.098430801E1,-2.717898102E0,5.300477600E-1,1.132797172E1
2.605124250E0,1.147079636E1,-2.934347992E0,-8.232879639E-3,1.184017039E1
2.615193250E0,1.248733246E1,-3.110830994E0,-6.113287354E-1,1.288349581E1
2.625261250E0,1.311123505E1,-2.613714752E0,-1.315165100E0,1.343375035E1
2.635330250E0,1.273851013E1,-1.823507996E0,-1.661395111E0,1.297517073E1
2.645398250E0,1.165880539E1,-1.426683197E0,-1.539698181E0,1.184625842E1
2.655467250E0,1.043914169E1,-1.458716583E0,-9.530680847E-1,1.058356613E1
2.665535250E0,9.073082428E0,-2.107018433E0,-5.355862427E-1,9.329909112E0
2.675604250E0,7.605384521E0,-3.211571503E0,-6.213578796E-1,8.279018713E0
2.685672250E0,6.667734375E0,-3.748355255E0,-9.904902649E-1,7.712970879E0
2.695740250E0,6.025869141E0,-3.999981995E0,-1.242715759E0,7.338616853E0
2.705809250E0,5.204227753E0,-4.103716278E0,-1.415007477E0,6.776925553E0
2.715877250E0,4.939877472E0,-4.077670441E0,-1.468745728E0,6.571681647E0
2.725946250E0,5.159919891E0,-3.761827240E0,-1.306483154E0,6.517899639E0
2.736014250E0,5.291795654E0,-3.473975830E0,-9.708810425E-1,6.404234483E0
2.746083250E0,5.423372040E0,-3.172652435E0,-7.685018921E-1,6.330030246E0
2.756151250E0,5.640270996E0,-2.674937439E0,-7.964936829E-1,6.293039758E0
2.766220250E0,5.936654663E0,-2.316882019E0,-7.869136047E-1,6.421140389E0
2.776288250E0,6.247109070E0,-1.971699829E0,-6.219566345E-1,6.580334490E0
2.786357250E0,6.594536591E0,-1.707050171E0,-3.598516846E-1,6.821394752E0
2.796425250E0,7.127278748E0,-1.523531799E0,-2.031275940E-1,7.291125586E0
2.806494250E0,7.715555420E0,-1.391206970E0,-2.478845215E-1,7.843895653E0
2.816562250E0,8.050109711E0,-1.193468170E0,-4.544549561E-1,8.150776769E0
2.826630250E0,8.022267609E0,-1.156644745E0,-5.930667114E-1,8.126889490E0
2.836699250E0,7.497608643E0,-1.237177277E0,-5.068460083E-1,7.615880504E0
2.846767250E0,7.109166412E0,-1.274898834E0,-4.340972900E-1,7.235610173E0
2.856836250E0,6.743027802E0,-1.256936188E0,-8.466394043E-1,6.911230773E0
2.866904250E0,6.522386627E0,-1.292113037E0,-1.241069183E0,6.763973398E0
2.876973250E0,6.871011658E0,-1.202299805E0,-1.288370819E0,7.093393080E0
2.887041250E0,7.632328491E0,-9.888436890E-1,-1.175655212E0,7.785397563E0
2.897110250E0,8.343349915E0,-1.014590149E0,-6.840774536E-1,8.432605939E0
2.907178250E0,8.670419769E0,-1.351838837E0,-5.950126648E-1,8.795321898E0
2.917247250E0,8.982371063E0,-1.750759277E0,-3.668870544E-1,9.158752867E0
2.927315250E0,9.598340149E0,-2.223625946E0,1.520837402E-1,9.853718863E0
2.937384250E0,1.054107971E1,-2.549198914E0,2.171983337E-1,1.084711721E1
2.947452250E0,1.117516113E1,-2.471510468E0,-3.110531616E-1,1.144942551E1
2.957521250E0,1.125255020E1,-2.361040192E0,-5.662724304E-1,1.151151864E1
2.967589250E0,1.173185349E1,-2.628234558E0,-1.016386414E-1,1.202307504E1
2.977657250E0,1.217972214E1,-2.440674591E0,-4.927752686E-1,1.243162706E1
2.987726250E0,1.199994598E1,-1.911974030E0,-7.093748474E-1,1.217199905E1
2.997794250E0,1.159234360E1,-1.787582703E0,-2.299218750E-1,1.173161311E1
3.007863250E0,1.151226013E1,-1.946103058E0,-7.219487000E-1,1.169789128E1
3.017931250E0,1.164503403E1,-2.094145203E0,-1.373094635E0,1.191124051E1
3.028000250E0,1.180250656E1,-2.356399841E0,-1.994153137E0,1.219952573E1
3.038068250E0,1.223510696E1,-2.582130432E0,-1.511107635E0,1.259558201E1
3.048137250E0,1.345357315E1,-2.247276764E0,8.828640747E-1,1.366851610E1
3.058205250E0,1.443822556E1,-2.263293457E0,2.046244812E0,1.475709905E1
3.068274250E0,1.413450714E1,-3.090173950E0,1.563648376E0,1.455261019E1
3.078342250E0,1.373513763E1,-3.118315430E0,2.345173187E0,1.427857606E1
3.088411250E0,1.339818832E1,-2.077380066E0,3.085234222E0,1.390487787E1
3.098479250E0,1.267579056E1,-1.885479126E0,4.376299438E0,1.354188667E1
3.108547250E0,1.122246277E1,-3.491190033E0,4.408482513E0,1.255256135E1
3.118616250E0,9.553134155E0,-4.132456512E0,4.806205444E0,1.146469275E1
3.128684250E0,9.830806732E0,-4.591851196E0,4.510420532E0,1.175047879E1
3.138753250E0,1.058598633E1,-5.468428345E0,3.744912415E0,1.248964307E1
3.148821250E0,1.114387619E1,-6.652915192E0,4.258195038E0,1.365941002E1
3.158890250E0,1.245305374E1,-7.912695465E0,3.670367432E0,1.520397626E1
3.168958250E0,1.351150269E1,-8.551716614E0,1.924996948E0,1.610584289E1
3.179027250E0,1.434452042E1,-8.570727081E0,-8.202941895E-2,1.671015732E1
3.189095250E0,1.513457748E1,-8.664881287E0,-1.175505524E0,1.747905651E1
3.199164250E0,1.494611938E1,-8.618178406E0,-1.341210938E0,1.730486436E1
3.209232250E0,1.322963882E1,-7.872728577E0,-1.159937897E0,1.543854445E1
3.219301250E0,1.174547516E1,-7.265740814E0,-1.027912445E0,1.384932418E1
3.229369250E0,1.094568832E1,-6.249803467E0,-9.870474243E-1,1.264287937E1
3.239438250E0,1.084719315E1,-4.634213104E0,-5.233117676E-1,1.180725986E1
3.249506250E0,1.077264816E1,-3.111579437E0,-4.743635559E-1,1.122305198E1
3.259574250E0,9.990823975E0,-1.888472900E0,-7.899073792E-1,1.019837474E1
3.269643250E0,9.056466980E0,-1.031504974E0,-8.249345398E-1,9.152273688E0
3.279711250E0,8.236172791E0,-4.326004028E-1,-7.011419678E-1,8.277275240E0
3.289780250E0,7.194638672E0,-2.841091919E-1,-4.198768616E-1,7.212478092E0
3.299848250E0,6.558162231E0,-9.939331055E-2,-3.499722290E-1,6.568245690E0
3.309917250E0,6.185287628E0,2.170486450E-1,-4.796026611E-1,6.207649464E0
3.319985250E0,5.298980713E0,-6.676116943E-2,-8.789721680E-1,5.371800976E0
3.330054250E0,4.445904694E0,-6.113287354E-1,-1.010698242E0,4.600141553E0
3.340122250E0,3.820654907E0,-1.118923187E0,-6.884184265E-1,4.040211993E0
3.350191250E0,3.172951813E0,-1.749262390E0,-3.483256531E-1,3.639900119E0
3.360259250E0,2.282902679E0,-2.369273071E0,-2.436932373E-1,3.299164428E0
3.370327250E0,1.679657135E0,-2.848875732E0,-4.689747620E-1,3.340251242E0
3.380396250E0,1.734293518E0,-2.988086243E0,-9.086105347E-1,3.572395066E0
3.390464250E0,2.055226135E0,-2.903362427E0,-1.454824677E0,3.843173518E0
3.400533250E0,2.506537628E0,-2.724484406E0,-2.011367340E0,4.213210739E0
3.410601250E0,3.126997375E0,-2.583926697E0,-2.122136993E0,4.578018696E0
3.420670250E0,3.567381592E0,-2.380350037E0,-1.912423096E0,4.695704400E0
3.430738250E0,3.810326385E0,-2.295027466E0,-1.832788696E0,4.810909752E0
3.440807250E0,4.070635071E0,-2.258653107E0,-2.024989014E0,5.076629220E0
3.450875250E0,4.214186554E0,-2.091151428E0,-2.459535370E0,5.308634179E0
3.460944250E0,4.614603882E0,-2.159559174E0,-3.589535522E0,6.232417675E0
3.471012250E0,5.257516937E0,-2.190694427E0,-4.999603271E0,7.578697731E0
3.481081250E0,6.294261017E0,-2.091600494E0,-6.147566071E0,9.043510544E0
3.491149250E0,7.384743347E0,-1.886377258E0,-6.822213135E0,1.022914686E1
3.501218250E0,8.882828064E0,-1.838327179E0,-6.909481659E0,1.140285131E1
3.511286250E0,1.069780380E1,-1.962718506E0,-6.420747986E0,1.263017319E1
3.521354250E0,1.226923599E1,-2.343227234E0,-5.271138611E0,1.355764611E1
3.531423250E0,1.354817642E1,-3.651806030E0,-4.081712036E0,1.461332080E1
3.541491250E0,1.451726120E1,-5.151986389E0,-5.673202515E0,1.641581747E1
3.551560250E0,1.462054642E1,-5.573958893E0,-8.176896057E0,1.765477342E1
3.561628250E0,1.326346848E1,-5.596262512E0,-9.335786133E0,1.715793265E1
3.571697250E0,1.057969940E1,-5.562133484E0,-7.521708527E0,1.412244552E1
3.581765958E0,8.171507263E0,-5.433101807E0,-4.548890533E0,1.081593876E1
3.591834958E0,6.721173248E0,-4.921465759E0,-4.192930756E0,9.326074382E0
3.601902958E0,5.918841705E0,-4.052522736E0,-6.367009735E0,9.591373240E0
3.611971958E0,6.329886932E0,-3.719914398E0,-8.995094604E0,1.161107052E1
3.622039958E0,8.189320221E0,-3.884871368E0,-1.036280045E1,1.376752789E1
3.632107958E0,1.119671631E1,-5.518574066E0,-1.049377808E1,1.630768206E1
3.642176958E0,1.444211746E1,-7.088808746E0,-8.039481812E0,1.798497245E1
3.652244958E0,1.600531677E1,-7.478298798E0,-4.778363342E0,1.830103478E1
3.662313958E0,1.397059799E1,-8.530760193E0,-1.319805450E0,1.642234344E1
3.672381958E0,9.433383179E0,-9.423653412E0,6.017486572E-1,1.334751150E1
3.682450958E0,7.697293396E0,-6.842870178E0,-4.460723877E-1,1.030883982E1
3.692518958E0,7.127428436E0,-4.681814117E0,-1.103654938E0,8.598701865E0
3.702587958E0,7.655230865E0,-3.551963654E0,-1.799258423E0,8.628808508E0
3.712655958E0,8.677006073E0,-3.655997314E0,-2.604434052E0,9.769330964E0
3.722724958E0,9.545350342E0,-4.176015930E0,-2.381098480E0,1.068749045E1
3.732792958E0,1.016161880E1,-3.882027283E0,-8.834628296E-1,1.091371335E1
3.742861958E0,9.911938019E0,-3.153342590E0,1.139131165E-1,1.040207003E1
3.752929958E0,9.707612915E0,-2.930156708E0,4.996609497E-1,1.015249860E1
3.762997958E0,1.040635986E1,-3.277584229E0,3.694317627E-1,1.091656374E1
3.773066958E0,1.181388290E1,-3.254083099E0,-6.291416931E-1,1.226999207E1
3.783134958E0,1.289164169E1,-2.543510742E0,-1.536405029E0,1.322967924E1
3.793203958E0,1.273162445E1,-1.863774261E0,-1.869612122E0,1.300243689E1
3.803271958E0,1.139370667E1,-1.529818726E0,-1.689237213E0,1.161939840E1
3.813340958E0,9.796228638E0,-1.816322937E0,-1.127156067E0,1.002674450E1
3.823408958E0,8.453670502E0,-2.383343811E0,-7.101232910E-1,8.811875383E0
3.833477958E0,7.857011261E0,-2.690804443E0,-6.393205261E-1,8.329572933E0
3.843545958E0,7.549251251E0,-2.845133514E0,-1.245859222E0,8.163218996E0
3.853614958E0,7.137307892E0,-3.073708191E0,-1.826801147E0,7.982859664E0
3.863682958E0,6.245612183E0,-3.229085083E0,-1.827250214E0,7.264537518E0
3.873750958E0,5.224585419E0,-3.395988007E0,-1.891017609E0,6.511910237E0
3.883819958E0,4.761448517E0,-3.326233063E0,-2.101330261E0,6.176633973E0
3.893887958E0,4.741090851E0,-3.144960022E0,-2.217339020E0,6.106169693E0
3.903956958E0,4.991669769E0,-2.871778107E0,-2.150577850E0,6.147264568E0
3.914024958E0,5.247038727E0,-2.786156158E0,-1.947300568E0,6.251884599E0
3.924093958E0,5.540428619E0,-2.517913971E0,-1.586251373E0,6.289072545E0
3.934161958E0,6.113886108E0,-2.019749908E0,-1.005010071E0,6.516827317E0
3.944230958E0,6.766678619E0,-1.621877289E0,-2.692900085E-1,6.963543824E0
3.954298958E0,7.074139252E0,-1.230291595E0,-3.293151855E-2,7.180400271E0
3.964367958E0,7.394473114E0,-1.059646454E0,-2.604583740E-2,7.470057672E0
3.974435958E0,7.642956390E0,-8.616082764E-1,-1.404080200E-1,7.692650104E0
3.984504958E0,7.579039307E0,-8.301736450E-1,-7.918533325E-2,7.624781663E0
3.994572958E0,7.197632446E0,-1.071172485E0,-1.564247131E-1,7.278584479E0
4.004640958E0,6.896458740E0,-1.243613892E0,-3.525169373E-1,7.016550923E0
4.014709958E0,6.828200684E0,-1.431173859E0,-8.542735291E-1,7.028681701E0
4.024777958E0,6.710245972E0,-1.539099426E0,-1.522334290E0,7.050796390E0
4.034846958E0,6.969357147E0,-1.454225922E0,-1.886227570E0,7.365091073E0
4.044914958E0,7.715854797E0,-1.557361450E0,-1.359023895E0,7.987911860E0
4.054983958E0,8.394842834E0,-2.172582092E0,-3.655398560E-1,8.679119687E0
4.065051958E0,8.673114166E0,-2.798280945E0,-1.206491089E-1,9.114156121E0
4.075120958E0,8.922196198E0,-3.278632050E0,8.098159790E-2,9.505870351E0
4.085188958E0,8.950637054E0,-3.789519653E0,2.381547546E-1,9.722709528E0
4.095257958E0,9.005423126E0,-4.184398499E0,3.983216858E-1,9.938083147E0
4.105325958E0,9.179511108E0,-3.996838531E0,2.730322266E-1,1.001562225E1
4.115393958E0,9.524244232E0,-3.631298676E0,-6.002517700E-2,1.019319191E1
4.125462958E0,1.027044250E1,-3.348087616E0,-6.541397095E-2,1.080259038E1
4.135530958E0,1.124506577E1,-3.057392120E0,-4.593946838E-1,1.166234085E1
4.145599958E0,1.197854050E1,-2.588716736E0,-9.406439209E-1,1.229112272E1
4.155667958E0,1.199889816E1,-2.161505127E0,-9.160949707E-1,1.222640141E1
4.165736958E0,1.204859482E1,-2.008523254E0,-8.152047729E-1,1.224203258E1
4.175804958E0,1.225785965E1,-2.051932983E0,-1.037492523E0,1.247164556E1
4.185873958E0,1.217493210E1,-2.207160187E0,-1.378633118E0,1.244994606E1
4.195941958E0,1.236922806E1,-2.306254120E0,-1.572929077E0,1.268032794E1
4.206010958E0,1.318907318E1,-1.947450256E0,-1.381626892E-1,1.333279051E1
4.216078958E0,1.431054108E1,-1.544937286E0,1.310824127E0,1.445325835E1
4.226147958E0,1.465991455E1,-1.846709747E0,1.237776031E0,1.482752579E1
4.236215958E0,1.359173584E1,-1.693129120E0,1.469494171E0,1.377539047E1
4.246283958E0,1.355566086E1,-9.701325989E-1,2.091001740E0,1.375025043E1
4.256352958E0,1.407702667E1,-1.054407349E0,3.057691498E0,1.444381986E1
4.266420958E0,1.322514816E1,-2.091899872E0,4.233945465E0,1.404303682E1
4.276489958E0,1.108070755E1,-3.120710449E0,4.345912628E0,1.230479053E1
4.286557958E0,8.926387482E0,-4.020189972E0,4.222868500E0,1.066184502E1
4.296626958E0,8.786578217E0,-4.924160156E0,3.760480042E0,1.075139620E1
4.306694958E0,1.012269974E1,-6.143075409E0,3.624562683E0,1.238320960E1
4.316763958E0,1.116692825E1,-7.802524567E0,3.629951477E0,1.409809292E1
4.326831958E0,1.235830078E1,-8.701854401E0,3.938310242E0,1.561922392E1
4.336900958E0,1.351823868E1,-8.594228210E0,2.338137817E0,1.618858931E1
4.346968958E0,1.460018875E1,-8.412655792E0,-9.924362183E-2,1.685076076E1
4.357036958E0,1.537153473E1,-8.653804321E0,-1.414109344E0,1.769666958E1
4.367105958E0,1.475137436E1,-8.817563782E0,-1.248553619E0,1.723111612E1
4.377173958E0,1.268986130E1,-8.022866364E0,-7.655081177E-1,1.503279638E1
4.387242958E0,1.131826355E1,-7.158114624E0,-2.692900085E-1,1.339455904E1
4.397310958E0,1.096784225E1,-6.235583038E0,-1.043330383E-1,1.261693088E1
4.407379958E0,1.042926224E1,-5.091961212E0,1.630110168E-1,1.160707338E1
4.417447958E0,9.629026337E0,-3.977678375E0,1.368154907E-1,1.041915505E1
4.427516958E0,8.713829498E0,-3.037932587E0,-3.797602844E-1,9.236020615E0
4.437584958E0,8.346493378E0,-2.318079529E0,-8.499325562E-1,8.704012279E0
4.447653958E0,8.483608246E0,-1.515897675E0,-1.177301788E0,8.698022426E0
4.457721958E0,7.900870056E0,-9.976753235E-1,-1.236877899E0,8.059092420E0
4.467789958E0,7.016658783E0,-8.655001831E-1,-1.002615051E0,7.140576166E0
4.477858958E0,6.461014252E0,-6.938072205E-1,-7.845185852E-1,6.545345142E0
4.487926958E0,5.659281464E0,-7.478448486E-1,-7.140151978E-1,5.752960656E0
4.497995958E0,4.621040497E0,-1.063388672E0,-6.753955078E-1,4.789673249E0
4.508063958E0,3.615880737E0,-1.328487396E0,-6.712042236E-1,3.910241345E0
4.518132958E0,3.078348541E0,-1.610051880E0,-4.412823486E-1,3.501889049E0
4.528200958E0,2.808459778E0,-1.774260406E0,-1.203497314E-1,3.324143555E0
4.538269958E0,2.453996887E0,-2.095941467E0,-2.574645996E-2,3.227341667E0
4.548337958E0,2.199076996E0,-2.381248169E0,-3.776646423E-1,3.263267237E0
4.558406958E0,2.052382050E0,-2.383942566E0,-8.924441528E-1,3.269848743E0
4.568474958E0,2.311044159E0,-2.418370972E0,-1.210083618E0,3.557210371E0
4.578542333E0,2.756966858E0,-2.394570465E0,-1.379381561E0,3.903527566E0
4.588611333E0,3.347039795E0,-2.401456146E0,-1.619182892E0,4.426219634E0
4.598679333E0,3.805985413E0,-2.323468323E0,-1.829944611E0,4.820033951E0
4.608748333E0,3.999682617E0,-2.235002289E0,-1.949096832E0,4.979123892E0
4.618816333E0,4.139641571E0,-2.258204041E0,-2.588117981E0,5.379077292E0
4.628885333E0,4.582869873E0,-2.181413727E0,-3.429069214E0,6.125338994E0
4.638953333E0,5.429209900E0,-2.083517303E0,-4.391717377E0,7.287286601E0
4.649022333E0,6.194718018E0,-2.257006531E0,-5.764063568E0,8.757456173E0
4.659090333E0,7.010820923E0,-2.224075012E0,-6.943760376E0,1.011503474E1
4.669159333E0,8.074359283E0,-2.104174347E0,-7.129075012E0,1.097481380E1
4.679227333E0,9.461674347E0,-2.544259186E0,-6.863227844E0,1.196245931E1
4.689295333E0,1.125090363E1,-2.834056549E0,-6.632108459E0,1.336411507E1
4.699364333E0,1.303893539E1,-3.135978699E0,-5.481002197E0,1.448756652E1
4.709432333E0,1.474239304E1,-3.695365448E0,-5.702840881E0,1.623318429E1
4.719501333E0,1.557421326E1,-3.572021942E0,-6.677015076E0,1.731756304E1
4.729569333E0,1.412223267E1,-3.760330353E0,-7.838749237E0,1.658383338E1
4.739638333E0,1.085333038E1,-4.664300537E0,-7.929909668E0,1.422792842E1
4.749706333E0,8.011340332E0,-5.354515228E0,-6.182892609E0,1.144904224E1
4.759775333E0,5.939648438E0,-5.408103790E0,-4.805307312E0,9.360448095E0
4.769843333E0,5.106181641E0,-5.147196350E0,-5.890700226E0,9.341684557E0
4.779912333E0,5.096900940E0,-4.302203522E0,-8.196355591E0,1.056728912E1
4.789980333E0,6.370153198E0,-3.549269257E0,-9.457333374E0,1.194224931E1
4.800048333E0,8.611741791E0,-4.508025513E0,-9.548344116E0,1.362553728E1
4.810117333E0,1.109013794E1,-7.835156708E0,-7.903564453E0,1.571137076E1
4.820185333E0,1.424228302E1,-1.038196060E1,-4.428840179E0,1.817257155E1
4.830254333E0,1.578317871E1,-1.067041077E1,-7.810757446E-1,1.906768144E1
4.840322333E0,1.411639481E1,-1.048779053E1,6.560856628E-1,1.759820448E1
4.850391333E0,1.159369080E1,-8.571625214E0,-1.130598907E0,1.446252671E1
4.860459333E0,1.093580887E1,-6.094576263E0,-2.195185089E0,1.271041357E1
4.870528333E0,1.049153275E1,-3.365750885E0,-2.001038818E0,1.119842376E1
4.880596333E0,7.944279785E0,-2.605481873E0,-1.671573944E0,8.526093862E0
4.890665333E0,6.296356659E0,-3.547622681E0,-1.754052429E0,7.436829552E0
4.900733333E0,7.538922729E0,-3.599115601E0,-1.986818390E0,8.586992276E0
4.910801333E0,8.913364563E0,-2.658172302E0,-1.462608490E0,9.415581311E0
4.920870333E0,9.286538544E0,-2.264490967E0,-8.421487427E-1,9.595672565E0
4.930938333E0,9.514364777E0,-2.490371246E0,-2.814147949E-2,9.834931519E0
4.941007333E0,1.035830978E1,-2.720742188E0,1.137634277E-2,1.070967549E1
4.951075333E0,1.202329742E1,-2.486629028E0,-9.303153992E-1,1.231294001E1
4.961144333E0,1.356793533E1,-1.898052979E0,-2.019300842E0,1.384807027E1
4.971212333E0,1.342348572E1,-1.328188019E0,-2.285597076E0,1.368130134E1
4.981281333E0,1.235545670E1,-1.357227631E0,-1.908381500E0,1.257542432E1
4.991349333E0,1.048883835E1,-1.913770294E0,-1.384470978E0,1.075151183E1
5.001418333E0,8.795709229E0,-2.516566772E0,-7.563771057E-1,9.179853783E0
5.011486333E0,7.589517517E0,-2.812950439E0,-2.333647156E-1,8.097402386E0
5.021554333E0,7.016209717E0,-3.463796997E0,-7.063810730E-1,7.856466295E0
5.031623333E0,6.768025818E0,-3.801195374E0,-1.171613617E0,7.850346375E0
5.041691333E0,6.484365692E0,-3.482208710E0,-1.138981476E0,7.447822147E0
5.051760333E0,5.732179871E0,-3.245999908E0,-1.319356384E0,6.718266350E0
5.061828333E0,4.793481903E0,-3.116219788E0,-1.184337158E0,5.838745501E0
5.071897333E0,3.998634796E0,-3.228486328E0,-9.172924805E-1,5.220500905E0
5.081965333E0,3.866160278E0,-3.344195709E0,-7.541317749E-1,5.167161210E0
5.092034333E0,4.202810211E0,-3.567231903E0,-9.330097961E-1,5.590998516E0
5.102102333E0,4.940027161E0,-3.303330688E0,-1.024170227E0,6.030322267E0
5.112171333E0,5.975274353E0,-2.564766541E0,-9.120533752E-1,6.566107855E0
5.122239333E0,6.788533173E0,-2.001038818E0,-5.363346863E-1,7.097604799E0
5.132307333E0,7.497608643E0,-1.822909241E0,3.532653809E-2,7.716111807E0
5.142376333E0,7.693850555E0,-1.798809357E0,3.670367432E-1,7.909852555E0
5.152444333E0,7.464527435E0,-1.706900482E0,7.195536804E-1,7.690932101E0
5.162513333E0,7.053033142E0,-1.647024994E0,1.161584473E0,7.335342277E0
5.172581333E0,6.738088074E0,-1.527872772E0,7.232958984E-1,6.946897369E0
5.182650333E0,6.662495270E0,-1.521286469E0,-3.350033569E-1,6.842176773E0
5.192718333E0,6.831194458E0,-1.537752228E0,-1.431622925E0,7.146988445E0
5.202787333E0,7.393874359E0,-1.405427399E0,-1.975442047E0,7.781193706E0
5.212855333E0,8.148455200E0,-1.617835693E0,-1.476679230E0,8.437730502E0
5.222924333E0,8.885821838E0,-2.519410858E0,-5.688171387E-1,9.253583833E0
5.232992333E0,9.444909210E0,-3.471880188E0,-6.677613831E-1,1.008494756E1
5.243060333E0,1.007435028E1,-3.895199890E0,-1.100212097E0,1.085705220E1
5.253129333E0,1.076216995E1,-3.812571716E0,-7.041357422E-1,1.143922254E1
5.263197333E0,1.073013657E1,-3.348087616E0,-1.251397705E-1,1.124104894E1
5.273266333E0,1.013437546E1,-2.847229156E0,-1.124162292E-1,1.052734141E1
5.283334333E0,1.050231033E1,-2.212698669E0,-8.397537231E-2,1.073320127E1
5.293403333E0,1.100975510E1,-1.664538574E0,-7.114704895E-1,1.115757976E1
5.303471333E0,1.106169708E1,-1.165925446E0,-1.449435883E0,1.121701337E1
5.313540333E0,1.108519821E1,-9.282197571E-1,-1.152004395E0,1.118348449E1
5.323608333E0,1.134865036E1,-1.038540344E0,-1.035696259E0,1.144303709E1
5.333676333E0,1.185819077E1,-1.315165100E0,-1.686991882E0,1.204957630E1
5.343745333E0,1.238075409E1,-1.998943176E0,-2.109413452E0,1.271725091E1
5.353813333E0,1.255499176E1,-2.947370911E0,-1.797013092E0,1.302090893E1
5.363882333E0,1.273880951E1,-2.991978149E0,-2.806663513E-1,1.308846723E1
5.373950333E0,1.310090652E1,-2.463726654E0,8.653504944E-1,1.335861266E1
5.384019333E0,1.386461838E1,-2.913990326E0,7.194039917E-1,1.418578600E1
5.394087333E0,1.410157562E1,-3.443139954E0,1.735341339E0,1.461920167E1
5.404156333E0,1.238689133E1,-2.567161560E0,2.295476532E0,1.285669505E1
5.414224333E0,1.109687393E1,-1.667532349E0,3.331921234E0,1.170568128E1
5.424293333E0,1.022224274E1,-2.192939758E0,4.627028046E0,1.143296199E1
5.434361333E0,8.959169312E0,-3.759581909E0,4.823569336E0,1.084748782E1
5.444429333E0,9.772278442E0,-4.823719025E0,3.837569733E0,1.155390119E1
5.454498333E0,1.143891266E1,-5.729934540E0,3.915258179E0,1.337946633E1
5.464566333E0,1.211385910E1,-6.787784729E0,4.396956482E0,1.456546704E1
5.474635333E0,1.279135025E1,-7.986791382E0,4.254752197E0,1.566877130E1
5.484703333E0,1.357826385E1,-8.748856659E0,2.808010712E0,1.639501956E1
5.494772333E0,1.449810104E1,-8.968899078E0,9.825567627E-1,1.707634335E1
5.504840333E0,1.509431122E1,-9.302854614E0,-2.408491516E-1,1.773243761E1
5.514909333E0,1.473670486E1,-9.788145447E0,-9.377998352E-1,1.771603031E1
5.524977333E0,1.318982162E1,-9.459878082E0,-1.565145264E0,1.630675834E1
5.535046333E0,1.109702362E1,-8.358318787E0,-2.091001740E0,1.404911792E1
5.545114333E0,1.050710037E1,-6.787185974E0,-2.077230377E0,1.267990291E1
5.555182333E0,1.094164673E1,-5.339246979E0,-1.742227020E0,1.229888395E1
5.565251333E0,1.083402054E1,-4.168381805E0,-1.400188293E0,1.169238792E1
5.575319333E0,1.010189301E1,-3.313359833E0,-1.113534393E0,1.068955352E1
5.585388458E0,9.331594849E0,-2.630629578E0,-7.911048889E-1,9.727523906E0
5.595456458E0,8.698112183E0,-1.905387726E0,-6.083349609E-1,8.925117890E0
5.605525458E0,8.426427155E0,-1.148860931E0,-2.561174011E-1,8.508240250E0
5.615593458E0,8.093369751E0,-2.615061951E-1,-8.143066406E-2,8.098002863E0
5.625662458E0,7.090006256E0,2.243833923E-1,-1.767823792E-1,7.095758496E0
5.635730458E0,6.282435608E0,1.185534668E-1,-2.445913696E-1,6.288312733E0
5.645798458E0,5.317841492E0,-4.129911804E-1,-1.360670471E-1,5.335589385E0
5.655867458E0,4.412524109E0,-9.773176575E-1,-9.220825195E-2,4.520400555E0
5.665935458E0,3.466641083E0,-1.550475769E0,-1.058299255E-1,3.799049286E0
5.676004458E0,2.758613434E0,-2.107916565E0,-2.020797729E-2,3.471839381E0
5.686072458E0,2.285746765E0,-2.602338409E0,-1.760339355E-1,3.468110641E0
5.696141458E0,1.769919434E0,-2.864443359E0,-5.379812622E-1,3.409849615E0
5.706209458E0,1.395997009E0,-3.132386169E0,-9.892927551E-1,3.569222733E0
5.716278458E0,1.182989960E0,-3.345093842E0,-1.372645569E0,3.804375627E0
5.726346458E0,1.226399689E0,-3.476071472E0,-1.631457367E0,4.030977824E0
5.736415458E0,1.775906982E0,-3.339705048E0,-1.681303711E0,4.139354730E0
5.746483458E0,2.637515259E0,-2.936593323E0,-1.715881805E0,4.303988552E0
5.756551458E0,3.402274933E0,-2.528691559E0,-1.826202393E0,4.615709143E0
5.766620458E0,3.682641907E0,-2.342329102E0,-2.363884277E0,4.963497347E0
5.776688458E0,3.982767792E0,-2.315385132E0,-3.382665710E0,5.715406801E0
5.786757458E0,4.542753296E0,-2.103725281E0,-4.384083252E0,6.654506257E0
5.796825458E0,5.561534729E0,-1.852397919E0,-5.334157562E0,7.925609345E0
5.806894458E0,6.586603088E0,-1.683848419E0,-6.148314514E0,9.166267349E0
5.816962458E0,7.731123047E0,-1.533860321E0,-6.653813324E0,1.031485447E1
5.827031458E0,9.479786682E0,-1.857936401E0,-6.439908142E0,1.160993971E1
5.837099458E0,1.147902924E1,-2.306703186E0,-5.882167969E0,1.310301079E1
5.847167458E0,1.346090790E1,-2.888094177E0,-4.806504822E0,1.458216781E1
5.857236458E0,1.537482788E1,-3.874393158E0,-4.619543610E0,1.651473396E1
5.867304458E0,1.601280121E1,-5.019661560E0,-6.536008301E0,1.800905909E1
5.877373458E0,1.427671143E1,-5.661077728E0,-8.263565826E0,1.744014938E1
5.887441458E0,1.105630829E1,-5.611830139E0,-8.193361816E0,1.486155336E1
5.897510458E0,8.453221436E0,-5.598507843E0,-6.091881866E0,1.182840933E1
5.907578458E0,7.599097595E0,-4.893923035E0,-4.860692139E0,1.026270408E1
5.917647458E0,7.306905212E0,-3.471281433E0,-5.925727386E0,1.002770680E1
5.927715458E0,6.839726715E0,-2.340682526E0,-7.726482697E0,1.058107703E1
5.937784458E0,6.282285919E0,-1.827998657E0,-9.706714783E0,1.170593898E1
5.947852458E0,6.390061798E0,-2.964884491E0,-1.136197266E1,1.336853965E1
5.957920458E0,9.485175476E0,-5.458399200E0,-1.060320053E1,1.523779962E1
5.967989458E0,1.296933014E1,-7.577093353E0,-8.692873077E0,1.735459335E1
5.978057458E0,1.550924835E1,-9.404044189E0,-5.194647675E0,1.886682793E1
5.988126458E0,1.676408890E1,-9.340576172E0,-1.398841095E0,1.924156429E1
5.998194458E0,1.441921509E1,-1.113818802E1,1.882934418E0,1.831716239E1
6.008263458E0,1.132095795E1,-1.008108627E1,1.244961090E0,1.520994140E1
6.018331458E0,7.702233124E0,-6.387068024E0,-1.046024780E0,1.006047717E1
6.028400458E0,5.479205933E0,-4.406536560E0,-1.801054688E0,7.258309727E0
6.038468458E0,5.627846832E0,-4.697830811E0,-2.656974792E0,7.797550214E0
6.048536458E0,7.395820313E0,-5.766159210E0,-3.395538940E0,9.973787386E0
6.058605458E0,9.072783051E0,-5.155728607E0,-2.367327118E0,1.070052183E1
6.068673458E0,9.696086884E0,-4.087849274E0,-4.882846069E-1,1.053389930E1
6.078742458E0,9.839338989E0,-3.301235046E0,5.608836365E-1,1.039352371E1
6.088810458E0,1.038824753E1,-3.398532715E0,1.601369934E0,1.104672336E1
6.098879458E0,1.184202438E1,-3.856879578E0,9.241781616E-1,1.248852140E1
6.108947458E0,1.396850235E1,-3.128344574E0,-8.328680420E-1,1.433873310E1
6.119016458E0,1.485196518E1,-1.809736633E0,-2.170785828E0,1.511847636E1
6.129084458E0,1.348096619E1,-1.009500732E0,-2.080074463E0,1.367780139E1
6.139153458E0,1.114402588E1,-1.147364044E0,-1.160087585E0,1.126283979E1
6.149221458E0,9.045689392E0,-2.011217651E0,-4.152365112E-1,9.275878092E0
6.159289458E0,7.182663574E0,-2.807561646E0,2.948867798E-2,7.711934128E0
6.169358458E0,6.003715210E0,-3.464395752E0,-1.393601990E-1,6.932968737E0
6.179426458E0,5.194797363E0,-3.876189423E0,-9.090596008E-1,6.545009812E0
6.189495458E0,4.910987549E0,-4.246669006E0,-1.718725891E0,6.716101179E0
6.199563458E0,4.888683929E0,-4.588108978E0,-2.147434387E0,7.039989276E0
6.209632458E0,4.833299103E0,-4.632117462E0,-2.304158478E0,7.080002732E0
6.219700458E0,5.022954712E0,-4.131109314E0,-2.196382599E0,6.864418018E0
6.229769458E0,5.284610596E0,-3.496279449E0,-1.831890564E0,6.595976211E0
6.239837458E0,5.512586517E0,-2.883453827E0,-1.368753662E0,6.369960963E0
6.249905458E0,5.672005005E0,-2.590363312E0,-9.042695618E-1,6.300740139E0
6.259974458E0,5.836063843E0,-2.388582916E0,-4.840933228E-1,6.324501235E0
6.270042458E0,5.950126648E0,-1.751208344E0,-2.888992310E-1,6.209202892E0
6.280111458E0,6.166127472E0,-1.304986267E0,-1.323248291E-1,6.304096051E0
6.290179458E0,6.723119202E0,-1.299896851E0,5.748046875E-2,6.847873219E0
6.300248458E0,6.984475708E0,-1.225351868E0,4.480183411E-1,7.105287366E0
6.310316458E0,7.082821198E0,-9.449848938E-1,6.562353516E-1,7.175653099E0
6.320385458E0,7.123985596E0,-8.720864868E-1,6.367758179E-1,7.205358357E0
6.330453458E0,7.066954193E0,-7.439529419E-1,2.276765442E-1,7.109651479E0
6.340522458E0,7.000941467E0,-8.090675354E-1,-4.442761230E-1,7.061526250E0
6.350590458E0,7.136858826E0,-9.982740784E-1,-1.503473511E0,7.361503762E0
6.360658458E0,7.472311249E0,-9.535171509E-1,-2.180515594E0,7.842147577E0
6.370727458E0,8.368647308E0,-1.279539185E0,-1.360221405E0,8.574478443E0
6.380795458E0,9.392667847E0,-2.130220184E0,-9.071136475E-1,9.673825638E0
6.390864458E0,9.849218445E0,-2.675087128E0,-1.066532135E0,1.026161225E1
6.400932458E0,1.025756927E1,-2.785407715E0,-1.087039490E0,1.068446903E1
6.411001458E0,1.068014053E1,-2.840792542E0,-6.550378418E-1,1.107088879E1
6.421069458E0,1.076067307E1,-3.002606049E0,-2.369572449E-1,1.117425061E1
6.431138458E0,1.043944107E1,-3.416944427E0,-1.652563477E-1,1.098566105E1
6.441206458E0,1.033870056E1,-3.738326111E0,8.577163696E-2,1.099414245E1
6.451274458E0,1.072160431E1,-3.626059570E0,-4.188290405E-1,1.132592269E1
6.461343458E0,1.078582077E1,-2.939287720E0,-1.349294128E0,1.126028137E1
6.471411458E0,1.087293961E1,-2.319726105E0,-9.163943481E-1,1.115534506E1
6.481480458E0,1.154594009E1,-2.053878937E0,-5.224136353E-1,1.173882734E1
6.491548458E0,1.250185226E1,-1.858834534E0,-1.184935913E0,1.269470949E1
6.501617458E0,1.306842407E1,-2.090402985E0,-2.311642914E0,1.343492409E1
6.511685458E0,1.315614166E1,-2.456391907E0,-2.478246460E0,1.361101136E1
6.521754458E0,1.389799896E1,-2.421664124E0,-1.294058990E0,1.416663054E1
6.531822458E0,1.484927078E1,-2.344574432E0,3.606001282E-1,1.503754982E1
6.541890458E0,1.491513382E1,-3.100352783E0,7.113208008E-1,1.525055348E1
6.551959458E0,1.386267242E1,-3.907773743E0,9.289682007E-1,1.443285711E1
6.562027458E0,1.286739212E1,-3.166814575E0,1.613195343E0,1.334919075E1
6.572096458E0,1.085482727E1,-2.359992371E0,2.504741364E0,1.138729855E1
6.582165208E0,9.108708344E0,-2.952759705E0,4.199517059E0,1.045577836E1
6.592234208E0,8.167615356E0,-3.683090973E0,4.603377228E0,1.007304232E1
6.602302208E0,9.922715607E0,-3.531755676E0,3.504811707E0,1.110032830E1
6.612371208E0,1.077115128E1,-4.476141815E0,4.013004913E0,1.233522411E1
6.622439208E0,1.126826752E1,-6.549929352E0,4.166884918E0,1.368350676E1
6.632508208E0,1.202614151E1,-8.129594421E0,3.665876770E0,1.497187488E1
6.642576208E0,1.264779877E1,-8.512348480E0,3.104693756E0,1.555847080E1
6.652644208E0,1.416579208E1,-8.460107117E0,-3.772155762E-2,1.649983335E1
6.662713208E0,1.582344498E1,-8.847351837E0,-1.589843903E0,1.819847931E1
6.672781208E0,1.573497894E1,-9.209598541E0,-1.055305481E0,1.826252823E1
6.682850208E0,1.383662659E1,-8.686436462E0,-7.216493225E-1,1.635320126E1
6.692918208E0,1.184741318E1,-7.733817444E0,-1.512305145E0,1.422885091E1
6.702987208E0,1.071382050E1,-6.831493835E0,-2.103575592E0,1.287945216E1
6.713055208E0,1.013692017E1,-5.726491699E0,-1.725910950E0,1.176981845E1
6.723124208E0,9.391021271E0,-4.699327698E0,-1.151555328E0,1.056413939E1
6.733192208E0,8.581055603E0,-3.577560425E0,-1.170116730E0,9.370305599E0
6.743260208E0,7.937843170E0,-2.615211639E0,-1.423390045E0,8.477896280E0
6.753329208E0,7.527097321E0,-1.573677521E0,-1.144819336E0,7.774591071E0
6.763397208E0,7.162455597E0,-7.460485840E-1,-6.236032104E-1,7.228156033E0
6.773466208E0,6.636449432E0,-8.382568359E-2,-5.288502502E-1,6.658015500E0
6.783534208E0,6.308032379E0,2.748284912E-1,-7.397616577E-1,6.357204614E0
6.793603208E0,5.915548553E0,-3.128494263E-2,-8.551716614E-1,5.977124058E0
6.803671208E0,5.483846283E0,-2.610571289E-1,-4.713697815E-1,5.510255017E0
6.813740208E0,4.946463776E0,-6.942562866E-1,-1.529818726E-1,4.997289178E0
6.823808208E0,4.029320984E0,-1.230291595E0,-2.113604736E-1,4.218260098E0
6.833876208E0,3.207230530E0,-1.796264648E0,-2.297721863E-1,3.683162991E0
6.843945208E0,2.530487823E0,-2.478994904E0,-4.156855774E-1,3.566732238E0
6.854013208E0,2.109263763E0,-2.950214996E0,-6.891668701E-1,3.691573259E0
6.864082208E0,1.756597137E0,-3.131637726E0,-8.428971863E-1,3.688260297E0
6.874150208E0,1.752405853E0,-3.306324463E0,-1.080902252E0,3.895004160E0
6.884219208E0,1.741029510E0,-3.378474426E0,-1.782343597E0,4.197859205E0
6.894287208E0,2.414329376E0,-3.538192291E0,-2.141446838E0,4.788902336E0
6.904356208E0,3.415597229E0,-3.430715790E0,-2.225871277E0,5.328284734E0
6.914424208E0,3.781885529E0,-3.169209595E0,-2.621199188E0,5.587238387E0
6.924492208E0,3.898343353E0,-2.857407990E0,-3.388204193E0,5.902693366E0
6.934561208E0,4.132755890E0,-2.471959534E0,-4.440815277E0,6.550656113E0
6.944629208E0,4.796924744E0,-2.093247070E0,-5.426814880E0,7.539395867E0
6.954698208E0,5.964496765E0,-1.953437805E0,-6.192322998E0,8.816802427E0
6.964766208E0,7.179370422E0,-2.092348938E0,-6.738836517E0,1.006643936E1
6.974835208E0,8.542884979E0,-2.308349762E0,-6.572382660E0,1.102295678E1
6.984903208E0,1.022852966E1,-2.578238525E0,-5.748645630E0,1.201320355E1
6.994972208E0,1.212044540E1,-2.742896118E0,-4.677473145E0,1.327808084E1
7.005040208E0,1.420051987E1,-3.184926910E0,-3.481310577E0,1.496389145E1
7.015109208E0,1.591340790E1,-4.072880402E0,-4.876110077E0,1.713479954E1
7.025177208E0,1.622730515E1,-4.405488739E0,-7.636819153E0,1.846766824E1
7.035245208E0,1.445678696E1,-4.507277069E0,-9.279802551E0,1.776032013E1
7.045314208E0,1.103355560E1,-4.796475677E0,-8.982969818E0,1.501463536E1
7.055382208E0,7.998018036E0,-5.552852783E0,-7.081024933E0,1.203924336E1
7.065451208E0,6.260581055E0,-5.170098724E0,-4.942272491E0,9.505306589E0
7.075519208E0,5.393434296E0,-4.766687622E0,-5.776338043E0,9.229112936E0
7.085588208E0,4.682263184E0,-4.201313324E0,-8.051307220E0,1.021754227E1
7.095656208E0,5.266049194E0,-4.827760620E0,-1.033840118E1,1.256666566E1
7.105725208E0,8.030949554E0,-5.248834991E0,-1.012359787E1,1.394753216E1
7.115793208E0,1.100197128E1,-6.142925720E0,-9.131161652E0,1.556139523E1
7.125861208E0,1.358395203E1,-7.013066254E0,-6.545139313E0,1.662966324E1
7.135930208E0,1.415022446E1,-7.855214996E0,-2.325863342E0,1.635062369E1
7.145998208E0,1.260124557E1,-1.015428406E1,1.781295776E0,1.628108993E1
7.156067208E0,1.059826080E1,-9.933343506E0,1.895508270E0,1.464880189E1
7.166135208E0,8.450227661E0,-7.068451080E0,-1.112935638E0,1.107284850E1
7.176204208E0,8.513396301E0,-5.011428680E0,-2.514770508E0,1.019393961E1
7.186272208E0,9.054970093E0,-4.028871918E0,-3.020269318E0,1.036080687E1
7.196341208E0,8.700806580E0,-4.493056641E0,-3.688330078E0,1.046400363E1
7.206409208E0,8.833430786E0,-4.550836487E0,-2.210303650E0,1.017963921E1
7.216477208E0,9.311536560E0,-4.371359711E0,-6.381230164E-1,1.030634270E1
7.226546208E0,9.443711700E0,-3.999682617E0,4.400848389E-2,1.025588068E1
7.236614208E0,9.236243134E0,-3.547622681E0,9.759704590E-1,9.942149277E0
7.246683208E0,1.031205597E1,-2.980601807E0,8.165519714E-1,1.076518660E1
7.256751208E0,1.192869415E1,-3.284769287E0,-1.476379852E0,1.246046351E1
7.266820208E0,1.319865326E1,-2.856809235E0,-2.449206848E0,1.372459184E1
7.276888208E0,1.269330414E1,-2.175276489E0,-2.520907745E0,1.312275785E1
7.286957208E0,1.094224548E1,-1.891766052E0,-2.019450531E0,1.128670437E1
7.297025208E0,1.003408401E1,-2.502795410E0,-1.353784790E0,1.042974401E1
7.307093208E0,8.825946350E0,-2.975063324E0,-7.271878052E-1,9.342223122E0
7.317162208E0,7.567962341E0,-2.930456085E0,-4.245172119E-1,8.126613177E0
7.327230208E0,6.807094574E0,-2.965632935E0,-5.622308350E-1,7.446315784E0
7.337299208E0,5.874084778E0,-3.516786804E0,-1.215921478E0,6.953497425E0
7.347367208E0,4.853357391E0,-3.708987122E0,-1.477128296E0,6.284391095E0
7.357436208E0,4.470303955E0,-3.685036926E0,-1.559457092E0,5.999585071E0
7.367504208E0,4.374054108E0,-3.706891479E0,-1.724713440E0,5.987322459E0
7.377573208E0,4.909041595E0,-3.774999847E0,-1.794618073E0,6.447477589E0
7.387641208E0,4.864584045E0,-3.622916107E0,-1.879341888E0,6.349931101E0
7.397709208E0,5.045557709E0,-3.158581696E0,-1.573976898E0,6.157247290E0
7.407778208E0,5.531596985E0,-2.600242767E0,-1.111738129E0,6.212550951E0
7.417846208E0,6.148314514E0,-2.169288940E0,-8.611592102E-1,6.576410956E0
7.427915208E0,6.926546173E0,-1.630409546E0,-4.956193542E-1,7.133085989E0
7.437983208E0,7.888894958E0,-1.226399689E0,-1.773811340E-1,7.985623578E0
7.448052208E0,8.375832367E0,-1.013392639E0,4.490661621E-3,8.436916063E0
7.458120208E0,8.104147339E0,-8.632548523E-1,-1.541793823E-2,8.150009248E0
7.468189208E0,7.481142883E0,-7.870632935E-1,-1.933978271E-1,7.524916623E0
7.478257208E0,7.042105865E0,-6.239025879E-1,-1.290316772E-1,7.070866894E0
7.488325208E0,6.896907806E0,-8.235873413E-1,2.435435486E-1,6.950176031E0
7.498394208E0,6.533912659E0,-1.103355560E0,9.654922485E-2,6.627120783E0
7.508462208E0,6.430178375E0,-1.320853271E0,-8.638536072E-1,6.621033934E0
7.518531208E0,6.822811890E0,-1.750908966E0,-1.305135956E0,7.163785602E0
7.528599208E0,7.430847473E0,-2.359243927E0,-7.029382324E-1,7.828004103E0
7.538668208E0,8.296796722E0,-3.204985199E0,-3.429368591E-1,8.900919709E0
7.548736208E0,9.338630219E0,-3.907773743E0,-8.292755127E-1,1.015718504E1
7.558805208E0,1.014949402E1,-4.180506592E0,-1.666933594E0,1.110259122E1
7.568873208E0,1.035172348E1,-4.145180054E0,-1.939367065E0,1.131820840E1
7.578940083E0,1.023496628E1,-3.910468140E0,-1.465153198E0,1.105409289E1
7.589009083E0,9.971214752E0,-3.797902222E0,-7.484436035E-1,1.069623077E1
7.599077083E0,1.043764481E1,-3.386407928E0,-6.860234070E-1,1.099467216E1
7.609146083E0,1.147214355E1,-2.336491241E0,-1.774260406E0,1.184133730E1
7.619214083E0,1.192375443E1,-1.393152924E0,-1.719174957E0,1.212733925E1
7.629283083E0,1.174891800E1,-9.607022095E-1,-9.066645813E-1,1.182294648E1
7.639351083E0,1.223914856E1,-7.448510742E-1,-9.969268799E-1,1.230225279E1
7.649420083E0,1.344189743E1,-8.714877319E-1,-1.019978943E0,1.350868071E1
7.659488083E0,1.432685715E1,-1.564696198E0,-5.780978394E-1,1.442363709E1
7.669556083E0,1.506482254E1,-2.483335876E0,2.315684509E-1,1.526988733E1
7.679625083E0,1.545521072E1,-3.775748291E0,1.417701874E0,1.597277973E1
7.689693083E0,1.471649689E1,-4.881199493E0,2.601589966E0,1.572163031E1
7.699762083E0,1.362496674E1,-5.289849701E0,2.252665558E0,1.478839851E1
7.709830083E0,1.332753525E1,-3.604354706E0,2.347418518E0,1.400446152E1
7.719899083E0,1.243733643E1,-2.907553711E0,3.876039734E0,1.334784215E1
7.729967083E0,9.930499420E0,-5.078339539E0,4.399501190E0,1.198999424E1
7.740036083E0,6.674021301E0,-5.515430603E0,6.180347900E0,1.063763297E1
7.750104083E0,5.766757965E0,-5.146747284E0,3.442690887E0,8.461478924E0
7.760173083E0,9.679621124E0,-7.286397858E0,1.323847046E0,1.218766712E1
7.770241083E0,1.290735901E1,-8.378227386E0,3.483256531E0,1.577744234E1
7.780309083E0,1.488070541E1,-8.763376465E0,1.858535156E0,1.736911954E1
7.790378083E0,1.565115326E1,-8.522377625E0,-6.316864014E-1,1.783223336E1
7.800446083E0,1.557780579E1,-8.605155487E0,-1.834435272E0,1.789083248E1
7.810515083E0,1.506706787E1,-8.779243469E0,-1.827699280E0,1.753374275E1
7.820583083E0,1.359847183E1,-8.685538330E0,-1.263223114E0,1.618495428E1
7.830652083E0,1.157078842E1,-7.850874023E0,-9.159452820E-1,1.401279142E1
7.840720083E0,1.074286011E1,-6.855893097E0,-8.520281982E-1,1.277255908E1
7.850788083E0,1.045725403E1,-5.852679291E0,-9.032217407E-1,1.201764645E1
7.860857083E0,1.042192749E1,-4.551584930E0,-9.621990967E-1,1.141312074E1
7.870925083E0,1.008961853E1,-3.376678162E0,-7.412585449E-1,1.066544991E1
7.880994083E0,9.540560303E0,-2.657573547E0,-4.589456177E-1,9.914414714E0
7.891062083E0,9.117390289E0,-2.326911163E0,-1.832189941E-1,9.411423402E0
7.901131083E0,8.499924316E0,-1.995949402E0,-2.429447937E-1,8.734503396E0
7.911199083E0,7.626340942E0,-1.685644684E0,-4.599934387E-1,7.823941982E0
7.921268083E0,6.481371918E0,-1.375789032E0,-5.878276062E-1,6.651805671E0
7.931336083E0,5.168601837E0,-1.161584473E0,-6.590794373E-1,5.338362028E0
7.941405083E0,3.858975220E0,-1.411115570E0,-1.406624908E0,4.342986361E0
7.951473083E0,3.070714417E0,-1.473984833E0,-1.780247955E0,3.843332031E0
7.961541083E0,2.605332184E0,-1.415456543E0,-1.533111877E0,3.337919268E0
7.971610083E0,2.436483307E0,-1.518292694E0,-1.029559021E0,3.049861536E0
7.981678083E0,2.525847473E0,-1.829794922E0,-6.474037170E-1,3.185464878E0
7.991747083E0,2.570005646E0,-1.983525238E0,-3.029699707E-1,3.260535568E0
8.001815083E0,2.394869843E0,-2.162702637E0,-1.667532349E-1,3.231174848E0
8.011884083E0,2.101629639E0,-2.354154510E0,-4.116439819E-1,3.182505517E0
8.021952083E0,1.930984497E0,-2.525248718E0,-9.096583557E-1,3.306517888E0
8.032021083E0,1.954785004E0,-2.660567322E0,-1.313817902E0,3.553297112E0
8.042089083E0,2.368524628E0,-2.803669739E0,-1.751358032E0,4.066660531E0
8.052157083E0,3.119213562E0,-2.746638336E0,-2.157613220E0,4.682820753E0
8.062226083E0,3.830983429E0,-2.664908295E0,-2.607876892E0,5.345951004E0
8.072294083E0,4.594695282E0,-2.604134674E0,-3.314557343E0,6.235305326E0
8.082363083E0,5.235662384E0,-2.697241058E0,-4.424499207E0,7.366373813E0
8.092431083E0,5.790558472E0,-2.811902618E0,-5.523364105E0,8.482034826E0
8.102500083E0,6.542594604E0,-2.940784607E0,-6.298003235E0,9.545606477E0
8.112568083E0,8.006400604E0,-2.920127563E0,-6.560407562E0,1.075493110E1
8.122636083E0,9.991422729E0,-2.593207397E0,-5.932313690E0,1.190569605E1
8.132705083E0,1.168889282E1,-2.705324249E0,-5.431305542E0,1.316996866E1
8.142773083E0,1.308474014E1,-3.616778870E0,-4.755610657E0,1.438427429E1
8.152842083E0,1.398676437E1,-4.457580414E0,-5.919440460E0,1.582843568E1
8.162910083E0,1.389201141E1,-4.395908661E0,-8.436306610E0,1.683696122E1
8.172979083E0,1.283805313E1,-3.840264130E0,-1.000235001E1,1.672155024E1
8.183047083E0,1.128652954E1,-3.698508911E0,-9.541308746E0,1.523487085E1
8.193116083E0,9.418563995E0,-3.943699036E0,-7.777825928E0,1.283575810E1
8.203184083E0,7.716603241E0,-4.376299438E0,-6.311924286E0,1.088753188E1
8.213253083E0,6.399342499E0,-4.694837036E0,-6.468498688E0,1.023887467E1
8.223321083E0,5.353317719E0,-4.767735443E0,-8.243956604E0,1.092484015E1
8.233389083E0,5.786367188E0,-4.888234863E0,-9.817484436E0,1.239999540E1
8.243458083E0,8.160579987E0,-5.842500458E0,-9.955647125E0,1.413664695E1
8.253526083E0,1.085288132E1,-7.255112915E0,-9.545799408E0,1.617232150E1
8.263595083E0,1.312934738E1,-7.295229492E0,-7.333100739E0,1.671449977E1
8.273663083E0,1.410801224E1,-6.951244812E0,-3.992647247E0,1.622643047E1
8.283732083E0,1.209035797E1,-9.063801727E0,8.584648132E-1,1.513493374E1
8.293800083E0,9.416019287E0,-8.960815887E0,2.796933746E0,1.329588203E1
8.303869083E0,7.349416809E0,-7.291786652E0,1.032552795E0,1.040433781E1
8.313937083E0,7.746840363E0,-5.954317932E0,-2.183509369E0,1.001175064E1
8.324005083E0,8.694669342E0,-5.035079498E0,-4.106859741E0,1.085428936E1
8.334074083E0,9.216633911E0,-4.818030853E0,-4.782554626E0,1.144694679E1
8.344142083E0,9.372010803E0,-4.961133270E0,-3.092119904E0,1.104575191E1
8.354211083E0,9.642198944E0,-4.964576111E0,-5.990542603E-1,1.086176240E1
8.364279083E0,9.999505920E0,-5.032235413E0,7.066804504E-1,1.121663538E1
8.374348083E0,1.036504578E1,-4.373006287E0,7.535330200E-1,1.127497982E1
8.384416083E0,1.061891785E1,-4.144132233E0,2.300715637E-1,1.140123595E1
8.394484083E0,1.171239395E1,-3.826792145E0,-1.150956573E0,1.237534691E1
8.404553083E0,1.321017929E1,-3.046614532E0,-2.270628204E0,1.374577933E1
8.414621083E0,1.332334396E1,-2.424807587E0,-2.302960968E0,1.373662314E1
8.424690083E0,1.215816696E1,-2.087109833E0,-1.774709473E0,1.246301107E1
8.434758083E0,1.073357941E1,-2.351759491E0,-1.040336609E0,1.103733663E1
8.444827083E0,9.385782166E0,-2.630479889E0,-3.906875610E-1,9.755253358E0
8.454895083E0,8.206235046E0,-2.768792267E0,-2.769241333E-1,8.665171160E0
8.464964083E0,7.052733765E0,-3.091371460E0,-7.165599060E-1,7.733762936E0
8.475032083E0,5.991141357E0,-3.678750000E0,-1.525477753E0,7.194029379E0
8.485100083E0,5.254523163E0,-4.069287872E0,-1.894759827E0,6.910805471E0
8.495169083E0,4.583917694E0,-4.073928223E0,-1.929188232E0,6.428915914E0
8.505237083E0,4.113895111E0,-3.912863159E0,-1.823657684E0,5.963250660E0
8.515306083E0,4.066144409E0,-3.783981171E0,-1.595831451E0,5.779162732E0
8.525374083E0,4.362977142E0,-3.268602905E0,-1.223256226E0,5.587100347E0
8.535443083E0,5.120252380E0,-2.441722412E0,-1.005010071E0,5.760992798E0
8.545511083E0,5.735173645E0,-1.829944611E0,-7.491920471E-1,6.066481908E0
8.555580083E0,5.670208740E0,-1.735191650E0,-5.240602112E-1,5.952881347E0
8.565648083E0,5.683231659E0,-1.833836517E0,-4.336482239E-1,5.987497745E0
8.575717083E0,6.184539185E0,-1.880389709E0,-3.858975220E-1,6.475593199E0
8.585786125E0,6.820865936E0,-1.759590912E0,-3.206332397E-1,7.051466370E0
8.595854125E0,7.287595367E0,-1.777553558E0,-1.353186035E-1,7.502469861E0
8.605923125E0,7.410938873E0,-1.843117218E0,2.935395813E-1,7.642333515E0
8.615991125E0,7.224875793E0,-1.758094025E0,2.929408264E-1,7.441474260E0
8.626060125E0,7.016509094E0,-1.734592896E0,-2.059716797E-1,7.230673324E0
8.636128125E0,6.673272858E0,-1.692230988E0,-1.174158325E0,6.983900352E0
8.646197125E0,6.737938385E0,-1.810185699E0,-1.898801422E0,7.230631562E0
8.656265125E0,7.121141510E0,-2.080074463E0,-1.328188019E0,7.536673642E0
8.666334125E0,7.477250977E0,-2.085912323E0,-1.836680603E-1,7.764924104E0
8.676402125E0,8.083789673E0,-2.193089447E0,2.742297363E-1,8.380483205E0
8.686470125E0,8.946146393E0,-2.619851990E0,-3.138972473E-1,9.327148075E0
8.696539125E0,9.508526917E0,-2.891836395E0,-6.312373352E-1,9.958577330E0
8.706607125E0,9.861792297E0,-3.315006409E0,-5.008584595E-1,1.041609687E1
8.716676125E0,1.019978943E1,-3.578907623E0,-3.004252625E-1,1.081362749E1
8.726744125E0,1.033196457E1,-3.664529572E0,-6.029461670E-1,1.097915356E1
8.736813125E0,1.034798126E1,-3.766766968E0,-1.166374512E0,1.107382857E1
8.746881125E0,1.063598236E1,-3.756737823E0,-1.138382721E0,1.133724460E1
8.756950125E0,1.101903580E1,-3.245401154E0,-1.093925171E0,1.153899696E1
8.767018125E0,1.141331589E1,-2.398312683E0,-1.677561493E0,1.178260989E1
8.777086125E0,1.150148254E1,-1.908830566E0,-1.783541107E0,1.179443741E1
8.787155125E0,1.167961212E1,-2.203118591E0,-1.801054688E0,1.202126736E1
8.797223125E0,1.212718140E1,-2.660866699E0,-2.147883453E0,1.260008506E1
8.807292125E0,1.250843857E1,-3.215613098E0,-2.207309875E0,1.310242038E1
8.817360125E0,1.291184967E1,-3.382965088E0,-1.261875916E0,1.340718634E1
8.827429125E0,1.375744125E1,-3.322939911E0,9.315129089E-1,1.418368203E1
8.837497125E0,1.440559341E1,-4.155658264E0,1.812281342E0,1.510215153E1
8.847566125E0,1.379845596E1,-5.098098450E0,1.643133087E0,1.480161752E1
8.857634125E0,1.311392944E1,-4.377047882E0,2.177521820E0,1.399554554E1
8.867702125E0,1.340627151E1,-3.347488861E0,3.247347107E0,1.419433200E1
8.877771125E0,1.381297577E1,-3.736230469E0,5.311255188E0,1.526326143E1
8.887839125E0,1.147633484E1,-3.610192566E0,4.524940338E0,1.285359237E1
8.897908125E0,8.824299774E0,-4.069587250E0,4.445455627E0,1.068606020E1
8.907976125E0,8.325237579E0,-5.152136078E0,4.039050751E0,1.059094037E1
8.918045125E0,8.549022217E0,-6.205345917E0,2.420316925E0,1.083743664E1
8.928113125E0,8.920549622E0,-6.687642975E0,2.118095398E0,1.134844052E1
8.938182125E0,9.879605255E0,-6.603517914E0,2.692301331E0,1.218447928E1
8.948250125E0,1.103265747E1,-6.524931335E0,1.605411530E0,1.291787931E1
8.958318125E0,1.376627289E1,-8.165220337E0,-2.906954956E-1,1.600829773E1
8.968387125E0,1.581146988E1,-9.291178894E0,-3.873944092E-1,1.834335464E1
8.978455125E0,1.597118774E1,-1.043944107E1,-5.388793945E-3,1.908037727E1
8.988524125E0,1.409034897E1,-1.072235275E1,-6.718029785E-1,1.771886288E1
8.998592125E0,1.167572021E1,-1.007719437E1,-9.071136475E-1,1.544976194E1
9.008661125E0,9.868079224E0,-8.766220551E0,-1.090632019E0,1.324443613E1
9.018729125E0,9.076076202E0,-7.309898987E0,-1.179397430E0,1.171327284E1
9.028797125E0,8.854237518E0,-6.415209503E0,-1.169517975E0,1.099637246E1
9.038866125E0,8.447682953E0,-5.272635498E0,-9.207353210E-1,1.000058928E1
9.048934125E0,8.011340332E0,-4.045936432E0,-6.285429382E-1,8.997012935E0
9.059003125E0,7.570507050E0,-2.950214996E0,-3.896397400E-1,8.134381638E0
9.069071125E0,7.144043884E0,-2.161205750E0,-3.725752258E-1,7.473084076E0
9.079140125E0,6.834337921E0,-1.410067749E0,-3.336561584E-1,6.986257389E0
9.089208125E0,6.465504913E0,-1.247954865E0,-3.543132019E-1,6.594367519E0
9.099277125E0,5.740263062E0,-1.223705292E0,-4.974156189E-1,5.890288359E0
9.109345125E0,4.847369843E0,-1.400787048E0,-6.617738342E-1,5.088923595E0
9.119413125E0,3.625460815E0,-1.512155457E0,-6.369255066E-1,3.979479156E0
9.129482125E0,2.987936554E0,-1.525477753E0,-7.494914246E-1,3.437525945E0
9.139550125E0,2.532433777E0,-1.562301178E0,-6.921606445E-1,3.055010992E0
9.149619125E0,2.264640656E0,-1.619482269E0,-5.671705627E-1,2.841302970E0
9.159687125E0,2.219434662E0,-1.751058655E0,-5.560935974E-1,2.881204040E0
9.169756125E0,2.284698944E0,-2.019600220E0,-5.903723145E-1,3.105989984E0
9.179824125E0,2.243235168E0,-2.101929016E0,-8.512797546E-1,3.189809842E0
9.189893125E0,2.223027191E0,-2.351160736E0,-1.054557037E0,3.403218660E0
9.199961125E0,2.283651123E0,-2.509232025E0,-1.153650970E0,3.583604103E0
9.210030125E0,2.696193237E0,-2.672243042E0,-1.464255066E0,4.068707872E0
9.220098125E0,3.124302979E0,-2.767445068E0,-1.595681763E0,4.468357819E0
9.230166125E0,3.475173340E0,-2.806813202E0,-1.856738892E0,4.837614020E0
9.240235125E0,3.953279114E0,-2.764301605E0,-2.785557404E0,5.570377830E0
9.250303125E0,4.730612640E0,-2.553839264E0,-4.236340485E0,6.844513981E0
9.260372125E0,6.523733826E0,-2.619851990E0,-5.925727386E0,9.194398976E0
9.270440125E0,8.134234772E0,-2.786305847E0,-6.930587769E0,1.104365530E1
9.280509125E0,9.769134979E0,-2.666405182E0,-7.170538788E0,1.240815624E1
9.290577125E0,1.136796021E1,-2.764002228E0,-6.908134460E0,1.358648407E1
9.300645125E0,1.313428711E1,-2.943029938E0,-5.828579407E0,1.466776264E1
9.310714125E0,1.437101532E1,-3.707041168E0,-4.359683990E0,1.546851900E1
9.320782125E0,1.461276260E1,-5.163213043E0,-4.911885681E0,1.625786643E1
9.330851125E0,1.363843872E1,-5.567222900E0,-6.687343597E0,1.617781030E1
9.340919125E0,1.111872849E1,-5.676196289E0,-6.989415436E0,1.430724486E1
9.350988125E0,8.652756500E0,-5.906716919E0,-6.522835693E0,1.234126757E1
9.361056125E0,7.289241943E0,-5.391638031E0,-6.094725952E0,1.092467360E1
9.371125125E0,6.796766052E0,-4.711602173E0,-6.785389709E0,1.069751080E1
9.381193125E0,6.873706055E0,-4.247118073E0,-8.623567200E0,1.181743450E1
9.391261125E0,8.043673096E0,-4.266278229E0,-9.929601288E0,1.347214862E1
9.401330125E0,9.921967163E0,-4.962031403E0,-9.617649994E0,1.468217897E1
9.411398125E0,1.231563950E1,-6.997049561E0,-9.185348969E0,1.688207080E1
9.421467125E0,1.500719238E1,-8.104596405E0,-7.174281006E0,1.850325955E1
9.431535125E0,1.663176407E1,-8.769813080E0,-2.601889343E0,1.898143898E1
9.441604125E0,1.406280624E1,-1.053928345E1,2.909499664E0,1.781303465E1
9.451672125E0,9.913734283E0,-8.081993408E0,1.371148682E0,1.286393383E1
9.461741125E0,6.084247742E0,-5.016368408E0,-1.332379303E0,7.997328129E0
9.471809125E0,4.428091736E0,-4.843627625E0,-1.624421997E0,6.760730124E0
9.481878125E0,5.792354736E0,-6.077212372E0,-2.125579834E0,8.660367962E0
9.491946125E0,7.766299896E0,-6.299051056E0,-2.607278137E0,1.033399040E1
9.502014125E0,9.583221588E0,-5.577701111E0,-5.535488892E-1,1.110204045E1
9.512083125E0,1.078432388E1,-4.365970917E0,1.692979431E0,1.175710521E1
9.522151125E0,1.180265625E1,-4.031716003E0,1.549427948E0,1.256814049E1
9.532220125E0,1.176957504E1,-4.492607574E0,6.518943787E-1,1.261472892E1
9.542288125E0,1.216175949E1,-4.423002319E0,-6.480024719E-1,1.295728562E1
9.552357125E0,1.295855255E1,-3.939657440E0,-1.640887756E0,1.364322167E1
9.562425125E0,1.278596146E1,-3.248245239E0,-1.865271149E0,1.332333081E1
9.572493125E0,1.125180176E1,-2.796334991E0,-1.537153473E0,1.169552791E1
9.582561833E0,9.514813843E0,-3.076701965E0,-8.053253174E-1,1.003226427E1
9.592629833E0,8.161927185E0,-3.655548248E0,-1.079255676E-1,8.943809943E0
9.602698833E0,6.960375824E0,-3.899391174E0,2.192939758E-1,7.981238813E0
9.612766833E0,6.204148407E0,-4.186793518E0,-3.294648743E-1,7.491945310E0
9.622835833E0,5.890849915E0,-4.235142975E0,-1.205892334E0,7.354775663E0
9.632903833E0,5.791157227E0,-4.040397949E0,-1.729503479E0,7.270041258E0
9.642972833E0,5.519771576E0,-3.887266388E0,-1.989063721E0,7.038117128E0
9.653040833E0,4.925207977E0,-3.850143585E0,-1.880389709E0,6.528180811E0
9.663108833E0,5.001100159E0,-3.646117859E0,-1.577120361E0,6.386899629E0
9.673177833E0,5.082830200E0,-3.401526489E0,-1.371597748E0,6.267920363E0
9.683245833E0,4.822371826E0,-3.201542358E0,-1.242715759E0,5.920260633E0
9.693314833E0,4.861739960E0,-2.816542969E0,-9.141490173E-1,5.692547598E0
9.703382833E0,5.194497986E0,-2.508034515E0,-4.752616882E-1,5.787825164E0
9.713451833E0,5.867648163E0,-1.995051270E0,-1.552272034E-1,6.199485464E0
9.723519833E0,6.446644135E0,-1.747615814E0,7.185058594E-2,6.679711381E0
9.733588833E0,6.594835968E0,-1.600920868E0,6.122268677E-2,6.786645511E0
9.743656833E0,6.619983673E0,-1.717678070E0,1.966909790E-1,6.842023760E0
9.753724833E0,6.546336823E0,-1.954934692E0,3.457809448E-1,6.840749952E0
9.763793833E0,6.494544525E0,-2.171534271E0,2.430944824E-1,6.852281708E0
9.773861833E0,6.294410706E0,-2.216291199E0,-4.390370178E-1,6.687623368E0
9.783930833E0,6.377188568E0,-1.885628815E0,-1.904788971E0,6.917539381E0
9.793998833E0,6.619085541E0,-2.043550415E0,-2.390229492E0,7.328136784E0
9.804067833E0,6.941664734E0,-2.413431244E0,-1.080004120E0,7.428173971E0
9.814135833E0,7.884553986E0,-2.735860748E0,2.640509033E-1,8.349901105E0
9.824204833E0,9.096882935E0,-2.844534760E0,3.083587646E-2,9.531296238E0
9.834272833E0,1.022164398E1,-2.821632385E0,-6.771917725E-1,1.062554487E1
9.844340833E0,1.098445770E1,-3.170407104E0,-8.461903381E-1,1.146411053E1
9.854409833E0,1.095901062E1,-3.311264191E0,-8.400531006E-1,1.147911467E1
9.864477833E0,1.040890457E1,-3.320844269E0,-1.036145325E0,1.097483021E1
9.874546833E0,1.002914429E1,-3.299289093E0,-1.231489105E0,1.062946890E1
9.884614833E0,1.024275009E1,-3.351380768E0,-9.827064514E-1,1.082180181E1
9.894683833E0,1.074884766E1,-2.977907410E0,-1.441951447E0,1.124654980E1
9.904751833E0,1.102891525E1,-2.476749573E0,-1.835483093E0,1.145164871E1
9.914820833E0,1.115615067E1,-2.480192413E0,-1.097517700E0,1.148109739E1
9.924888833E0,1.128458359E1,-2.859503632E0,-9.656419373E-1,1.168122648E1
9.934956833E0,1.164832718E1,-2.992876282E0,-1.803898773E0,1.216120411E1
9.945025833E0,1.213810867E1,-3.282823334E0,-2.125430145E0,1.275257090E1
9.955093833E0,1.257355316E1,-3.750151520E0,-9.880952454E-1,1.315804726E1
9.965162833E0,1.301393738E1,-4.541256409E0,1.019829254E0,1.382120210E1
9.975230833E0,1.360820160E1,-5.544769592E0,2.304158478E0,1.487402995E1
9.985299833E0,1.429946411E1,-6.505172424E0,2.068099365E0,1.584515627E1
9.995367833E0,1.404140076E1,-5.290747833E0,1.898052979E0,1.512466704E1
1.000543683E1,1.315284851E1,-4.652475128E0,3.628155212E0,1.441549371E1
1.001550483E1,1.102457428E1,-4.859943695E0,4.927004242E0,1.301674543E1
1.002557283E1,8.945996704E0,-5.033732300E0,5.079237671E0,1.145285874E1
1.003564183E1,8.917106781E0,-5.328319702E0,3.973038025E0,1.112163726E1
1.004570983E1,9.742939453E0,-5.907016296E0,2.982847137E0,1.177773695E1
1.005577883E1,1.118848343E1,-6.827751617E0,3.930825806E0,1.368399595E1
1.006584683E1,1.304462357E1,-8.300239563E0,4.096082153E0,1.599481384E1
1.007591583E1,1.430889450E1,-9.568701782E0,1.809287567E0,1.730832277E1
1.008598383E1,1.546718582E1,-1.021146515E1,-8.925938416E-1,1.855544614E1
1.009605283E1,1.645602951E1,-1.059841049E1,-1.571132813E0,1.963659009E1
1.010612083E1,1.547227524E1,-1.048659302E1,-1.127904510E0,1.872517297E1
1.011618883E1,1.266306702E1,-9.223669281E0,-8.616082764E-1,1.568986010E1
1.012625783E1,1.043510010E1,-7.743098145E0,-1.053658905E0,1.303675880E1
1.013632583E1,9.745035095E0,-7.016359406E0,-1.375339966E0,1.208662767E1
1.014639483E1,9.345964966E0,-6.262676697E0,-1.352736969E0,1.133128756E1
1.015646283E1,9.229207764E0,-5.396128693E0,-9.258247375E-1,1.073096604E1
1.016653183E1,8.992100830E0,-4.491859131E0,-4.978646851E-1,1.006392294E1
1.017659983E1,8.560548248E0,-3.877386932E0,-4.667294312E-1,9.409301361E0
1.018666883E1,7.944878540E0,-3.324586487E0,-2.375559998E-1,8.615706772E0
1.019673683E1,7.429350586E0,-2.740351410E0,-1.098715210E-1,7.919396930E0
1.020680483E1,6.628066864E0,-2.058219910E0,-5.987548828E-3,6.940286406E0
1.021687383E1,5.433700562E0,-1.624272308E0,1.541793823E-2,5.671296151E0
1.022694183E1,4.292324066E0,-1.375339966E0,-2.582130432E-1,4.514673841E0
1.023701083E1,2.951262817E0,-1.289568329E0,-1.227447510E-2,3.220728078E0
1.024707883E1,2.051932983E0,-1.091679840E0,2.255809021E-1,2.335183202E0
1.025714783E1,1.542991333E0,-1.251846771E0,3.754193115E-1,2.022098477E0
1.026721583E1,1.667682037E0,-1.391955414E0,4.652325439E-1,2.221518528E0
1.027728483E1,1.886526947E0,-1.452130280E0,3.061134338E-1,2.400285755E0
1.028735283E1,2.134112091E0,-1.601220245E0,-1.288819885E-1,2.671132954E0
1.029742083E1,2.103425903E0,-1.716929626E0,-8.259823608E-1,2.838044174E0
1.030748983E1,2.241289215E0,-1.931134186E0,-1.308429108E0,3.234910094E0
1.031755783E1,2.488275604E0,-2.176324310E0,-1.315165100E0,3.557746791E0
1.032762683E1,2.795885925E0,-2.366428986E0,-1.103355560E0,3.825487909E0
1.033769483E1,2.990630951E0,-2.589914246E0,-1.348096619E0,4.179580574E0
1.034776383E1,3.139720917E0,-2.843636627E0,-2.219584351E0,4.782329076E0
1.035783183E1,3.503614197E0,-2.814297638E0,-3.298390961E0,5.574492494E0
1.036790083E1,4.264781342E0,-2.593656464E0,-4.545298004E0,6.750936801E0
1.037796883E1,5.805826721E0,-2.324965210E0,-5.745651855E0,8.492679341E0
1.038803683E1,7.093299408E0,-2.274669800E0,-6.015390930E0,9.574651285E0
1.039810583E1,8.538843384E0,-2.254461823E0,-5.598956909E0,1.045670899E1
1.040817383E1,1.082503922E1,-2.363435211E0,-4.978197784E0,1.214700594E1
1.041824283E1,1.319371353E1,-2.670746155E0,-4.425696716E0,1.417017125E1
1.042831083E1,1.456591003E1,-3.553909607E0,-3.385509796E0,1.537067615E1
1.043837983E1,1.517259842E1,-5.060526581E0,-4.393363953E0,1.658669102E1
1.044844783E1,1.545236664E1,-5.512736206E0,-7.432344360E0,1.801126419E1
1.045851683E1,1.442460388E1,-4.886887665E0,-9.789492645E0,1.810483456E1
1.046858483E1,1.165177002E1,-4.899760895E0,-9.801018677E0,1.599472940E1
1.047865283E1,8.621920624E0,-5.241649933E0,-7.741301880E0,1.271771065E1
1.048872183E1,6.986421661E0,-5.371130676E0,-5.719156952E0,1.050561224E1
1.049878983E1,5.918392639E0,-5.490133209E0,-6.209387512E0,1.018456810E1
1.050885883E1,6.195167084E0,-5.742658081E0,-7.934550018E0,1.158944783E1
1.051892683E1,7.844287720E0,-6.012097778E0,-8.988208923E0,1.335911933E1
1.052899583E1,1.057940002E1,-7.393425293E0,-9.348509674E0,1.593678373E1
1.053906383E1,1.357362350E1,-8.992549896E0,-8.085585938E0,1.817927140E1
1.054913283E1,1.660931076E1,-8.925189972E0,-4.273014221E0,1.933356849E1
1.055920083E1,1.586939941E1,-1.004246658E1,2.360142059E0,1.892773741E1
1.056926883E1,1.248972748E1,-8.073610840E0,1.993105316E0,1.500496429E1
1.057933783E1,7.939040680E0,-4.039200439E0,-1.584305420E0,9.047294113E0
1.058940583E1,4.717589722E0,-3.360062714E0,-1.517095184E0,5.987257471E0
1.059947483E1,4.870721283E0,-4.659360809E0,-1.487756195E0,6.902679731E0
1.060954283E1,6.770720215E0,-6.055058441E0,-2.018702087E0,9.304920369E0
1.061961183E1,8.737779694E0,-5.557642822E0,-6.722520447E-1,1.037728821E1
1.062967983E1,9.946067047E0,-4.825515289E0,1.805245972E0,1.120128388E1
1.063974883E1,1.138577316E1,-4.590953064E0,1.519340515E0,1.237016880E1
1.064981683E1,1.203033279E1,-4.475692749E0,1.740879822E-1,1.283709622E1
1.065988483E1,1.277473480E1,-4.400698700E0,-1.378932495E0,1.358165870E1
1.066995383E1,1.379246841E1,-4.070934448E0,-2.323468323E0,1.456719593E1
1.068002183E1,1.375968658E1,-3.481609955E0,-2.215842133E0,1.436525458E1
1.069009083E1,1.257969040E1,-2.852617950E0,-1.927691345E0,1.304231703E1
1.070015883E1,1.058074722E1,-2.728226624E0,-1.413959656E0,1.101792695E1
1.071022783E1,8.837322693E0,-3.169808350E0,-7.569758606E-1,9.419074785E0
1.072029583E1,7.537575531E0,-3.501518555E0,1.886077881E-2,8.311199240E0
1.073036483E1,6.257587280E0,-3.692671051E0,-3.384461975E-1,7.273772329E0
1.074043283E1,5.624403992E0,-3.718118134E0,-1.290017395E0,6.864580657E0
1.075050083E1,5.157674561E0,-3.838018799E0,-1.720821533E0,6.655315313E0
1.076056983E1,4.927004242E0,-3.746409302E0,-1.596130829E0,6.392072205E0
1.077063783E1,4.900509338E0,-3.559597778E0,-1.089135132E0,6.154018480E0
1.078070683E1,4.882846069E0,-3.329675903E0,-6.259982300E-1,5.943130584E0
1.079077483E1,4.921914825E0,-3.201841736E0,-3.224295044E-1,5.880560929E0
1.080084383E1,5.195545807E0,-3.013832703E0,-2.764750671E-1,6.012763279E0
1.081091183E1,5.437293091E0,-2.844085693E0,-5.149291992E-1,6.157770024E0
1.082098083E1,5.483846283E0,-2.721191254E0,-6.756948853E-1,6.159059626E0
1.083104883E1,5.621859283E0,-2.562820587E0,-6.691085815E-1,6.214584255E0
1.084111683E1,5.941594391E0,-2.321971436E0,-4.929249573E-1,6.398208364E0
1.085118583E1,6.036646729E0,-2.214944000E0,-1.722917175E-1,6.432477368E0
1.086125383E1,5.904770966E0,-2.131567383E0,-4.535568237E-2,6.277894297E0
1.087132283E1,5.827082520E0,-2.012265472E0,1.701960754E-1,6.167095729E0
1.088139083E1,5.984105988E0,-1.879042511E0,6.420149231E-1,6.304959032E0
1.089145983E1,6.206842804E0,-2.244133301E0,8.930429077E-1,6.660222031E0
1.090152783E1,6.159541168E0,-2.295476532E0,-4.474195862E-1,6.588576796E0
1.091159683E1,6.011349335E0,-1.959874420E0,-2.692451019E0,6.872170040E0
1.092166483E1,6.654561768E0,-2.164199524E0,-2.606978760E0,7.467482183E0
1.093173283E1,7.591313782E0,-2.917133789E0,-5.304968262E-1,8.149793946E0
1.094180183E1,8.584199066E0,-3.405418396E0,6.863227844E-1,9.260474449E0
1.095186983E1,9.990674286E0,-3.646716614E0,4.251159668E-2,1.063550290E1
1.096193883E1,1.103310654E1,-3.979774017E0,-1.278940430E0,1.179846302E1
1.097200683E1,1.115824631E1,-4.436474304E0,-1.623374176E0,1.211709984E1
1.098207583E1,1.045126648E1,-4.471202087E0,-1.006956024E0,1.141203661E1
1.099214383E1,9.666598206E0,-3.981869659E0,-7.664062500E-1,1.048264210E1
1.100221283E1,9.552984467E0,-3.440744934E0,-1.173260193E0,1.022129040E1
1.101228083E1,1.052865555E1,-3.198099518E0,-1.786385193E0,1.114771727E1
1.102234883E1,1.110510681E1,-2.662962341E0,-2.138752441E0,1.161847786E1
1.103241783E1,1.134760254E1,-2.306403809E0,-1.671424255E0,1.169962568E1
1.104248583E1,1.201895645E1,-2.390528870E0,-1.369801483E0,1.233070552E1
1.105255483E1,1.309776306E1,-2.417323151E0,-1.537153473E0,1.340737443E1
1.106262283E1,1.379381561E1,-2.873724060E0,-8.970845032E-1,1.411851266E1
1.107269183E1,1.390712997E1,-3.861669617E0,1.468446350E-1,1.443406802E1
1.108275983E1,1.410965881E1,-4.994813232E0,1.026116180E0,1.500278459E1
1.109282883E1,1.374142456E1,-5.707481232E0,1.995949402E0,1.501285799E1
1.110289683E1,1.329041245E1,-5.752537537E0,3.049907684E0,1.479961783E1
1.111296483E1,1.306034088E1,-5.973029022E0,3.314108276E0,1.473882266E1
1.112303383E1,1.278132111E1,-4.972659302E0,3.514840851E0,1.415781113E1
1.113310183E1,1.194336365E1,-4.691843262E0,4.611310730E0,1.363530400E1
1.114317083E1,9.315578156E0,-5.619464264E0,4.824317780E0,1.190094185E1
1.115323883E1,7.879314880E0,-6.138285370E0,3.750600586E0,1.066907470E1
1.116330783E1,8.643326111E0,-6.751410370E0,3.365152130E0,1.147226556E1
1.117337583E1,1.024215134E1,-8.085585938E0,4.396507416E0,1.376980906E1
1.118344483E1,1.219768478E1,-9.459129639E0,3.596870270E0,1.584916791E1
1.119351283E1,1.362122452E1,-1.027448410E1,8.849597168E-1,1.708466958E1
1.120358083E1,1.454255859E1,-1.075423645E1,-1.430425415E0,1.814347621E1
1.121364983E1,1.512948807E1,-1.106079895E1,-2.008972321E0,1.884883690E1
1.122371783E1,1.462788116E1,-1.064271835E1,-1.212628326E0,1.813043929E1
1.123378683E1,1.264645157E1,-9.399254150E0,-7.604187012E-1,1.577520055E1
1.124385483E1,1.101963455E1,-8.152347107E0,-6.219566345E-1,1.372151373E1
1.125392383E1,1.037013519E1,-7.637268219E0,-6.376739502E-1,1.289473528E1
1.126399183E1,9.889484711E0,-6.670129395E0,-4.264631653E-1,1.193626427E1
1.127406083E1,9.245673523E0,-5.674998779E0,-2.158511353E-1,1.085056136E1
1.128412883E1,8.689130859E0,-4.892725525E0,-1.197509766E-1,9.972667569E0
1.129419683E1,8.174051971E0,-4.356989594E0,-2.999761963E-1,9.267603232E0
1.130426583E1,7.534731445E0,-3.786974945E0,-3.911366272E-1,8.441939650E0
1.131433383E1,7.029981079E0,-3.053350525E0,-4.378395081E-1,7.676932124E0
1.132440283E1,6.166875916E0,-2.220183105E0,-3.656895447E-1,6.564548760E0
1.133447083E1,4.757855988E0,-1.438508606E0,-1.793270874E-1,4.973797223E0
1.134453983E1,3.341501312E0,-9.008267212E-1,-2.746788025E-1,3.471680896E0
1.135460783E1,2.601589966E0,-7.226971436E-1,-4.998106384E-1,2.745973814E0
1.136467683E1,2.503843231E0,-8.014334106E-1,-4.119433594E-1,2.661056890E0
1.137474483E1,2.782413940E0,-7.798782349E-1,-2.064207458E-1,2.897006545E0
1.138481283E1,2.461032257E0,-9.439370728E-1,-1.293310547E-1,2.639019418E0
1.139488183E1,2.373913422E0,-1.162931671E0,1.390608215E-1,2.647114073E0
1.140494983E1,2.639311523E0,-1.412911835E0,4.032614136E-1,3.020745759E0
1.141501883E1,2.670147400E0,-1.560355225E0,2.874023438E-1,3.105961312E0
1.142508683E1,2.407743073E0,-1.657503204E0,-3.264710999E-1,2.941279816E0
1.143515583E1,2.167043610E0,-1.891167297E0,-9.834548950E-1,3.039699867E0
1.144522383E1,1.971699829E0,-2.215393066E0,-1.494043121E0,3.320802840E0
1.145529283E1,2.157164154E0,-2.587818604E0,-1.853745117E0,3.845326159E0
1.146536083E1,2.630030823E0,-2.755020905E0,-2.124382324E0,4.361215722E0
1.147542883E1,3.356320496E0,-2.777923279E0,-2.559527435E0,5.053011548E0
1.148549783E1,4.404740295E0,-2.722089386E0,-3.700903931E0,6.364605062E0
1.149556583E1,5.395679626E0,-2.629881134E0,-5.449866943E0,8.107446152E0
1.150563483E1,6.523584137E0,-2.701282654E0,-6.651567993E0,9.700383226E0
1.151570283E1,8.015980682E0,-2.798730011E0,-6.875652008E0,1.092535704E1
1.152577183E1,1.018332367E1,-2.674787750E0,-6.662794647E0,1.245983158E1
1.153583983E1,1.271096741E1,-2.437231750E0,-6.101012878E0,1.430842930E1
1.154590883E1,1.481738708E1,-2.658471680E0,-4.888983307E0,1.582796858E1
1.155597683E1,1.572465042E1,-3.614982605E0,-4.372557220E0,1.671681748E1
1.156604583E1,1.522918076E1,-4.856800232E0,-6.914122009E0,1.741612868E1
1.157611383E1,1.377390701E1,-5.230123901E0,-9.172176361E0,1.735521621E1
1.158618196E1,1.126751907E1,-4.847818909E0,-9.064101105E0,1.525176262E1
1.159625096E1,8.731043701E0,-4.770429840E0,-7.247029724E0,1.230884092E1
1.160631896E1,7.329358521E0,-4.831951904E0,-5.706134033E0,1.047030186E1
1.161638796E1,7.222630463E0,-4.987927551E0,-6.442452850E0,1.088811328E1
1.162645596E1,8.233328705E0,-5.654491425E0,-8.270601196E0,1.296779931E1
1.163652496E1,1.004920258E1,-6.219716034E0,-9.348060608E0,1.506842981E1
1.164659296E1,1.275243118E1,-7.470964050E0,-9.282047882E0,1.745268512E1
1.165666196E1,1.542691956E1,-8.426576843E0,-7.699089661E0,1.919044100E1
1.166672996E1,1.706301727E1,-8.578660583E0,-4.592749329E0,1.964264041E1
1.167679796E1,1.403167099E1,-9.672585754E0,6.971003723E-1,1.705674807E1
1.168686696E1,9.294621735E0,-7.494614868E0,6.271957397E-1,1.195627951E1
1.169693496E1,5.662275238E0,-4.680317230E0,-1.196911011E0,7.443072364E0
1.170700396E1,3.744163971E0,-4.628674622E0,-1.312171326E0,6.096325630E0
1.171707196E1,5.261558533E0,-5.967939606E0,-1.660796356E0,8.127640855E0
1.172714096E1,7.663164368E0,-6.772666168E0,-1.784139862E0,1.038153410E1
1.173720896E1,9.871671753E0,-5.742658081E0,-1.172062683E-1,1.142111038E1
1.174727796E1,1.053209839E1,-4.699178009E0,2.115251312E0,1.172525729E1
1.175734596E1,1.126841721E1,-4.183051300E0,1.912273407E0,1.217094631E1
1.176741396E1,1.189396637E1,-4.099375305E0,5.909710693E-1,1.259446548E1
1.177748296E1,1.253059250E1,-4.109105072E0,-9.090596008E-1,1.321842964E1
1.178755096E1,1.316482361E1,-3.520379333E0,-2.014959869E0,1.377554770E1
1.179761996E1,1.294867310E1,-2.971021729E0,-2.489323425E0,1.351635440E1
1.180768796E1,1.186762115E1,-2.590513000E0,-2.417323151E0,1.238525901E1
1.181775696E1,1.024170227E1,-2.680475922E0,-1.616039429E0,1.070929503E1
1.182782496E1,8.635392609E0,-3.059637451E0,-7.309300232E-1,9.190519329E0
1.183789396E1,7.070097656E0,-3.253334656E0,-2.860551453E-1,7.787958320E0
1.184796196E1,5.924230499E0,-3.414848785E0,-5.550457764E-1,6.860450062E0
1.185802996E1,5.596262512E0,-3.507506104E0,-1.145418091E0,6.703188478E0
1.186809896E1,5.579197998E0,-3.538940735E0,-1.783092041E0,6.843315648E0
1.187816696E1,5.775290222E0,-3.613934784E0,-1.951042786E0,7.086682561E0
1.188823596E1,5.911806335E0,-3.440146179E0,-1.779649200E0,7.067617078E0
1.189830396E1,5.817801819E0,-3.129542084E0,-1.535357208E0,6.782195324E0
1.190837296E1,5.786965942E0,-2.717149658E0,-1.219364319E0,6.508358197E0
1.191844096E1,5.432203674E0,-2.634371796E0,-1.001567230E0,6.119794803E0
1.192850996E1,5.299280090E0,-2.649190979E0,-7.090754700E-1,5.966855985E0
1.193857796E1,5.481750641E0,-2.602188721E0,-4.836442566E-1,6.087272624E0
1.194864596E1,5.510640564E0,-2.376458130E0,-6.107299805E-1,6.032222126E0
1.195871496E1,5.860163727E0,-2.035317535E0,-5.795947266E-1,6.230567103E0
1.196878296E1,6.112987976E0,-1.879192200E0,-3.643423462E-1,6.405679563E0
1.197885196E1,6.281687164E0,-2.004631348E0,-3.299139404E-1,6.602043902E0
1.198891996E1,6.419251099E0,-2.096091156E0,-2.523751831E-1,6.757519962E0
1.199898896E1,6.509064331E0,-2.169887695E0,2.137554932E-1,6.864548236E0
1.200905696E1,6.509064331E0,-2.167492676E0,6.102809143E-1,6.887552959E0
1.201912596E1,6.481970673E0,-2.282004547E0,3.885919189E-1,6.882913063E0
1.202919396E1,6.377338257E0,-2.233355713E0,-6.607260132E-1,6.789321015E0
1.203926196E1,6.405928802E0,-2.340233459E0,-1.627415771E0,7.011497598E0
1.204933096E1,6.396049347E0,-2.434986420E0,-1.522034912E0,7.011076692E0
1.205939896E1,6.719975739E0,-2.668351135E0,-5.727090454E-1,7.253010917E0
1.206946796E1,7.608378296E0,-3.048261108E0,-4.400848389E-2,8.196417072E0
1.207953596E1,8.696764984E0,-3.324885864E0,-4.531077576E-1,9.321689431E0
1.208960496E1,9.768685913E0,-3.676804047E0,-8.622070313E-1,1.047327616E1
1.209967296E1,1.079285614E1,-3.945495300E0,-8.888516235E-1,1.152574223E1
1.210974196E1,1.138307877E1,-3.660787354E0,-9.294172668E-1,1.199331742E1
1.211980996E1,1.117905304E1,-3.424578552E0,-7.448510742E-1,1.171553534E1
1.212987796E1,1.091859467E1,-3.494632874E0,-8.066725159E-1,1.149255798E1
1.213994696E1,1.141526184E1,-3.428320770E0,-1.406325531E0,1.200163896E1
1.215001496E1,1.186073547E1,-3.247047729E0,-1.619033203E0,1.240329123E1
1.216008396E1,1.229543152E1,-3.098257141E0,-1.067430267E0,1.272463127E1
1.217015196E1,1.250140320E1,-2.861898651E0,-1.621278534E0,1.292687472E1
1.218022096E1,1.258403137E1,-2.834954681E0,-2.788251801E0,1.319731646E1
1.219028896E1,1.293280609E1,-3.214714966E0,-2.833906860E0,1.362434930E1
1.220035796E1,1.331286575E1,-3.693868561E0,-1.149459686E0,1.386356076E1
1.221042596E1,1.408061920E1,-4.364174652E0,1.171912994E0,1.478794230E1
1.222049396E1,1.427760956E1,-5.352419586E0,1.642534332E0,1.533611584E1
1.223056296E1,1.311931824E1,-5.553601227E0,1.197509766E0,1.429660894E1
1.224063096E1,1.168260590E1,-4.917573853E0,1.593586121E0,1.277518414E1
1.225069996E1,1.080932190E1,-4.594395905E0,3.918251953E0,1.238154320E1
1.226076796E1,9.559121704E0,-5.086422729E0,5.079836426E0,1.196048670E1
1.227083696E1,8.707093506E0,-5.124593353E0,4.268224182E0,1.096780160E1
1.228090496E1,1.005698639E1,-4.741689606E0,4.097279663E0,1.184965384E1
1.229097396E1,1.170266418E1,-5.359754333E0,4.857398987E0,1.375767569E1
1.230104196E1,1.292801605E1,-6.977290649E0,4.670288086E0,1.541518001E1
1.231110996E1,1.376612320E1,-8.378676453E0,3.021466827E0,1.639626875E1
1.232117896E1,1.417911438E1,-9.770781555E0,4.379891968E-1,1.722519351E1
1.233124696E1,1.440484497E1,-1.059421921E1,-1.126707001E0,1.791665448E1
1.234131596E1,1.463042587E1,-1.090796677E1,-9.153465271E-1,1.827213615E1
1.235138396E1,1.409513901E1,-1.067999084E1,-4.821473694E-1,1.769089071E1
1.236145296E1,1.258223511E1,-9.583520966E0,-7.726931763E-1,1.583520032E1
1.237152096E1,1.143532013E1,-8.233328705E0,-1.361269226E0,1.415652860E1
1.238158996E1,1.095137650E1,-7.525001678E0,-1.735191650E0,1.340034281E1
1.239165796E1,1.072205338E1,-6.658902740E0,-1.214274902E0,1.267982168E1
1.240172596E1,1.046458878E1,-5.663772125E0,-2.903961182E-1,1.190253178E1
1.241179496E1,9.703721008E0,-4.676425323E0,2.115101624E-1,1.077385222E1
1.242186296E1,8.814120941E0,-3.837420044E0,1.374142456E-1,9.614229206E0
1.243193196E1,7.529941406E0,-3.081042938E0,1.576222229E-1,8.137425142E0
1.244199996E1,6.793472900E0,-2.152374115E0,9.011260986E-2,7.126858260E0
1.245206896E1,6.116730194E0,-1.270108795E0,1.975891113E-1,6.250328477E0
1.246213696E1,5.634133759E0,-4.779560852E-1,3.279679871E-1,5.663873959E0
1.247220596E1,4.888085175E0,-2.282752991E-1,1.061293030E-1,4.894563281E0
1.248227396E1,3.316652985E0,1.338217163E-1,-3.332070923E-1,3.336033908E0
1.249234296E1,2.956801300E0,2.944377136E-1,-6.183641052E-1,3.035085116E0
1.250241096E1,2.734064484E0,-1.552272034E-1,-3.858975220E-1,2.765523636E0
1.251247896E1,2.282453613E0,-1.022224274E0,-1.378633118E-1,2.504704225E0
1.252254796E1,2.039658508E0,-1.616338806E0,1.167572021E-2,2.602478490E0
1.253261596E1,1.819466400E0,-1.781894531E0,9.086105347E-2,2.548305679E0
1.254268496E1,1.686243439E0,-2.333198090E0,-6.586303711E-2,2.879508326E0
1.255275296E1,1.670825500E0,-2.572550354E0,-5.119354248E-1,3.109943899E0
1.256282196E1,1.830693054E0,-2.666854248E0,-9.289682007E-1,3.365491132E0
1.257288996E1,2.108665009E0,-2.660567322E0,-1.165925446E0,3.589494217E0
1.258295896E1,2.597099304E0,-2.659369812E0,-1.226250000E0,3.914187228E0
1.259302633E1,3.153791656E0,-2.639161835E0,-1.412462769E0,4.348175258E0
1.260309433E1,3.873195648E0,-2.553539886E0,-1.976789246E0,5.042807373E0
1.261316333E1,4.626129913E0,-2.512375488E0,-2.906056824E0,6.013175104E0
1.262323133E1,5.722001038E0,-2.462978210E0,-4.479584656E0,7.672954856E0
1.263330033E1,6.759942627E0,-2.533032532E0,-6.021378479E0,9.400535991E0
1.264336833E1,8.113877106E0,-2.571951599E0,-6.928791504E0,1.097534001E1
1.265343733E1,9.640702057E0,-2.284549255E0,-7.533833313E0,1.244672430E1
1.266350533E1,1.178514267E1,-2.195035400E0,-7.688611450E0,1.424157696E1
1.267357433E1,1.360655502E1,-2.854713593E0,-6.704408112E0,1.543492201E1
1.268364233E1,1.386611526E1,-3.623814240E0,-6.033353577E0,1.555000121E1
1.269371033E1,1.397404083E1,-3.892206116E0,-6.797364807E0,1.601958969E1
1.270377933E1,1.325224182E1,-3.800446930E0,-7.624993744E0,1.575454981E1
1.271384733E1,1.203781723E1,-3.876937866E0,-7.560926971E0,1.473456167E1
1.272391633E1,1.016251694E1,-4.074377289E0,-6.785539398E0,1.288102658E1
1.273398433E1,8.388705597E0,-4.258494415E0,-6.027815094E0,1.117316925E1
1.274405333E1,7.235054626E0,-4.279600525E0,-6.429878998E0,1.058321029E1
1.275412133E1,6.479725342E0,-4.351002045E0,-8.208031311E0,1.132651038E1
1.276419033E1,6.789281616E0,-4.931195526E0,-9.829908600E0,1.292432347E1
1.277425833E1,9.054970093E0,-6.189029846E0,-9.648036804E0,1.460757297E1
1.278432733E1,1.173799072E1,-7.823480988E0,-8.275241547E0,1.635441542E1
1.279439533E1,1.331690735E1,-8.688981171E0,-5.464386749E0,1.681362357E1
1.280446333E1,1.410322220E1,-8.901239777E0,-1.323098602E0,1.672972014E1
1.281453233E1,1.409184586E1,-1.063897614E1,1.988764343E0,1.776859917E1
1.282460033E1,1.202973404E1,-8.620573425E0,1.808239746E-1,1.480072581E1
1.283466933E1,8.850345612E0,-4.718338165E0,-2.912942505E0,1.044397274E1
1.284473733E1,7.092700653E0,-3.363355865E0,-3.566333771E0,8.621908246E0
1.285480633E1,7.097041626E0,-4.149071960E0,-2.835553436E0,8.696157845E0
1.286487433E1,7.682174835E0,-5.713468781E0,-2.024989014E0,9.785709796E0
1.287494333E1,8.823551331E0,-5.655838623E0,-6.385720825E-1,1.050006395E1
1.288501133E1,9.754764862E0,-4.787494354E0,1.261726227E0,1.093926381E1
1.289507933E1,1.060469742E1,-4.288731537E0,1.364861755E0,1.152022887E1
1.290514833E1,1.133921997E1,-4.225263519E0,3.263214111E-1,1.210525700E1
1.291521633E1,1.243134888E1,-4.128414917E0,-1.290017395E0,1.316230943E1
1.292528533E1,1.373064697E1,-3.496728516E0,-2.383044434E0,1.436790442E1
1.293535333E1,1.367226837E1,-2.679877167E0,-2.027384033E0,1.407916724E1
1.294542233E1,1.238898697E1,-2.209405518E0,-1.263672180E0,1.264774044E1
1.295549033E1,1.079525116E1,-2.280956726E0,-7.707472229E-1,1.106048202E1
1.296555933E1,8.993897095E0,-2.547252960E0,-6.209088135E-1,9.368255459E0
1.297562733E1,7.676336975E0,-2.732866974E0,-6.086343384E-1,8.170994249E0
1.298569533E1,6.842271423E0,-2.948119354E0,-6.921606445E-1,7.482457639E0
1.299576433E1,6.178701324E0,-3.301085358E0,-1.059197388E0,7.084872173E0
1.300583233E1,5.852679291E0,-3.583847351E0,-1.432670746E0,7.010731929E0
1.301590133E1,5.532495117E0,-3.597469025E0,-1.492546234E0,6.765942644E0
1.302596933E1,5.341641998E0,-3.416794739E0,-1.515598297E0,6.519560087E0
1.303603833E1,4.977449341E0,-3.113226013E0,-1.437760162E0,6.044363691E0
1.304610633E1,4.691094818E0,-2.827470245E0,-1.243314514E0,5.616652879E0
1.305617533E1,4.417763214E0,-2.698737946E0,-8.143066406E-1,5.240507000E0
1.306624333E1,4.608915710E0,-2.221979370E0,-4.857398987E-1,5.139575819E0
1.307631233E1,4.800816650E0,-1.720671844E0,-2.676434326E-1,5.106876258E0
1.308638033E1,4.924609222E0,-1.653611298E0,-2.387535095E-1,5.200308602E0
1.309644833E1,5.598358154E0,-1.463955688E0,-4.927752686E-1,5.807547481E0
1.310651733E1,6.309529266E0,-1.436113586E0,-5.574407959E-1,6.494868901E0
1.311658533E1,6.771318970E0,-1.287322998E0,-2.233355713E-1,6.896219245E0
1.312665433E1,6.891818390E0,-1.445543976E0,5.547463989E-1,7.063604014E0
1.313672233E1,6.833140411E0,-1.589843903E0,8.551716614E-1,7.067583044E0
1.314679133E1,6.771318970E0,-1.528321838E0,1.118174744E-1,6.942552224E0
1.315685933E1,6.640041962E0,-1.587149506E0,-1.135688324E0,6.920909534E0
1.316692833E1,6.544690247E0,-1.751956787E0,-2.285597076E0,7.150264121E0
1.317699633E1,6.746021576E0,-2.106719055E0,-1.855541382E0,7.306853365E0
1.318706433E1,7.182513885E0,-2.526895294E0,6.451583862E-2,7.614319920E0
1.319713333E1,8.182434540E0,-2.871329041E0,1.105600891E0,8.741802948E0
1.320720133E1,9.495803375E0,-2.875370636E0,3.306623840E-1,9.927103084E0
1.321727033E1,1.056802368E1,-2.917732544E0,-9.199868774E-1,1.100193908E1
1.322733833E1,1.097697327E1,-3.125949554E0,-1.296753387E0,1.148682167E1
1.323740733E1,1.045665527E1,-3.376079407E0,-9.686357117E-1,1.103076637E1
1.324747533E1,9.661508789E0,-3.336711273E0,-1.320254517E0,1.030637988E1
1.325754433E1,9.929601288E0,-3.198698273E0,-1.702709198E0,1.057014054E1
1.326761233E1,1.137828873E1,-2.939437408E0,-1.893412628E0,1.190339271E1
1.327768033E1,1.244152771E1,-2.325713654E0,-1.996997223E0,1.281360814E1
1.328774933E1,1.249870880E1,-1.749561768E0,-1.529369659E0,1.271289344E1
1.329781733E1,1.255214767E1,-1.968256989E0,-1.269809418E0,1.276882386E1
1.330788633E1,1.307665695E1,-2.117646332E0,-1.493294678E0,1.333091565E1
1.331795433E1,1.392748764E1,-1.932631073E0,-1.167422333E0,1.410931783E1
1.332802333E1,1.467398529E1,-2.119442596E0,-1.622625732E-1,1.482714438E1
1.333809133E1,1.521151749E1,-2.920576630E0,1.033600616E0,1.552379987E1
1.334816033E1,1.477173203E1,-3.891307983E0,1.688039703E0,1.536866367E1
1.335822833E1,1.449076630E1,-4.137246552E0,2.188748474E0,1.522792621E1
1.336829733E1,1.406370438E1,-4.585564270E0,2.113904114E0,1.494268286E1
1.337836533E1,1.285526733E1,-4.049079895E0,2.630180511E0,1.373210820E1
1.338843333E1,1.178184952E1,-3.460054779E0,4.310885468E0,1.301413426E1
1.339850233E1,9.234297180E0,-4.075275421E0,4.487667847E0,1.104623361E1
1.340857033E1,7.353159027E0,-4.450395355E0,3.305426331E0,9.208735512E0
1.341863933E1,8.087082825E0,-5.306315460E0,3.410657501E0,1.025624088E1
1.342870733E1,9.820927277E0,-6.438560944E0,4.367168427E0,1.252907976E1
1.343877633E1,1.141241776E1,-7.637118530E0,3.867956543E0,1.426639220E1
1.344884433E1,1.328517334E1,-8.507259064E0,2.230511627E0,1.593249728E1
1.345891333E1,1.581446365E1,-9.605824585E0,1.116677856E-1,1.850355631E1
1.346898133E1,1.666080368E1,-1.058643539E1,-1.333576813E0,1.978467641E1
1.347904933E1,1.570983124E1,-1.063688049E1,-1.257085876E0,1.901373948E1
1.348911833E1,1.316931427E1,-9.376052399E0,-4.556524658E-1,1.617247093E1
1.349918633E1,1.077384567E1,-7.886799316E0,-7.574249268E-2,1.335226913E1
1.350925533E1,9.861043854E0,-7.053033142E0,6.376739502E-2,1.212392381E1
1.351932333E1,9.692194977E0,-6.416706390E0,1.886077881E-1,1.162533171E1
1.352939233E1,9.846224670E0,-5.387446747E0,3.981719971E-1,1.123081759E1
1.353946033E1,9.449100494E0,-4.439468079E0,4.755610657E-1,1.045086290E1
1.354952933E1,8.638685760E0,-3.745960236E0,2.700384521E-1,9.419768072E0
1.355959733E1,7.818840637E0,-3.348836060E0,-7.259902954E-2,8.506129701E0
1.356966533E1,7.179669800E0,-2.983894958E0,-3.378474426E-1,7.782379357E0
1.357973433E1,6.710695038E0,-2.349065094E0,-4.784051514E-1,7.126037201E0
1.358980246E1,6.002667389E0,-1.918859711E0,-5.243595886E-1,6.323684950E0
1.359987146E1,5.036127319E0,-1.406325531E0,-3.614982605E-1,5.241279507E0
1.360993946E1,4.068988495E0,-8.436456299E-1,-4.334985352E-1,4.178076866E0
1.362000846E1,3.430117035E0,-6.331832886E-1,-9.424401855E-1,3.613145092E0
1.363007646E1,3.250640259E0,-6.164181519E-1,-1.049168243E0,3.470934663E0
1.364014546E1,3.187770996E0,-8.168513489E-1,-6.010002136E-1,3.345195257E0
1.365021346E1,2.959795074E0,-9.774673462E-1,-1.469943237E-1,3.120486601E0
1.366028246E1,2.769091644E0,-1.284029846E0,1.302291870E-1,3.055087695E0
1.367035046E1,2.570005646E0,-1.560654602E0,1.227447510E-2,3.006779418E0
1.368041846E1,2.574196930E0,-1.761836243E0,-4.587959290E-1,3.152943146E0
1.369048746E1,2.592608643E0,-1.884131927E0,-1.134341125E0,3.399750356E0
1.370055546E1,2.584675140E0,-2.120939484E0,-1.568737793E0,3.693219211E0
1.371062446E1,2.679877167E0,-2.355651398E0,-1.614093475E0,3.916137495E0
1.372069246E1,2.790048065E0,-2.502346344E0,-1.645827484E0,4.093269297E0
1.373076146E1,3.097957764E0,-2.680176544E0,-2.044897614E0,4.578459879E0
1.374082946E1,3.466042328E0,-2.690205688E0,-2.778222656E0,5.193185650E0
1.375089846E1,4.163741455E0,-2.708168335E0,-3.748355255E0,6.222626917E0
1.376096646E1,5.179080048E0,-2.951711884E0,-4.797673187E0,7.652002430E0
1.377103446E1,6.062542877E0,-2.869233398E0,-5.838907928E0,8.892680824E0
1.378110346E1,7.366631012E0,-2.705623627E0,-6.054160309E0,9.911635018E0
1.379117146E1,9.788295135E0,-2.851570129E0,-5.808521118E0,1.173375862E1
1.380124046E1,1.241203903E1,-3.097508698E0,-5.782325592E0,1.403882339E1
1.381130846E1,1.399978729E1,-3.606600037E0,-5.113666077E0,1.533464016E1
1.382137746E1,1.485076767E1,-4.300556946E0,-5.442532196E0,1.639088915E1
1.383144546E1,1.506991196E1,-4.775070190E0,-7.882757721E0,1.766469391E1
1.384151446E1,1.341435471E1,-4.298910370E0,-9.802964630E0,1.716169159E1
1.385158246E1,1.095706467E1,-3.628304901E0,-9.420360260E0,1.489849153E1
1.386165146E1,9.577533417E0,-3.785178680E0,-7.699688416E0,1.285853513E1
1.387171946E1,8.462202759E0,-3.571572876E0,-6.339467010E0,1.116036963E1
1.388178746E1,7.630382538E0,-3.570225677E0,-6.318360901E0,1.053047642E1
1.389185646E1,6.295458527E0,-3.608545990E0,-7.673492889E0,1.056110294E1
1.390192446E1,6.065536652E0,-4.314328308E0,-9.064849548E0,1.172926515E1
1.391199346E1,8.286617889E0,-5.714815979E0,-9.393416290E0,1.376820349E1
1.392206146E1,1.071232361E1,-7.886050873E0,-9.151519318E0,1.614602060E1
1.393213046E1,1.344234650E1,-9.116043091E0,-7.029382324E0,1.769777209E1
1.394219846E1,1.548529816E1,-9.036558380E0,-3.197949829E0,1.821210393E1
1.395226746E1,1.380773666E1,-1.023017624E1,1.878892822E0,1.728699904E1
1.396233546E1,1.077040283E1,-9.449250183E0,1.617536316E0,1.441895731E1
1.397240346E1,7.206613770E0,-6.052364044E0,-1.963017883E0,9.613523379E0
1.398247246E1,5.418282623E0,-5.035827942E0,-3.279380493E0,8.091457598E0
1.399254046E1,6.243067474E0,-5.894292755E0,-3.370989990E0,9.223998704E0
1.400260946E1,8.282725983E0,-6.201603699E0,-3.763773193E0,1.101042355E1
1.401267746E1,1.028436356E1,-5.209167480E0,-1.737886047E0,1.165863661E1
1.402274646E1,1.075079361E1,-4.671186218E0,1.667232971E0,1.183973014E1
1.403281446E1,1.145343246E1,-4.888234863E0,2.426154785E0,1.268708723E1
1.404288346E1,1.204724762E1,-4.753814392E0,1.739832001E0,1.306759128E1
1.405295146E1,1.260334122E1,-4.436923370E0,-6.990463257E-2,1.336171342E1
1.406302046E1,1.387554565E1,-3.871848450E0,-1.765578461E0,1.451341603E1
1.407308846E1,1.403077286E1,-2.926863556E0,-2.232607269E0,1.450564209E1
1.408315646E1,1.296873138E1,-2.278711395E0,-2.173330536E0,1.334555675E1
1.409322546E1,1.149295029E1,-2.206561432E0,-1.549128571E0,1.180494045E1
1.410329346E1,9.849068756E0,-2.654280396E0,-8.056246948E-1,1.023222317E1
1.411336246E1,8.386310577E0,-3.079246674E0,-3.176394653E-1,8.939399309E0
1.412343046E1,6.887327728E0,-3.199446716E0,-3.101550293E-1,7.600522263E0
1.413349946E1,5.741610260E0,-3.356320496E0,-1.019080811E0,6.728261391E0
1.414356746E1,4.996010742E0,-3.553310852E0,-1.766925659E0,6.380295262E0
1.415363646E1,4.340523834E0,-3.826492767E0,-2.043400726E0,6.136585417E0
1.416370446E1,4.161795502E0,-3.794758759E0,-2.016007690E0,5.982058412E0
1.417377246E1,4.281845856E0,-3.424428864E0,-1.624421997E0,5.718361986E0
1.418384146E1,4.344266052E0,-2.903661804E0,-1.220412140E0,5.365939358E0
1.419390946E1,4.507726135E0,-2.646496582E0,-1.044976959E0,5.330620594E0
1.420397846E1,4.841981049E0,-2.654280396E0,-8.455915833E-1,5.586144468E0
1.421404646E1,5.185516663E0,-2.637964325E0,-6.279441833E-1,5.851730747E0
1.422411546E1,5.460345154E0,-2.441123657E0,-6.893165588E-1,6.020765003E0
1.423418346E1,5.990991669E0,-2.082319794E0,-6.271957397E-1,6.373492872E0
1.424425246E1,6.062991943E0,-1.648072815E0,-4.942721558E-1,6.302405911E0
1.425432046E1,6.052064667E0,-1.453477478E0,-3.415896606E-1,6.233519632E0
1.426438946E1,6.191424866E0,-1.631906433E0,1.977388000E-1,6.405931713E0
1.427445746E1,6.223757629E0,-1.653461609E0,7.955955505E-1,6.488610529E0
1.428452546E1,6.584357758E0,-1.481618958E0,6.291416931E-1,6.778257968E0
1.429459446E1,7.095993805E0,-1.540296936E0,-6.896159363E-1,7.293916155E0
1.430466246E1,7.336842957E0,-1.617386627E0,-2.444117432E0,7.900564163E0
1.431473146E1,7.692503357E0,-1.643432465E0,-2.681972809E0,8.310743427E0
1.432479946E1,7.950267334E0,-2.157613220E0,-1.285676422E0,8.337566153E0
1.433486846E1,8.201744385E0,-2.550695801E0,-1.646575928E-2,8.589233443E0
1.434493646E1,8.903185730E0,-2.959495697E0,-2.532733154E-1,9.385599517E0
1.435500546E1,9.489965515E0,-3.297642517E0,-1.288071442E0,1.012882124E1
1.436507346E1,9.744885406E0,-3.587739258E0,-1.818717957E0,1.054240957E1
1.437514246E1,9.615254974E0,-3.774251404E0,-1.743723907E0,1.047562289E1
1.438521046E1,9.628277893E0,-3.819307709E0,-1.513502655E0,1.046812002E1
1.439527846E1,9.323960724E0,-3.975882111E0,-1.712139587E0,1.027984942E1
1.440534746E1,1.025741959E1,-4.219575348E0,-1.472038879E0,1.118867155E1
1.441541546E1,1.126557312E1,-3.993545380E0,-8.455915833E-1,1.198234399E1
1.442548446E1,1.174757080E1,-3.411705322E0,-6.833290100E-1,1.225202397E1
1.443555246E1,1.199515594E1,-2.919379120E0,-8.904981995E-1,1.237737968E1
1.444562146E1,1.227357697E1,-2.557282104E0,-1.212328949E0,1.259563912E1
1.445568946E1,1.290855652E1,-2.778971100E0,-1.597328339E0,1.330056275E1
1.446575846E1,1.324625427E1,-3.130889282E0,-6.497987366E-1,1.362673689E1
1.447582646E1,1.344923218E1,-4.048331451E0,5.026547241E-1,1.405430523E1
1.448589446E1,1.380414413E1,-5.717210999E0,1.045875092E0,1.497780864E1
1.449596346E1,1.389365799E1,-6.658753052E0,1.684297485E0,1.549869616E1
1.450603146E1,1.310644501E1,-6.230643311E0,2.283800812E0,1.469066244E1
1.451610046E1,1.261262192E1,-5.429060211E0,2.074835358E0,1.388732761E1
1.452616846E1,1.220606735E1,-3.891158295E0,3.327430573E0,1.323635098E1
1.453623746E1,1.096859070E1,-3.800895996E0,4.985083466E0,1.263360002E1
1.454630546E1,9.204958191E0,-4.519701233E0,4.108656006E0,1.104717198E1
1.455637446E1,9.395811310E0,-5.470224609E0,2.885399780E0,1.124856255E1
1.456644246E1,1.033450928E1,-6.527625732E0,3.651506653E0,1.275717369E1
1.457651146E1,1.140972336E1,-7.712861023E0,4.342918854E0,1.444060097E1
1.458658008E1,1.202464462E1,-8.287665710E0,3.482059021E0,1.501340122E1
1.459664808E1,1.276275970E1,-8.749006348E0,1.251098328E0,1.552412298E1
1.460671708E1,1.403167099E1,-9.769733734E0,-4.575984192E-1,1.710394353E1
1.461678508E1,1.477547424E1,-1.058419006E1,-8.655001831E-1,1.819584593E1
1.462685408E1,1.440110275E1,-1.045246399E1,-5.566923523E-1,1.780324887E1
1.463692208E1,1.297172516E1,-9.499695282E0,-2.516267395E-1,1.608021082E1
1.464699108E1,1.146136597E1,-8.785829773E0,-2.862048340E-1,1.444422472E1
1.465705908E1,1.068298462E1,-8.244705048E0,-4.810995483E-1,1.350306552E1
1.466712808E1,1.053733749E1,-7.128925323E0,-5.968089294E-1,1.273629611E1
1.467719608E1,9.959988098E0,-6.186036072E0,-8.887019348E-1,1.175832455E1
1.468726408E1,9.695338440E0,-5.092260590E0,-7.517367554E-1,1.097705851E1
1.469733308E1,9.176816711E0,-4.481979675E0,-1.131946106E0,1.027537876E1
1.470740108E1,8.587641907E0,-4.166136475E0,-1.195264435E0,9.619404540E0
1.471747008E1,7.828271027E0,-3.593277740E0,-7.237449646E-1,8.643915719E0
1.472753808E1,6.713090057E0,-2.857857056E0,4.101470947E-2,7.296204991E0
1.473760708E1,5.221891022E0,-2.411784668E0,6.424639893E-1,5.787712079E0
1.474767508E1,3.846850433E0,-1.842967529E0,3.305126953E-1,4.278320490E0
1.475774408E1,2.901865540E0,-1.354682922E0,-1.558259583E-1,3.206286194E0
1.476781208E1,2.632425842E0,-1.225950623E0,-3.635939026E-1,2.926571590E0
1.477788108E1,2.242337036E0,-7.045848083E-1,-3.198847961E-1,2.372096418E0
1.478794908E1,1.887724457E0,-3.243754578E-1,-3.888912964E-1,1.954471668E0
1.479801708E1,2.042652283E0,-6.285429382E-1,-8.069718933E-1,2.284447025E0
1.480808608E1,1.992057495E0,-9.439370728E-1,-7.095245361E-1,2.315758046E0
1.481815408E1,1.797761536E0,-1.021176453E0,-7.032376099E-1,2.183870651E0
1.482822308E1,1.635199585E0,-1.215622101E0,-8.828640747E-1,2.220599862E0
1.483829108E1,1.588496704E0,-1.380579071E0,-9.265731812E-1,2.299534346E0
1.484836008E1,1.719624023E0,-1.609602814E0,-8.761280823E-1,2.513071510E0
1.485842808E1,1.984273682E0,-1.796264648E0,-9.907896423E-1,2.854044997E0
1.486849708E1,2.365680542E0,-2.005080414E0,-1.335373077E0,3.376390550E0
1.487856508E1,2.863096161E0,-2.114053802E0,-1.813628540E0,3.994470126E0
1.488863308E1,3.545826416E0,-2.120340729E0,-2.759960632E0,4.968512098E0
1.489870208E1,4.463118896E0,-2.296823730E0,-4.050127716E0,6.449679376E0
1.490877008E1,5.450465698E0,-2.534529419E0,-5.269641724E0,7.993781308E0
1.491883908E1,6.793173523E0,-2.744393005E0,-6.246360626E0,9.627872068E0
1.492890708E1,8.957373047E0,-2.997666321E0,-6.533912659E0,1.148531889E1
1.493897608E1,1.167003204E1,-3.285368042E0,-5.692811737E0,1.339370735E1
1.494904408E1,1.399140472E1,-3.910318451E0,-4.370012512E0,1.517059675E1
1.495911308E1,1.511197449E1,-5.078339539E0,-3.980821838E0,1.643192770E1
1.496918108E1,1.571896225E1,-6.082002411E0,-6.841822357E0,1.819030128E1
1.497925008E1,1.484403168E1,-5.646258545E0,-9.975555725E0,1.875465873E1
1.498931808E1,1.184022812E1,-4.886737976E0,-1.078881454E1,1.674723049E1
1.499938608E1,9.485624542E0,-4.344415741E0,-9.487420807E0,1.410185004E1
1.500945508E1,8.477770386E0,-4.026925964E0,-7.655081177E0,1.211152308E1
1.501952308E1,7.643704834E0,-4.169429626E0,-6.969656525E0,1.115286865E1
1.502959208E1,6.957382050E0,-4.455484772E0,-7.817194061E0,1.137387500E1
1.503966008E1,7.499704285E0,-4.995561676E0,-9.156608734E0,1.284697180E1
1.504972908E1,9.496701508E0,-6.378835144E0,-9.126820679E0,1.463474404E1
1.505979708E1,1.186328018E1,-8.748706970E0,-8.191116486E0,1.686332350E1
1.506986608E1,1.411070663E1,-9.164691925E0,-6.121071167E0,1.790450033E1
1.507993408E1,1.411280228E1,-9.553283844E0,-2.745291138E0,1.726189572E1
1.509000308E1,1.163964523E1,-1.114956436E1,1.351240082E0,1.617467083E1
1.510007108E1,9.045390015E0,-8.646319885E0,3.121009827E-1,1.251700184E1
1.511013908E1,6.663543091E0,-5.360951843E0,-2.928959198E0,9.039989667E0
1.512020808E1,5.508993988E0,-5.441035309E0,-3.118465118E0,8.347377114E0
1.513027608E1,5.937852173E0,-6.162235565E0,-2.754571838E0,8.989933348E0
1.514034508E1,7.925269318E0,-6.118376770E0,-2.315983887E0,1.027658549E1
1.515041308E1,9.550439758E0,-5.316045227E0,2.761756897E-1,1.093377837E1
1.516048208E1,9.807455292E0,-4.842879181E0,2.804867249E0,1.129189702E1
1.517055008E1,1.082728455E1,-4.705614624E0,2.815495148E0,1.213671754E1
1.518061908E1,1.209814178E1,-4.443809052E0,1.048270111E0,1.293102253E1
1.519068708E1,1.325553497E1,-4.387077026E0,-1.335223389E0,1.402634927E1
1.520075608E1,1.403750885E1,-4.089495850E0,-2.439028015E0,1.482310658E1
1.521082408E1,1.354593109E1,-3.496129761E0,-2.198178864E0,1.416146754E1
1.522089208E1,1.252924530E1,-3.094514923E0,-1.560504913E0,1.299973792E1
1.523096108E1,1.102202957E1,-3.296744385E0,-9.735754395E-1,1.154562725E1
1.524102908E1,9.424551544E0,-3.746558990E0,-4.755610657E-1,1.015308005E1
1.525109808E1,8.045469360E0,-3.949087830E0,-2.679428101E-1,8.966418754E0
1.526116608E1,6.871610413E0,-3.954326935E0,-7.060816956E-1,7.959540347E0
1.527123508E1,6.054609375E0,-4.119134216E0,-1.453477478E0,7.465799231E0
1.528130308E1,5.625601501E0,-4.365671539E0,-1.891316986E0,7.367737793E0
1.529137208E1,5.030289459E0,-4.611610107E0,-2.038910065E0,7.122353128E0
1.530144008E1,4.665048981E0,-4.586462402E0,-2.026336212E0,6.848675624E0
1.531150808E1,4.693040771E0,-4.061653748E0,-1.827998657E0,6.470180982E0
1.532157708E1,4.781656494E0,-3.557352448E0,-1.666484528E0,6.188389608E0
1.533164508E1,4.887636108E0,-3.288212128E0,-1.622476044E0,6.110135370E0
1.534171408E1,4.859195251E0,-3.173700256E0,-1.619931335E0,6.025639330E0
1.535178208E1,4.983287201E0,-3.011886749E0,-1.456171875E0,6.002087108E0
1.536185108E1,5.419031067E0,-2.578687592E0,-1.222956848E0,6.124634752E0
1.537191908E1,5.738915863E0,-2.257156219E0,-8.668473816E-1,6.227466087E0
1.538198808E1,5.721851349E0,-2.183659058E0,-6.727011108E-1,6.161207392E0
1.539205608E1,6.057902527E0,-2.141147461E0,-8.403524780E-1,6.479883314E0
1.540212508E1,6.327940979E0,-2.196681976E0,-8.032296753E-1,6.746363958E0
1.541219308E1,6.338568878E0,-2.225571899E0,-1.240919495E-1,6.719079142E0
1.542226108E1,6.489754486E0,-2.170785828E0,9.764195251E-1,6.912497341E0
1.543233008E1,6.485114136E0,-2.021845551E0,1.536704407E0,6.964626711E0
1.544239808E1,6.239175568E0,-2.096240845E0,9.139993286E-1,6.645068263E0
1.545246708E1,6.171665955E0,-2.101479950E0,-6.900650024E-1,6.556055853E0
1.546253508E1,6.345604248E0,-2.077230377E0,-2.026036835E0,6.977564372E0
1.547260408E1,6.502777405E0,-2.365081787E0,-1.819316711E0,7.154693504E0
1.548267208E1,6.887178040E0,-2.830014954E0,-9.668394470E-1,7.508460861E0
1.549274108E1,7.740553436E0,-3.381468201E0,7.349716187E-2,8.447241948E0
1.550280908E1,8.960067444E0,-4.042792969E0,-1.122665405E-2,9.829908933E0
1.551287808E1,1.040845551E1,-4.469405823E0,-7.122189331E-1,1.134983657E1
1.552294608E1,1.123623413E1,-4.587210846E0,-9.367520142E-1,1.217263181E1
1.553301408E1,1.101215012E1,-4.344565430E0,-1.007105713E0,1.188094949E1
1.554308308E1,1.075857742E1,-4.121379547E0,-8.542735291E-1,1.155259888E1
1.555315108E1,1.091889404E1,-4.126468964E0,-5.812413025E-1,1.168707982E1
1.556322008E1,1.116333572E1,-3.891008606E0,-8.581654358E-1,1.185312028E1
1.557328808E1,1.164922531E1,-3.473676453E0,-1.459315338E0,1.224338514E1
1.558335708E1,1.152513336E1,-3.370989990E0,-1.500779114E0,1.210143010E1
1.559342483E1,1.139280853E1,-3.658542023E0,-1.206042023E0,1.202645223E1
1.560349383E1,1.168275558E1,-4.186943207E0,-1.046324158E0,1.245439945E1
1.561356183E1,1.244556931E1,-4.420307922E0,3.457809448E-2,1.320729015E1
1.562363083E1,1.393407394E1,-5.065316620E0,1.094972992E0,1.486656702E1
1.563369883E1,1.501587433E1,-6.381230164E0,1.539249115E0,1.638797938E1
1.564376683E1,1.448687439E1,-5.905369720E0,1.714833984E0,1.573796609E1
1.565383583E1,1.426847855E1,-4.953050079E0,2.100581818E0,1.524908617E1
1.566390383E1,1.384875137E1,-5.024750977E0,2.346071320E0,1.491777757E1
1.567397283E1,1.317096085E1,-4.353995819E0,3.214565277E0,1.423955474E1
1.568404083E1,1.156914185E1,-4.058959351E0,4.320914612E0,1.299963450E1
1.569410983E1,8.921148376E0,-4.543801117E0,4.141587524E0,1.083447111E1
1.570417783E1,8.016729126E0,-5.196443939E0,2.898273010E0,9.983534541E0
1.571424683E1,9.395511932E0,-5.885461121E0,3.058739319E0,1.150087750E1
1.572431483E1,1.091440338E1,-7.206015015E0,4.077371063E0,1.369948205E1
1.573438383E1,1.243119919E1,-8.137827301E0,4.182153168E0,1.543532804E1
1.574445183E1,1.381282608E1,-8.876990204E0,2.087708588E0,1.655154514E1
1.575451983E1,1.464135315E1,-9.737999725E0,5.074447632E-2,1.758409610E1
1.576458883E1,1.463222214E1,-9.910141754E0,-7.903564453E-1,1.769003950E1
1.577465683E1,1.391296783E1,-9.532028046E0,-1.570234680E-1,1.686579049E1
1.578472583E1,1.208377167E1,-8.414751434E0,4.824467468E-1,1.473289972E1
1.579479383E1,1.091859467E1,-7.631430359E0,4.894821167E-1,1.333019248E1
1.580486283E1,1.036504578E1,-7.312743073E0,4.790039062E-1,1.269408642E1
1.581493083E1,1.003558090E1,-6.804849243E0,6.147715759E-1,1.214070844E1
1.582499983E1,9.427695007E0,-6.096222839E0,3.691323853E-1,1.123305946E1
1.583506783E1,8.912017365E0,-5.131778412E0,3.323089600E-2,1.028398305E1
1.584513683E1,8.430319061E0,-4.220323792E0,-5.776487732E-1,9.445374026E0
1.585520483E1,7.859406281E0,-3.789369965E0,-8.460406494E-1,8.766149473E0
1.586527283E1,7.336842957E0,-3.462000732E0,-1.202000427E0,8.201190076E0
1.587534183E1,7.091952209E0,-2.966680756E0,-9.892927551E-1,7.750850341E0
1.588540983E1,5.886808319E0,-2.589465179E0,-1.175056458E-1,6.432235201E0
1.589547883E1,4.469854889E0,-2.197430420E0,2.157014465E-1,4.985461894E0
1.590554683E1,2.793790283E0,-1.792672119E0,-3.427871704E-2,3.319655480E0
1.591561583E1,2.333048401E0,-1.770218811E0,-4.061054993E-1,2.956638489E0
1.592568383E1,2.008822632E0,-1.433568878E0,-8.110134888E-1,2.597735740E0
1.593575283E1,1.804048462E0,-9.819580078E-1,-8.023315430E-1,2.205123191E0
1.594582083E1,1.623523865E0,-1.016985168E0,-5.827381897E-1,2.002416632E0
1.595588983E1,1.798809357E0,-1.266516266E0,-6.147715759E-1,2.284233492E0
1.596595783E1,1.997895355E0,-1.510359192E0,-4.098477173E-1,2.537862465E0
1.597602583E1,1.718426514E0,-1.514400787E0,-3.221301270E-1,2.313042854E0
1.598609483E1,1.563498688E0,-1.650617523E0,-4.628375244E-1,2.320190710E0
1.599616283E1,1.716779938E0,-1.782193909E0,-5.909710693E-1,2.544168880E0
1.600623183E1,2.244582367E0,-2.038161621E0,-8.619076538E-1,3.152005330E0
1.601629983E1,2.972518616E0,-2.241289215E0,-1.491947479E0,4.010629819E0
1.602636883E1,3.722309418E0,-2.412084045E0,-2.244732056E0,4.971172784E0
1.603643683E1,4.490362244E0,-2.537074127E0,-3.062331848E0,5.998164265E0
1.604650583E1,5.245841217E0,-2.583627319E0,-4.132606201E0,7.160475837E0
1.605657383E1,6.159990234E0,-2.591261444E0,-5.166057129E0,8.446790030E0
1.606664283E1,7.029681702E0,-2.962639160E0,-5.827232208E0,9.599494301E0
1.607671083E1,8.347840576E0,-3.075205078E0,-6.038592682E0,1.075211282E1
1.608677883E1,1.055634796E1,-3.119812317E0,-6.035898285E0,1.255395473E1
1.609684783E1,1.253672974E1,-3.727698212E0,-5.944588165E0,1.436674824E1
1.610691583E1,1.381477203E1,-4.770579529E0,-6.314169617E0,1.592090115E1
1.611698483E1,1.496483047E1,-5.459147644E0,-7.981701965E0,1.781729526E1
1.612705283E1,1.467922440E1,-5.150788879E0,-1.016955231E1,1.858574855E1
1.613712183E1,1.293699738E1,-4.445904694E0,-1.086455704E1,1.746913190E1
1.614718983E1,1.087114334E1,-4.564607849E0,-9.416318665E0,1.508921666E1
1.615725883E1,8.681496735E0,-4.473148041E0,-7.393874359E0,1.224935986E1
1.616732683E1,6.415957947E0,-4.715344391E0,-6.523733826E0,1.029359471E1
1.617739583E1,4.094734955E0,-5.315446472E0,-5.968238983E0,8.980016821E0
1.618746383E1,2.753673706E0,-5.564977570E0,-6.463858337E0,8.962876705E0
1.619753183E1,3.924838257E0,-4.792434082E0,-7.865543518E0,1.001192063E1
1.620760083E1,7.007378082E0,-5.628894653E0,-9.075776825E0,1.277331310E1
1.621766883E1,1.005384293E1,-8.258177032E0,-8.384065247E0,1.547804237E1
1.622773783E1,1.302890625E1,-8.861721954E0,-5.627996521E0,1.673191139E1
1.623780583E1,1.453791824E1,-9.189989319E0,3.429368591E-1,1.720245844E1
1.624787483E1,1.276725037E1,-1.076666061E1,5.564079437E0,1.760348382E1
1.625794283E1,1.052042267E1,-8.423283691E0,3.473826141E0,1.391755975E1
1.626801183E1,1.218556000E1,-7.989186401E0,-6.230044556E-1,1.458434456E1
1.627807983E1,1.367526215E1,-6.490502930E0,-3.462449799E0,1.552829616E1
1.628814883E1,1.089224945E1,-4.074377289E0,-7.320676575E0,1.374168672E1
1.629821683E1,7.328759766E0,-4.507426758E0,-5.447621613E0,1.018352576E1
1.630828483E1,7.899223480E0,-5.063520355E0,-2.327210541E0,9.667102921E0
1.631835383E1,9.292526093E0,-5.064268799E0,3.758683777E-1,1.058957679E1
1.632842183E1,9.865983582E0,-4.928800507E0,3.524570618E0,1.157813908E1
1.633849083E1,1.013362701E1,-4.875661011E0,3.019820251E0,1.164395900E1
1.634855883E1,1.123503662E1,-4.528832245E0,2.992277527E-1,1.211717404E1
1.635862783E1,1.335672455E1,-4.160148926E0,-1.872156830E0,1.411431546E1
1.636869583E1,1.504446487E1,-3.691922607E0,-2.757565613E0,1.573436951E1
1.637876483E1,1.488744141E1,-3.071911926E0,-2.230811005E0,1.536388858E1
1.638883283E1,1.320239548E1,-2.951861572E0,-1.241368561E0,1.358520257E1
1.639890183E1,1.061772034E1,-3.114872589E0,-2.978805542E-1,1.106919822E1
1.640896983E1,8.406668243E0,-3.243155823E0,4.462220764E-1,9.021598793E0
1.641903883E1,6.600673828E0,-3.295846252E0,5.803431702E-1,7.400560499E0
1.642910683E1,5.476212158E0,-3.626808014E0,-2.092648315E-1,6.571638132E0
1.643917483E1,4.560117188E0,-3.955075378E0,-1.154848480E0,6.145808736E0
1.644924383E1,3.745660858E0,-4.063450012E0,-1.684596863E0,5.777496677E0
1.645931183E1,2.902613983E0,-4.043092346E0,-1.579665070E0,5.221791396E0
1.646938083E1,2.737357635E0,-3.915707245E0,-1.135987701E0,4.910840876E0
1.647944883E1,3.653751984E0,-3.772305450E0,-7.255412292E-1,5.301565999E0
1.648951783E1,4.432881775E0,-3.987108765E0,-6.360273743E-1,5.995999329E0
1.649958583E1,4.775369568E0,-4.080364838E0,-9.693841553E-1,6.355567430E0
1.650965483E1,5.319488068E0,-3.319796448E0,-1.417252808E0,6.428577391E0
1.651972283E1,6.071673889E0,-2.592458954E0,-1.706750793E0,6.819022328E0
1.652979083E1,5.968688049E0,-2.066452789E0,-1.745669861E0,6.553077706E0
1.653985983E1,5.900729370E0,-2.015858002E0,-1.472188568E0,6.406998499E0
1.654992783E1,6.015241241E0,-2.105970612E0,-6.839277649E-1,6.409835926E0
1.655999683E1,6.111191711E0,-1.934277649E0,3.784130859E-1,6.421159601E0
1.657006483E1,6.292764130E0,-1.485510864E0,1.010398865E0,6.544198101E0
1.658013383E1,6.545289001E0,-1.224004669E0,8.644523621E-1,6.714631295E0
1.659020196E1,6.499633942E0,-1.327589264E0,-1.312770081E-1,6.635131369E0
1.660027096E1,6.662046204E0,-1.466949463E0,-1.407523041E0,6.965337139E0
1.661033896E1,6.669830017E0,-1.853296051E0,-2.280208282E0,7.288394098E0
1.662040796E1,6.739884338E0,-2.435435486E0,-1.995949402E0,7.439166682E0
1.663047596E1,7.285050659E0,-2.849474487E0,-8.584648132E-1,7.869461849E0
1.664054396E1,8.211623840E0,-3.555705872E0,3.071612549E-1,8.953667314E0
1.665061296E1,8.971294098E0,-4.224814453E0,5.177732849E-1,9.929816923E0
1.666068096E1,9.614356842E0,-4.498894501E0,1.023870850E-1,1.061538470E1
1.667074996E1,1.015623001E1,-4.409530334E0,-4.031117249E-1,1.107950653E1
1.668081796E1,9.811796265E0,-4.200265503E0,-8.018824768E-1,1.070311131E1
1.669088696E1,9.348809052E0,-4.186194763E0,-1.474284210E0,1.034881497E1
