"Time (s)","Acceleration x (m/s^2)","Acceleration y (m/s^2)","Acceleration z (m/s^2)","Absolute acceleration (m/s^2)"
-1.585750026E-3,9.116641846E0,3.560196533E0,6.457571411E0,1.172554418E1
8.484249935E-3,9.430838470E0,3.349734192E0,6.430627441E0,1.189598263E1
1.855425001E-2,9.789193268E0,3.165766754E0,6.443949738E0,1.213980528E1
2.862424997E-2,1.016551071E1,3.086282043E0,6.327342224E0,1.236519327E1
3.869524994E-2,1.059930862E1,2.956651611E0,6.144871674E0,1.260343524E1
4.876525002E-2,1.094898148E1,2.840044098E0,5.933211823E0,1.277298119E1
5.883524998E-2,1.114312775E1,2.804118805E0,5.799988861E0,1.287137324E1
6.890524994E-2,1.117620895E1,2.618504791E0,5.807323608E0,1.286426140E1
7.897625002E-2,1.108190506E1,2.306703186E0,5.912255402E0,1.277044491E1
8.904624998E-2,1.103580093E1,2.034868469E0,6.211483154E0,1.282622762E1
9.911624994E-2,1.119896164E1,1.649869080E0,6.628964996E0,1.311800239E1
1.091862500E-1,1.124371857E1,1.305285645E0,7.098538513E0,1.336092163E1
1.192562500E-1,1.114806747E1,1.023721161E0,7.444618835E0,1.344432085E1
1.293272499E-1,1.108100693E1,7.544311523E-1,7.811206512E0,1.357839564E1
1.393972500E-1,1.095092743E1,5.700146484E-1,8.105943604E0,1.363649698E1
1.494672500E-1,1.090063202E1,3.294648743E-1,8.264463959E0,1.368333622E1
1.595372499E-1,1.077609100E1,1.314266968E-1,8.333470459E0,1.362307382E1
1.696072500E-1,1.032837204E1,1.700463867E-1,7.982600098E0,1.305473436E1
1.796782500E-1,9.659413147E0,2.954855347E-1,7.233707428E0,1.207137512E1
1.897482499E-1,9.020691376E0,3.520678711E-1,6.388265533E0,1.105923873E1
1.998182500E-1,8.387059021E0,4.379891968E-1,5.482648773E0,1.002965758E1
2.098882500E-1,7.802075500E0,4.553530884E-1,4.706363068E0,9.123024820E0
2.199592500E-1,7.367229767E0,3.558100891E-1,4.125421143E0,8.451140447E0
2.300292500E-1,7.204368439E0,2.522254944E-1,3.817511444E0,8.157201476E0
2.400992500E-1,7.250023499E0,2.691403198E-1,3.815565491E0,8.197183495E0
2.501692499E-1,7.530091095E0,4.073030090E-1,4.052373047E0,8.560951755E0
2.602392500E-1,7.662715302E0,5.683680725E-1,4.313729553E0,8.811839236E0
2.703102500E-1,7.545658722E0,6.908134460E-1,4.543052673E0,8.834790114E0
2.803802500E-1,7.361242218E0,7.217990112E-1,4.703518982E0,8.765384853E0
2.904502500E-1,7.105124817E0,7.195536804E-1,4.704417114E0,8.551730617E0
3.005202500E-1,6.790030060E0,7.232958984E-1,4.501888275E0,8.178915772E0
3.105912500E-1,6.408473511E0,7.454498291E-1,4.156257019E0,7.674548885E0
3.206612500E-1,6.136489105E0,7.424560547E-1,3.899540863E0,7.308499058E0
3.307312500E-1,5.886508942E0,8.036787415E-1,3.751199341E0,7.026263839E0
3.408012500E-1,5.658832397E0,8.732839966E-1,3.641327820E0,6.785593366E0
3.508712500E-1,5.488636322E0,1.021176453E0,3.532055054E0,6.606310841E0
3.609422500E-1,5.216951294E0,1.287023621E0,3.337310028E0,6.325397128E0
3.710122500E-1,4.994962921E0,1.467697906E0,3.086431732E0,6.052260120E0
3.810822500E-1,4.893024902E0,1.543889465E0,2.837499390E0,5.863163836E0
3.911522500E-1,4.825365601E0,1.687590637E0,2.611020355E0,5.740169216E0
4.012232500E-1,4.947511597E0,1.840123444E0,2.443518677E0,5.816761024E0
4.112932500E-1,5.274282074E0,2.081571350E0,2.505938873E0,6.199251593E0
4.213632500E-1,5.719007263E0,2.415676575E0,2.736010437E0,6.784415266E0
4.314332500E-1,6.230792999E0,2.593806152E0,3.104993134E0,7.429104530E0
4.415032500E-1,6.728058929E0,2.685415649E0,3.420686646E0,8.011200365E0
4.515742500E-1,7.290888519E0,2.797532501E0,3.789220276E0,8.679944343E0
4.616442500E-1,7.619604950E0,2.911595306E0,4.023632812E0,9.095349792E0
4.717142500E-1,7.801626434E0,2.928809509E0,4.170776825E0,9.318727353E0
4.817842500E-1,7.862699432E0,2.978206787E0,4.255201263E0,9.423295380E0
4.918542500E-1,8.087681580E0,3.070415039E0,4.311184845E0,9.665627585E0
5.019252499E-1,8.294401703E0,3.221750336E0,4.323908386E0,9.893076294E0
5.119952500E-1,8.445587311E0,3.392245789E0,4.307592316E0,1.006929134E1
5.220652500E-1,8.560548248E0,3.528462524E0,4.338727570E0,1.022534063E1
5.321352500E-1,8.621471558E0,3.635789337E0,4.321064301E0,1.030632488E1
5.422062500E-1,8.661288757E0,3.656147003E0,4.423750763E0,1.039013497E1
5.522762500E-1,8.726852417E0,3.607049103E0,4.755460968E0,1.057275581E1
5.623462499E-1,8.670868835E0,3.573818207E0,5.144352264E0,1.069675199E1
5.724162500E-1,8.611891479E0,3.583547974E0,5.456153870E0,1.080629937E1
5.824862500E-1,8.606203308E0,3.526217194E0,5.653742981E0,1.088419739E1
5.925572499E-1,8.738977203E0,3.325933685E0,5.937852173E0,1.107653582E1
6.026272500E-1,9.047785034E0,2.990331573E0,6.214925995E0,1.137672194E1
6.126972500E-1,9.675729218E0,2.630479889E0,6.489754486E0,1.194387180E1
6.227672499E-1,1.050036438E1,2.426454163E0,6.612199860E0,1.264383324E1
6.328382500E-1,1.128802643E1,2.358495483E0,6.488257599E0,1.323176210E1
6.429082500E-1,1.179726746E1,2.326312408E0,6.281836853E0,1.356645580E1
6.529782499E-1,1.196761322E1,2.385289764E0,6.069129181E0,1.362892888E1
6.630482500E-1,1.168949158E1,2.757266235E0,5.954317932E0,1.340524645E1
6.731182500E-1,1.120420074E1,3.058439941E0,5.735622711E0,1.295320567E1
6.831892499E-1,1.085123474E1,2.769091644E0,5.376519470E0,1.242272617E1
6.932592500E-1,1.073163345E1,2.226470032E0,5.019511871E0,1.205490045E1
7.033292500E-1,1.096125595E1,1.830693054E0,4.781955872E0,1.209825074E1
7.134003750E-1,1.140253830E1,1.577419739E0,4.637356567E0,1.241012525E1
7.234713749E-1,1.190414520E1,1.323397980E0,4.659061432E0,1.285172785E1
7.335413750E-1,1.225112366E1,9.175918579E-1,5.001249847E0,1.326440748E1
7.436113750E-1,1.230546066E1,6.045927429E-1,5.592220917E0,1.353007130E1
7.536813749E-1,1.187600372E1,4.578977966E-1,6.090384979E0,1.335447206E1
7.637513750E-1,1.106948090E1,2.633024597E-1,6.275849304E0,1.272749072E1
7.738223750E-1,1.010398865E1,1.118174744E-1,6.146368561E0,1.182712713E1
7.838923750E-1,9.180109863E0,-1.017883301E-2,5.695805511E0,1.080355132E1
7.939623750E-1,8.539142761E0,-2.195933533E-1,4.815785522E0,9.805966068E0
8.040323750E-1,8.102500763E0,-4.692741394E-1,3.799848175E0,8.961561414E0
8.141023749E-1,7.886350250E0,-6.078858948E-1,2.979853363E0,8.452429923E0
8.241733750E-1,8.132588196E0,-5.119354248E-1,2.573598175E0,8.545435987E0
8.342433750E-1,8.677006073E0,-1.630110168E-1,2.538571014E0,9.042198282E0
8.443133750E-1,9.068142700E0,3.619473267E-1,2.730771332E0,9.477306050E0
8.543833750E-1,9.032516785E0,8.382568359E-1,3.023712158E0,9.562001318E0
8.644543750E-1,8.648265839E0,1.008153534E0,3.399730225E0,9.347033816E0
8.745243750E-1,7.985593872E0,9.244775391E-1,3.883823547E0,8.927959092E0
8.845943750E-1,7.269333344E0,7.884104919E-1,4.386627960E0,8.526857758E0
8.946643750E-1,6.501430206E0,8.234376526E-1,4.734953613E0,8.084950836E0
9.047343750E-1,5.768404541E0,1.008003845E0,4.864584045E0,7.612801103E0
9.148053750E-1,5.225932617E0,1.166823578E0,4.718188477E0,7.136746561E0
9.248753750E-1,4.937482452E0,1.308728485E0,4.334236908E0,6.699038199E0
9.349453750E-1,4.784350891E0,1.364412689E0,3.878584442E0,6.308332007E0
9.450153750E-1,4.809498596E0,1.385967865E0,3.471880188E0,6.091480584E0
9.550863750E-1,5.197491760E0,1.564097443E0,3.134481812E0,6.267798468E0
9.651563750E-1,5.768853607E0,1.936972046E0,2.796933746E0,6.697340594E0
9.752263750E-1,6.319408722E0,2.347268829E0,2.505938873E0,7.191962680E0
9.852963750E-1,6.631809082E0,2.570155334E0,2.422711945E0,7.513728988E0
9.953663750E-1,6.603218536E0,2.547702026E0,2.534230042E0,7.517685984E0
1.005437375E0,6.288722534E0,2.395468597E0,2.782713318E0,7.282155884E0
1.015507375E0,5.883515167E0,2.257754974E0,3.059188385E0,7.005129679E0
1.025577375E0,5.635331268E0,2.151475983E0,3.267555084E0,6.860227666E0
1.035647375E0,5.632038116E0,2.092199249E0,3.320844269E0,6.864776595E0
1.045717375E0,5.776487732E0,2.128872986E0,3.261567535E0,6.966902719E0
1.055788375E0,6.108497314E0,2.257754974E0,3.171903992E0,7.243767797E0
1.065858375E0,6.567143555E0,2.433489532E0,3.083138580E0,7.652123188E0
1.075928375E0,6.963818665E0,2.578687592E0,2.990930328E0,8.005627041E0
1.085998375E0,7.301516418E0,2.618804169E0,2.968327332E0,8.305494834E0
1.096069375E0,7.603588257E0,2.520009613E0,2.964884491E0,8.541401693E0
1.106139375E0,7.754624176E0,2.441123657E0,3.083887024E0,8.695035365E0
1.116209375E0,7.939040680E0,2.299817505E0,3.321892090E0,8.908001714E0
1.126279375E0,8.187973022E0,2.282902679E0,3.573069763E0,9.220703574E0
1.136349375E0,8.566535797E0,2.480641479E0,3.692521362E0,9.652659308E0
1.146420375E0,8.822653198E0,2.710114288E0,3.772754517E0,9.970837756E0
1.156490375E0,9.025631104E0,2.913840637E0,3.833528137E0,1.022978113E1
1.166560375E0,9.241482239E0,3.183579712E0,3.788172455E0,1.048286336E1
1.176630375E0,9.297914886E0,3.350931702E0,3.669169922E0,1.054242725E1
1.186701375E0,9.363777924E0,3.416794739E0,3.647614746E0,1.061413758E1
1.196771375E0,9.543703766E0,3.418291626E0,3.649710388E0,1.077438560E1
1.206841375E0,9.753417664E0,3.423231354E0,3.569327545E0,1.093561924E1
1.216911375E0,1.007839188E1,3.494483185E0,3.312312012E0,1.116945864E1
1.226981375E0,1.039408539E1,3.409010925E0,3.079396362E0,1.136402431E1
1.237052375E0,1.087653214E1,3.288960571E0,2.987337799E0,1.174905954E1
1.247122375E0,1.135808075E1,3.181933136E0,3.149600372E0,1.220863134E1
1.257192375E0,1.165566193E1,3.020868073E0,3.536845093E0,1.254947696E1
1.267262375E0,1.181672699E1,2.852917328E0,4.152215424E0,1.284581905E1
1.277333375E0,1.170251450E1,2.693798218E0,4.888234863E0,1.296534745E1
1.287403375E0,1.130973129E1,2.634671173E0,5.554199982E0,1.287247651E1
1.297473375E0,1.083461929E1,2.675835571E0,5.992189178E0,1.266709921E1
1.307543375E0,1.037327866E1,2.735860748E0,6.130501556E0,1.235608730E1
1.317613375E0,1.025307861E1,2.503543854E0,5.758375397E0,1.202298799E1
1.327684375E0,1.065798660E1,1.970202942E0,5.309159546E0,1.206903282E1
1.337754375E0,1.141017242E1,1.574875031E0,5.020859070E0,1.256508225E1
1.347824375E0,1.221789276E1,1.407523041E0,4.808600464E0,1.320532707E1
1.357894375E0,1.274823990E1,1.187181244E0,4.799619141E0,1.367345471E1
1.367965375E0,1.278925461E1,9.062155151E-1,4.958738251E0,1.374683036E1
1.378035375E0,1.220277420E1,5.924679565E-1,5.055437164E0,1.322180628E1
1.388105375E0,1.122979752E1,2.430944824E-1,5.032834167E0,1.230840635E1
1.398175375E0,1.040606049E1,-1.460961914E-1,4.904850311E0,1.150499872E1
1.408245375E0,9.787846069E0,-4.505630493E-1,4.902754669E0,1.095636532E1
1.418316375E0,9.428293762E0,-6.671626282E-1,5.044809265E0,1.071391291E1
1.428386375E0,9.199270020E0,-7.083270264E-1,5.121150513E0,1.055246316E1
1.438456375E0,8.970096588E0,-6.505471802E-1,5.132676544E0,1.035520222E1
1.448526375E0,8.807983704E0,-6.601272583E-1,4.929099884E0,1.011495776E1
1.458596375E0,8.706943817E0,-7.529342651E-1,4.488715668E0,9.824782389E0
1.468667375E0,8.834777985E0,-1.028211823E0,3.632196808E0,9.607464558E0
1.478737375E0,8.756341095E0,-9.966275024E-1,2.974015503E0,9.301158205E0
1.488807375E0,8.354576569E0,-3.427871704E-2,3.214565277E0,8.951734725E0
1.498877375E0,8.703051910E0,4.212240601E-1,3.399730225E0,9.353005285E0
1.508948375E0,8.867559814E0,3.288661194E-1,3.082839203E0,9.393916518E0
1.519018375E0,8.527766418E0,2.947370911E-1,2.922971649E0,9.019613811E0
1.529088375E0,7.931556244E0,4.959187317E-1,2.976859589E0,8.486295590E0
1.539158375E0,7.364984436E0,6.845265198E-1,3.013982391E0,7.987218675E0
1.549228375E0,6.900051270E0,7.563771057E-1,3.011587372E0,7.566536351E0
1.559299375E0,6.301146698E0,7.566764832E-1,2.989583130E0,7.015312987E0
1.569369375E0,5.655090179E0,7.099736023E-1,2.813399506E0,6.356046274E0
1.579439375E0,5.418432312E0,7.952961731E-1,2.621947632E0,6.071780143E0
1.589509375E0,5.420677643E0,8.861572266E-1,2.580034790E0,6.068410027E0
1.599580375E0,5.392087097E0,1.022972717E0,2.550995178E0,6.052161006E0
1.609650375E0,5.396727448E0,1.276545410E0,2.471809845E0,6.071579633E0
1.619720375E0,5.503006439E0,1.510808258E0,2.373314667E0,6.180472795E0
1.629790375E0,5.632636871E0,1.636097717E0,2.210453339E0,6.268135116E0
1.639860375E0,5.648204498E0,1.721569977E0,1.951192474E0,6.218775548E0
1.649931375E0,5.696703644E0,1.776954803E0,1.611698456E0,6.181227442E0
1.660001375E0,5.792055359E0,1.763482819E0,1.360969849E0,6.205643872E0
1.670071375E0,5.893394623E0,1.701362000E0,1.304387512E0,6.271216757E0
1.680141375E0,6.049669647E0,1.734592896E0,1.432221680E0,6.454345381E0
1.690212375E0,6.244863739E0,1.964215393E0,1.654659119E0,6.752359738E0
1.700282375E0,6.444099426E0,2.376308441E0,1.916015625E0,7.130524181E0
1.710352375E0,6.901248779E0,2.644999695E0,2.094444580E0,7.681793814E0
1.720421208E0,7.519163818E0,2.725532227E0,2.222129059E0,8.300855859E0
1.730491208E0,8.290809174E0,2.780018921E0,2.365680542E0,9.058833610E0
1.740562208E0,9.201066284E0,2.842588806E0,2.520308990E0,9.954490911E0
1.750632208E0,1.014455429E1,2.907703400E0,2.715652771E0,1.089685692E1
1.760702208E0,1.115420471E1,2.776725769E0,2.933300171E0,1.186299872E1
1.770772208E0,1.190055267E1,2.651286621E0,3.104095001E0,1.258125115E1
1.780843208E0,1.230381409E1,2.655627594E0,3.297193451E0,1.301182861E1
1.790913208E0,1.250095413E1,2.377505951E0,3.259322205E0,1.313581250E1
1.800983208E0,1.248089584E1,1.993853760E0,3.084186401E0,1.301001228E1
1.811053208E0,1.239572296E1,1.695075073E0,3.074756012E0,1.288337501E1
1.821123208E0,1.233914062E1,1.436562653E0,3.196153564E0,1.282706129E1
1.831194208E0,1.224543549E1,1.104702759E0,3.326233063E0,1.273714587E1
1.841264208E0,1.207613754E1,7.279362488E-1,3.433110809E0,1.257574010E1
1.851334208E0,1.192929291E1,4.737648010E-1,3.509901123E0,1.244394987E1
1.861404208E0,1.182466049E1,4.608915710E-1,3.592529297E0,1.236694318E1
1.871474208E0,1.174667267E1,6.691085815E-1,3.631897430E0,1.231351713E1
1.881545208E0,1.169218597E1,9.286688232E-1,3.573518829E0,1.226130806E1
1.891615208E0,1.158485916E1,1.052611084E0,3.426075439E0,1.212662133E1
1.901685208E0,1.140702896E1,9.613009644E-1,3.222199402E0,1.189230752E1
1.911755208E0,1.130419281E1,8.614585876E-1,3.004252625E0,1.172827438E1
1.921825208E0,1.148426834E1,7.821235657E-1,2.869832153E0,1.186322356E1
1.931896208E0,1.193034073E1,6.465055847E-1,2.977009277E0,1.231314678E1
1.941966208E0,1.248314117E1,5.710624695E-1,3.417692871E0,1.295513607E1
1.952036208E0,1.300301010E1,5.519023132E-1,4.053869934E0,1.363146101E1
1.962106208E0,1.321556808E1,4.656816101E-1,4.590054932E0,1.399773923E1
1.972177208E0,1.295900162E1,2.471360779E-1,4.882247314E0,1.385038404E1
1.982247208E0,1.222373062E1,-1.152603149E-1,4.724176025E0,1.310536968E1
1.992317208E0,1.148860931E1,-5.090913391E-1,4.342020721E0,1.229229278E1
2.002387208E0,1.100062408E1,-8.930429077E-1,4.004322968E0,1.174077759E1
2.012457208E0,1.065379532E1,-1.229393463E0,3.715423737E0,1.134985183E1
2.022528208E0,1.048180298E1,-1.395248566E0,3.358416138E0,1.109476774E1
2.032598208E0,1.039243881E1,-1.292113037E0,2.958896942E0,1.088243593E1
2.042668208E0,1.027837601E1,-9.421408081E-1,2.564317474E0,1.063524173E1
2.052738208E0,1.009500732E1,-5.739065552E-1,2.140698395E0,1.033543087E1
2.062809208E0,9.815538483E0,-3.165916443E-1,1.792223053E0,9.982839749E0
2.072879208E0,9.356892242E0,-1.466949463E-1,1.590292969E0,9.492206465E0
2.082949208E0,8.768316193E0,-2.439926147E-2,1.584006042E0,8.910277174E0
2.093019208E0,8.202941895E0,1.254391479E-1,1.744172974E0,8.387259986E0
2.103089208E0,7.710915070E0,3.486250305E-1,1.988315277E0,7.970768361E0
2.113160208E0,7.246730347E0,5.815406799E-1,2.269281006E0,7.615965242E0
2.123230208E0,6.957681427E0,8.430468750E-1,2.496658173E0,7.439983932E0
2.133300208E0,6.751560059E0,1.053808594E0,2.560575256E0,7.297302339E0
2.143370208E0,6.528673553E0,1.130149841E0,2.470612335E0,7.071403138E0
2.153441208E0,6.314768372E0,1.224603424E0,2.327958984E0,6.840712402E0
2.163511208E0,6.092480621E0,1.407373352E0,2.199076996E0,6.628345156E0
2.173581208E0,5.867498474E0,1.619332581E0,2.092199249E0,6.436386723E0
2.183651208E0,5.598956909E0,1.749412079E0,1.968556366E0,6.187404566E0
2.193721208E0,5.314398651E0,1.781445465E0,1.797462158E0,5.886191568E0
2.203792208E0,5.070555725E0,1.737436981E0,1.647024994E0,5.607308976E0
2.213862208E0,4.888384552E0,1.682501221E0,1.487456818E0,5.379557758E0
2.223932208E0,4.773423615E0,1.656156006E0,1.384321289E0,5.238775730E0
2.234002208E0,4.789290619E0,1.649120636E0,1.297651520E0,5.228843368E0
2.244072208E0,5.017565918E0,1.753753052E0,1.275946655E0,5.466228807E0
2.254143208E0,5.499862976E0,1.905537415E0,1.392703857E0,5.984913502E0
2.264213208E0,6.158493347E0,2.062860260E0,1.541195068E0,6.675156552E0
2.274283208E0,6.785240021E0,2.182461548E0,1.616189117E0,7.308535271E0
2.284353208E0,7.303312683E0,2.345023499E0,1.776954803E0,7.873695430E0
2.294424208E0,7.573650513E0,2.437830505E0,1.871558075E0,8.173489419E0
2.304494208E0,7.821684723E0,2.443219299E0,2.127974854E0,8.466188601E0
2.314564208E0,8.245004425E0,2.427202606E0,2.694396973E0,9.007285135E0
2.324634208E0,8.793164520E0,2.442919922E0,3.111878815E0,9.642167276E0
2.334704208E0,9.323960724E0,2.433339844E0,3.322939911E0,1.019310139E1
2.344775208E0,9.871522064E0,2.362387390E0,3.570375366E0,1.075989788E1
2.354845208E0,1.035501663E1,2.302661591E0,3.880380707E0,1.129539615E1
2.364915208E0,1.067759583E1,2.350711670E0,4.111799469E0,1.168091575E1
2.374985208E0,1.081022003E1,2.378254395E0,4.272415466E0,1.186467383E1
2.385056208E0,1.072893906E1,2.340532837E0,4.433779907E0,1.184257706E1
2.395126208E0,1.047237259E1,2.315983887E0,4.583019562E0,1.166355166E1
2.405196208E0,1.021939865E1,2.274819489E0,4.620142365E0,1.144362827E1
2.415266208E0,1.009575577E1,2.053878937E0,4.542603607E0,1.125957152E1
2.425336208E0,1.028660889E1,1.780247955E0,4.437372437E0,1.134345094E1
2.435407208E0,1.085153412E1,1.551224213E0,4.378993835E0,1.180413810E1
2.445477208E0,1.156315430E1,1.403631134E0,4.304149475E0,1.241782672E1
2.455547208E0,1.222328156E1,1.368454285E0,4.319866791E0,1.303620068E1
2.465617208E0,1.272563690E1,1.427281952E0,4.547393646E0,1.358888359E1
2.475688208E0,1.301842804E1,1.514101410E0,4.863685913E0,1.397953548E1
2.485758208E0,1.291244843E1,1.490450592E0,5.136568451E0,1.397630505E1
2.495828208E0,1.229677872E1,1.429527283E0,5.432353363E0,1.351905241E1
2.505898208E0,1.160446838E1,1.374142456E0,5.637277222E0,1.297423787E1
2.515968208E0,1.121452927E1,1.153351593E0,5.561684418E0,1.257092758E1
2.526039208E0,1.118698654E1,8.042774963E-1,5.346432037E0,1.242496944E1
2.536109208E0,1.156450150E1,4.920268250E-1,5.222489777E0,1.269858987E1
2.546179208E0,1.220322327E1,2.475851440E-1,5.170248413E0,1.325561863E1
2.556249208E0,1.260304184E1,1.058299255E-1,5.088218994E0,1.359182976E1
2.566319208E0,1.233734436E1,1.362167358E-2,4.832700348E0,1.325010355E1
2.576390208E0,1.151974457E1,-1.884580994E-1,4.355941772E0,1.231723427E1
2.586460208E0,1.041579025E1,-3.930825806E-1,3.970343628E0,1.115378093E1
2.596530208E0,9.437873840E0,-4.770579529E-1,3.921545105E0,1.023130309E1
2.606600208E0,8.849746857E0,-5.435197449E-1,3.981270905E0,9.719256718E0
2.616671208E0,8.541986847E0,-7.044351196E-1,4.084406433E0,9.494426999E0
2.626741208E0,8.622818756E0,-9.620494080E-1,4.288731537E0,9.678417255E0
2.636811208E0,9.133107605E0,-1.090332642E0,4.455185394E0,1.022013487E1
2.646881208E0,9.686506805E0,-9.213340759E-1,4.343218231E0,1.065555326E1
2.656951208E0,1.005264542E1,-6.105802917E-1,3.938010864E0,1.081371434E1
2.667022208E0,1.017389328E1,-3.363505554E-1,3.373085632E0,1.072375600E1
2.677092208E0,9.749376068E0,-2.350112915E-1,2.762355652E0,1.013588540E1
2.687162208E0,9.009464722E0,-2.107617188E-1,2.470612335E0,9.344452921E0
2.697232208E0,8.243806915E0,-1.636097717E-1,2.593955841E0,8.643825977E0
2.707303208E0,7.441175995E0,-1.613644409E-1,2.890339508E0,7.984434929E0
2.717374208E0,6.671177216E0,-2.103126526E-1,3.012186127E0,7.322711391E0
2.727444208E0,5.983058167E0,-1.493893433E-1,3.125650177E0,6.751962028E0
2.737514208E0,5.573210449E0,1.047821045E-2,3.236120453E0,6.444630330E0
2.747584208E0,5.400319977E0,1.094224548E-1,3.290457458E0,6.324756075E0
2.757655208E0,5.286556549E0,1.850152588E-1,3.418591003E0,6.298307331E0
2.767725208E0,5.221891022E0,2.613565063E-1,3.518433380E0,6.302049390E0
2.777795208E0,5.195246429E0,3.499722290E-1,3.587439880E0,6.323194677E0
2.787865208E0,5.171595612E0,5.001100159E-1,3.606450348E0,6.324713061E0
2.797935208E0,5.146747284E0,7.041357422E-1,3.503464508E0,6.265706529E0
2.808006208E0,4.951553192E0,8.433462524E-1,3.163671112E0,5.936154211E0
2.818076208E0,4.753664703E0,8.638536072E-1,2.466271362E0,5.424579762E0
2.828146208E0,4.796475677E0,9.598040771E-1,1.845512238E0,5.228127601E0
2.838216208E0,4.918471985E0,1.106499023E0,1.617985382E0,5.294675009E0
2.848287208E0,5.196443939E0,1.292113037E0,1.599124603E0,5.588361586E0
2.858357208E0,5.634732513E0,1.563348999E0,1.733994141E0,6.099262764E0
2.868427208E0,6.228098602E0,1.776805115E0,2.048190765E0,6.792741275E0
2.878497208E0,6.980134735E0,1.858834534E0,2.462529144E0,7.631618212E0
2.888567208E0,7.652686157E0,1.872156830E0,2.875370636E0,8.386675915E0
2.898638208E0,8.248596954E0,1.997446289E0,3.346740417E0,9.123037587E0
2.908708208E0,8.801547089E0,2.223775635E0,3.797602844E0,9.840436809E0
2.918778208E0,9.232650604E0,2.430346069E0,4.067042542E0,1.037734331E1
2.928848208E0,9.565708008E0,2.592009888E0,4.183799744E0,1.075757711E1
2.938919208E0,9.864786072E0,2.608924713E0,4.175417175E0,1.102518032E1
2.948989208E0,1.006297394E1,2.527044983E0,4.170028381E0,1.118206321E1
2.959059208E0,1.027283752E1,2.446063385E0,4.195325775E0,1.136288587E1
2.969129208E0,1.050545380E1,2.277064819E0,4.184847565E0,1.153527342E1
2.979199208E0,1.070439011E1,2.007774811E0,4.031865692E0,1.161340037E1
2.989270208E0,1.107037903E1,1.680704956E0,3.763174438E0,1.181268567E1
2.999340208E0,1.141496246E1,1.434317322E0,3.513044586E0,1.202913615E1
3.009410208E0,1.154399414E1,1.245559845E0,3.311862946E0,1.207409029E1
3.019480208E0,1.158605667E1,1.029259644E0,3.219804382E0,1.206910207E1
3.029550208E0,1.162048508E1,7.336244202E-1,3.221750336E0,1.208112385E1
3.039621208E0,1.170371201E1,4.258644104E-1,3.309617615E0,1.217011931E1
3.049691208E0,1.179277679E1,2.384541321E-1,3.445235596E0,1.228804676E1
3.059761208E0,1.184651505E1,2.073188782E-1,3.447480927E0,1.233969305E1
3.069831208E0,1.166868484E1,2.514770508E-1,3.385659485E0,1.215253623E1
3.079902208E0,1.143427231E1,3.728746033E-1,3.236419830E0,1.188932429E1
3.089972208E0,1.124326950E1,5.287005615E-1,2.965932312E0,1.163990498E1
3.100042208E0,1.113609238E1,4.840933228E-1,2.592309265E0,1.144408000E1
3.110112208E0,1.121078705E1,1.676513672E-1,2.221380615E0,1.142997747E1
3.120182208E0,1.148726212E1,-2.478845215E-1,1.851799164E0,1.163820423E1
3.130253208E0,1.178304703E1,-5.460644531E-1,1.652713165E0,1.191091283E1
3.140323208E0,1.197449890E1,-7.397616577E-1,1.741777954E0,1.212310446E1
3.150393208E0,1.201850739E1,-8.467890930E-1,2.178869019E0,1.224373480E1
3.160463208E0,1.178229858E1,-8.593629456E-1,2.885100403E0,1.216079228E1
3.170534208E0,1.114582214E1,-9.139993286E-1,3.545676727E0,1.173186130E1
3.180604208E0,1.024185196E1,-1.061442719E0,3.971241760E0,1.103598447E1
3.190674208E0,9.502239990E0,-1.206191711E0,3.933669891E0,1.035476808E1
3.200744208E0,9.011859741E0,-1.402283936E0,3.693868561E0,9.839953312E0
3.210814208E0,8.807983704E0,-1.782493286E0,3.379073181E0,9.600833026E0
3.220885208E0,9.509275360E0,-2.293380890E0,3.214864655E0,1.029666298E1
3.230955208E0,1.120000946E1,-2.213447113E0,3.405418396E0,1.191370784E1
3.241025208E0,1.273072632E1,-1.538201294E0,3.571722565E0,1.331144838E1
3.251095208E0,1.369846390E1,-8.101153564E-1,3.404071198E0,1.413831322E1
3.261166208E0,1.419962173E1,-3.421884155E-1,3.189567261E0,1.455746165E1
3.271236208E0,1.419034103E1,-3.074606323E-1,2.894830170E0,1.448586733E1
3.281306208E0,1.325074493E1,-3.070115662E-1,2.417472839E0,1.347296079E1
3.291376208E0,1.163365768E1,-3.799099731E-1,2.123484192E0,1.183196974E1
3.301446208E0,1.009665390E1,-5.257067871E-1,2.258353729E0,1.035948595E1
3.311517208E0,9.013955383E0,-5.330415344E-1,2.789149933E0,9.450655124E0
3.321587208E0,8.791667633E0,-4.258644104E-1,3.547922058E0,9.490128092E0
3.331657208E0,8.718918915E0,-1.878593445E-1,4.074227600E0,9.625703544E0
3.341727208E0,8.463549957E0,1.838177490E-1,4.213587799E0,9.456203730E0
3.351797208E0,8.172555084E0,6.869215393E-1,4.228706360E0,9.227376403E0
3.361868208E0,7.616311798E0,1.121318207E0,4.150119781E0,8.745802086E0
3.371938208E0,6.691085815E0,1.267564087E0,3.632795563E0,7.718455267E0
3.382008208E0,5.744304657E0,1.178798676E0,2.700683899E0,6.456027868E0
3.392078208E0,5.015320587E0,1.036594391E0,1.960024109E0,5.483581223E0
3.402149208E0,4.500241699E0,9.569599915E-1,1.544488220E0,4.853183660E0
3.412219208E0,4.153862000E0,9.057664490E-1,1.235381012E0,4.427318445E0
3.422289208E0,4.009861450E0,8.746311951E-1,1.091230774E0,4.246734414E0
3.432359208E0,4.050127716E0,8.672964478E-1,1.130299530E0,4.293403623E0
3.442429208E0,4.287833405E0,9.135502625E-1,1.296004944E0,4.571620960E0
3.452500208E0,4.704117737E0,1.037791901E0,1.495240631E0,5.043954823E0
3.462570208E0,5.233267365E0,1.206491089E0,1.598675537E0,5.603433905E0
3.472640208E0,5.877228241E0,1.268911285E0,1.671424255E0,6.240641529E0
3.482710208E0,6.449637909E0,1.196012878E0,1.770518188E0,6.794336658E0
3.492780208E0,6.957681427E0,1.276994476E0,1.876946869E0,7.318673055E0
3.502851208E0,7.399113464E0,1.398990784E0,1.887425079E0,7.763145542E0
3.512921208E0,7.561974792E0,1.358125763E0,1.898651733E0,7.914091657E0
3.522991208E0,7.611222382E0,1.470541992E0,1.858535156E0,7.971659352E0
3.533061208E0,7.511829071E0,1.656006317E0,1.776805115E0,7.894743145E0
3.543132208E0,7.518565063E0,1.768123169E0,1.888622589E0,7.951224776E0
3.553202208E0,7.812254333E0,1.805994415E0,2.153421936E0,8.302418903E0
3.563272208E0,8.178093567E0,1.821711731E0,2.371518402E0,8.707694732E0
3.573342208E0,8.599467316E0,1.935774536E0,2.623893585E0,9.196895058E0
3.583412208E0,9.114097137E0,2.145039368E0,2.868035889E0,9.792527272E0
3.593483208E0,9.755962372E0,2.434537354E0,3.026855621E0,1.050083944E1
3.603553208E0,1.035905823E1,2.537822571E0,3.166066132E0,1.112540361E1
3.613623208E0,1.104942261E1,2.269879761E0,3.322041779E0,1.175916900E1
3.623693208E0,1.151046387E1,2.033221893E0,3.582350464E0,1.222530182E1
3.633764208E0,1.157812317E1,1.874102783E0,3.794160004E0,1.232724006E1
3.643834208E0,1.135149445E1,1.673669586E0,3.870351563E0,1.210938550E1
3.653904208E0,1.117171829E1,1.446741486E0,3.917054443E0,1.192659491E1
3.663974208E0,1.123069565E1,1.304088135E0,3.961362305E0,1.198004849E1
3.674044208E0,1.150253036E1,1.206191711E0,4.071233826E0,1.226124170E1
3.684115208E0,1.184202438E1,1.165626068E0,4.238885193E0,1.263172092E1
3.694185208E0,1.210218338E1,1.200503540E0,4.448898468E0,1.294977795E1
3.704255208E0,1.232117798E1,1.147813110E0,4.610711975E0,1.320558846E1
3.714325208E0,1.248778152E1,9.416917419E-1,4.557123413E0,1.332662165E1
3.724395375E0,1.260364059E1,6.478527832E-1,4.187242584E0,1.329678419E1
3.734466375E0,1.275183243E1,2.330653381E-1,3.685635681E0,1.327582239E1
3.744536375E0,1.289448578E1,-2.023791504E-1,3.336411896E0,1.332067435E1
3.754606375E0,1.313114365E1,-5.349874878E-1,3.161874847E0,1.351704841E1
3.764676375E0,1.325897781E1,-8.632548523E-1,3.104693756E0,1.364495602E1
3.774747375E0,1.322499847E1,-1.201251984E0,3.028053131E0,1.362030458E1
3.784817375E0,1.315703979E1,-1.554667053E0,2.989732819E0,1.358172258E1
3.794887375E0,1.314266968E1,-1.895358582E0,3.126697998E0,1.364178840E1
3.804957375E0,1.318473221E1,-2.124831390E0,3.572171631E0,1.382434382E1
3.815027375E0,1.323173447E1,-2.204166412E0,4.110751648E0,1.402980491E1
3.825098375E0,1.311916855E1,-2.202220459E0,4.436324615E0,1.402295741E1
3.835168375E0,1.271605682E1,-2.044298859E0,4.406087494E0,1.361215876E1
3.845238375E0,1.183334244E1,-1.808988190E0,4.224215698E0,1.269426760E1
3.855308375E0,1.073268127E1,-1.628613281E0,3.935765533E0,1.154699437E1
3.865379375E0,9.863438873E0,-1.540746002E0,3.532204742E0,1.058951344E1
3.875449375E0,9.081614685E0,-1.440753937E0,3.108885040E0,9.706526845E0
3.885519375E0,8.408763885E0,-1.241967316E0,2.752775574E0,8.934627371E0
3.895589375E0,7.914491730E0,-1.009650421E0,2.458637238E0,8.348860424E0
3.905659375E0,7.580087128E0,-8.461903381E-1,2.311193848E0,7.969653440E0
3.915730375E0,7.332801361E0,-7.438032532E-1,2.280807037E0,7.715264080E0
3.925800375E0,7.191794586E0,-7.333250427E-1,2.419119415E0,7.623110503E0
3.935870375E0,7.240293732E0,-6.848258972E-1,2.771486664E0,7.782800149E0
3.945940375E0,7.439080353E0,-4.044589233E-1,3.198548584E0,8.107664063E0
3.956011375E0,7.615713043E0,1.019380188E-1,3.552263031E0,8.404049569E0
3.966081375E0,7.585326233E0,5.989045715E-1,3.603007507E0,8.418879013E0
3.976151375E0,7.222630463E0,8.827143860E-1,3.300037537E0,7.989732363E0
3.986221375E0,6.686744843E0,1.007554779E0,2.798131256E0,7.318282705E0
3.996291375E0,6.145769806E0,1.134341125E0,2.353406067E0,6.678003924E0
4.006362375E0,5.600453796E0,1.232387238E0,2.012415161E0,6.077308270E0
4.016432375E0,5.089266815E0,1.246008911E0,1.782044220E0,5.534334334E0
4.026502375E0,4.596790924E0,1.231788483E0,1.626667328E0,5.029297790E0
4.036572375E0,4.199067993E0,1.275347900E0,1.467398529E0,4.627304045E0
4.046642375E0,3.876788177E0,1.350192261E0,1.304986267E0,4.307608951E0
4.056713375E0,3.761677551E0,1.396446075E0,1.122665405E0,4.166612203E0
4.066783375E0,3.812422028E0,1.365759888E0,1.125808868E0,4.203249623E0
4.076853375E0,4.082011414E0,1.454225922E0,1.338217163E0,4.535241492E0
4.086923375E0,4.633314972E0,1.655706940E0,1.637444916E0,5.185576048E0
4.096994375E0,5.266947327E0,1.836680603E0,1.941462708E0,5.906217675E0
4.107064375E0,6.034102020E0,2.006876678E0,2.118544464E0,6.702698847E0
4.117134375E0,6.872957611E0,2.206112366E0,2.231858826E0,7.555506066E0
4.127204375E0,7.741750946E0,2.374212799E0,2.340981903E0,8.429222408E0
4.137274375E0,8.583450623E0,2.544259186E0,2.492167511E0,9.292996196E0
4.147345375E0,9.285341034E0,2.646795959E0,2.692301331E0,1.002355094E1
4.157415375E0,9.951455841E0,2.580184479E0,2.917882233E0,1.068657391E1
4.167485375E0,1.062909668E1,2.384990387E0,3.057392120E0,1.131430607E1
4.177555375E0,1.125419678E1,2.197729797E0,2.977757721E0,1.184710945E1
4.187626375E0,1.164263901E1,1.953138428E0,2.713108063E0,1.211308169E1
4.197696375E0,1.182256485E1,1.587748260E0,2.671195221E0,1.222412647E1
4.207766375E0,1.201057388E1,1.251697083E0,2.883154449E0,1.241503968E1
4.217836375E0,1.201401672E1,9.330097961E-1,3.144660645E0,1.245375428E1
4.227906375E0,1.185938828E1,5.104385376E-1,3.330424347E0,1.232872111E1
4.237977375E0,1.188543411E1,1.007405090E-1,3.392545166E0,1.236054430E1
4.248047375E0,1.199231186E1,-2.157014465E-1,3.411256256E0,1.246991340E1
4.258117375E0,1.207164688E1,-3.815565491E-1,3.375181274E0,1.254041835E1
4.268187375E0,1.210817093E1,-3.288661194E-1,3.191962280E0,1.252615581E1
4.278258375E0,1.209170517E1,-1.384620667E-1,2.980003052E0,1.245427332E1
4.288328375E0,1.210218338E1,1.490899658E-1,2.803669739E0,1.242359185E1
4.298398375E0,1.193004135E1,4.037104797E-1,2.538720703E0,1.220385069E1
4.308468375E0,1.158785294E1,3.077600098E-1,2.013013916E0,1.176542719E1
4.318538375E0,1.149579437E1,-5.284011841E-2,1.570384369E0,1.160268018E1
4.328609375E0,1.189336761E1,-3.900888062E-1,1.391656036E0,1.198086262E1
4.338679375E0,1.247715363E1,-5.647755432E-1,1.571432190E0,1.258839677E1
4.348749375E0,1.289688080E1,-6.101312256E-1,2.226769409E0,1.310191957E1
4.358819375E0,1.287936722E1,-6.819818115E-1,3.068918152E0,1.325750571E1
4.368889375E0,1.241084152E1,-7.448510742E-1,3.798201599E0,1.300038945E1
4.378960375E0,1.161374908E1,-9.135502625E-1,4.212240601E0,1.238776464E1
4.389030375E0,1.073851913E1,-1.252146149E0,4.201313324E0,1.159890929E1
4.399100375E0,1.015353561E1,-1.641636200E0,3.638932800E0,1.091013688E1
4.409170375E0,9.973909149E0,-2.263293457E0,2.678829346E0,1.057248730E1
4.419241375E0,1.051712952E1,-2.889441376E0,1.745969238E0,1.104569117E1
4.429311375E0,1.140807678E1,-2.733914795E0,1.103804626E0,1.178290671E1
4.439381375E0,1.199964661E1,-2.004930725E0,5.050497437E-1,1.217646669E1
4.449451375E0,1.226324844E1,-1.450184326E0,-8.666976929E-2,1.234900031E1
4.459521375E0,1.231908234E1,-1.281485138E0,-6.086343384E-1,1.240050118E1
4.469592375E0,1.174352921E1,-1.064286804E0,-6.727011108E-1,1.181083026E1
4.479662375E0,1.052506302E1,-8.264314270E-1,-7.409591675E-2,1.055771901E1
4.489732375E0,9.436227264E0,-9.298663330E-1,8.702902222E-1,9.521787724E0
4.499802375E0,8.682245178E0,-1.190474396E0,1.827699280E0,8.952044196E0
4.509873375E0,8.164471893E0,-1.112935638E0,2.692301331E0,8.668662728E0
4.519943375E0,7.943531342E0,-7.276368713E-1,3.373983765E0,8.660999482E0
4.530013375E0,7.923473053E0,-2.077679443E-1,3.733985138E0,8.761691489E0
4.540083375E0,7.759414215E0,2.562670898E-1,3.660787354E0,8.583446035E0
4.550153375E0,7.460036774E0,6.239025879E-1,3.264261932E0,8.166811438E0
4.560224375E0,7.131020966E0,1.017733612E0,2.704426117E0,7.694229158E0
4.570294375E0,6.731352081E0,1.293160858E0,1.990859985E0,7.137708969E0
4.580364375E0,6.220015411E0,1.346150665E0,1.309327240E0,6.497311071E0
4.590434375E0,5.719007263E0,1.332379303E0,9.352551270E-1,5.946173630E0
4.600504375E0,5.271737366E0,1.382824402E0,9.295669556E-1,5.528789461E0
4.610575375E0,4.916526031E0,1.439855804E0,1.215921478E0,5.265346902E0
4.620645375E0,4.636608124E0,1.421444092E0,1.527423706E0,5.084452908E0
4.630715375E0,4.552333374E0,1.350641327E0,1.703307953E0,5.044722899E0
4.640785375E0,4.733456726E0,1.338217163E0,1.795366516E0,5.236389852E0
4.650856375E0,5.066663818E0,1.340462494E0,1.821711731E0,5.548563380E0
4.660926375E0,5.451363831E0,1.309327240E0,1.719773712E0,5.864241388E0
4.670996375E0,6.081253967E0,1.324296112E0,1.446442108E0,6.389648252E0
4.681066375E0,6.852749634E0,1.339564362E0,1.174457703E0,7.080533957E0
4.691136375E0,7.425907745E0,1.303339691E0,1.096769257E0,7.618773064E0
4.701207375E0,8.139773254E0,1.382075958E0,1.299896851E0,8.357976694E0
4.711277375E0,8.837622070E0,1.465302887E0,1.669178925E0,9.112454921E0
4.721346500E0,9.263935547E0,1.314117279E0,2.097438354E0,9.588881775E0
4.731416500E0,9.579329681E0,1.088835754E0,2.578088837E0,9.979762647E0
4.741487500E0,9.923014984E0,1.065783691E0,3.083437958E0,1.044555939E1
4.751557500E0,1.024768982E1,1.171912994E0,3.519481201E0,1.089840698E1
4.761627500E0,1.058134598E1,1.359323273E0,3.759731598E0,1.131142008E1
4.771697500E0,1.080962128E1,1.586550751E0,3.866908722E0,1.158956593E1
4.781767500E0,1.091994186E1,1.653760986E0,3.782035217E0,1.167406725E1
4.791838500E0,1.094344299E1,1.517993317E0,3.624263306E0,1.162749039E1
4.801908500E0,1.119432129E1,1.403331757E0,3.458408203E0,1.180011680E1
4.811978500E0,1.162482605E1,1.318308563E0,3.370690613E0,1.217522375E1
4.822048500E0,1.188573349E1,1.113684082E0,3.411405945E0,1.241566121E1
4.832118500E0,1.216190918E1,7.744894409E-1,3.519630890E0,1.268462338E1
4.842189500E0,1.238255035E1,3.890409851E-1,3.686384125E0,1.292549164E1
4.852259500E0,1.252385651E1,5.628295898E-2,3.998485107E0,1.314678792E1
4.862329500E0,1.253732849E1,-1.007405090E-1,4.428091736E0,1.329671955E1
4.872399500E0,1.241233841E1,-1.004411316E-1,4.818779297E0,1.331528697E1
4.882470500E0,1.227148132E1,-8.382568359E-3,5.092110901E0,1.328604221E1
4.892540500E0,1.211326035E1,1.317260742E-2,4.924609222E0,1.307604779E1
4.902610500E0,1.200428696E1,-2.409988403E-1,4.354295197E0,1.277187819E1
4.912680500E0,1.244931152E1,-7.114704895E-1,3.832779694E0,1.304537266E1
4.922750500E0,1.341854599E1,-1.186432800E0,3.570225677E0,1.393597900E1
4.932821500E0,1.424752213E1,-1.506317596E0,3.625311127E0,1.477848978E1
4.942891500E0,1.464120346E1,-1.654808807E0,3.936214600E0,1.525113164E1
4.952961500E0,1.422566757E1,-1.615740051E0,4.256099396E0,1.493635216E1
4.963031500E0,1.319895264E1,-1.618135071E0,4.338877258E0,1.398772918E1
4.973102500E0,1.205143890E1,-1.775457916E0,4.343966675E0,1.293288355E1
4.983172500E0,1.100900665E1,-1.886976013E0,4.217779083E0,1.193937043E1
4.993242500E0,1.012090347E1,-1.923350372E0,4.032464447E0,1.106312493E1
5.003312500E0,9.522747345E0,-1.916913757E0,3.812122650E0,1.043501579E1
5.013382500E0,9.309590607E0,-1.922302551E0,3.561543732E0,1.015127175E1
5.023453500E0,9.459728394E0,-2.001338196E0,3.267255707E0,1.020621260E1
5.033523500E0,9.687554626E0,-1.913919983E0,3.036585388E0,1.033114975E1
5.043593500E0,9.809700623E0,-1.565744019E0,2.901266785E0,1.034887093E1
5.053663500E0,9.690249023E0,-1.172511749E0,2.930456085E0,1.019133371E1
5.063733500E0,9.360035706E0,-9.410929871E-1,2.993175659E0,9.871931166E0
5.073804500E0,8.881480865E0,-7.927514648E-1,3.144361267E0,9.454954523E0
5.083874500E0,8.371192017E0,-6.231541443E-1,3.403622131E0,9.058135596E0
5.093944500E0,7.828121338E0,-4.697232056E-1,3.628604279E0,8.641000670E0
5.104014500E0,7.197482758E0,-3.577560425E-1,3.712280273E0,8.106341484E0
5.114085500E0,6.533762970E0,-3.191363525E-1,3.595373383E0,7.464490359E0
5.124155500E0,5.934109955E0,-3.402424622E-1,3.258873138E0,6.778619330E0
5.134225500E0,5.456153870E0,-3.579057312E-1,2.839145966E0,6.161043854E0
5.144295500E0,5.188809814E0,-3.848497009E-1,2.397713928E0,5.728951795E0
5.154365500E0,5.145250397E0,-3.423381042E-1,2.070494385E0,5.556774606E0
5.164436500E0,5.303171997E0,-2.221380615E-1,2.004781036E0,5.673810497E0
5.174506500E0,5.559738464E0,5.987548828E-2,2.014211426E0,5.913655767E0
5.184576500E0,5.655090179E0,3.995191956E-1,2.040107574E0,6.025089165E0
5.194646500E0,5.595364380E0,6.553372192E-1,2.025288391E0,5.986598574E0
5.204716500E0,5.452561340E0,7.259902954E-1,1.992656250E0,5.850484254E0
5.214787500E0,5.281467133E0,6.791377258E-1,1.931283875E0,5.664360558E0
5.224857500E0,5.160967712E0,5.499563599E-1,1.873653717E0,5.518026638E0
5.234927500E0,5.275180206E0,4.231700134E-1,1.971849518E0,5.647547219E0
5.244997500E0,5.619164886E0,4.367916870E-1,2.194286957E0,6.048197769E0
5.255068500E0,6.204597473E0,5.227130127E-1,2.265987854E0,6.626081772E0
5.265138500E0,7.044949951E0,7.568261719E-1,2.334245911E0,7.460081075E0
5.275208500E0,7.862400055E0,1.293310547E0,2.412383423E0,8.325237569E0
5.285278500E0,8.447233887E0,1.889071655E0,2.353855133E0,8.970227759E0
5.295348500E0,8.841214600E0,2.147284698E0,2.203417969E0,9.361247669E0
5.305419500E0,8.973689117E0,2.083666992E0,2.055525513E0,9.438959140E0
5.315489500E0,8.975485382E0,1.910926208E0,2.009870453E0,9.394176710E0
5.325559500E0,8.837472382E0,1.756597137E0,2.106120300E0,9.253231561E0
5.335629500E0,8.608748016E0,1.593885498E0,2.211800537E0,9.030120431E0
5.345699500E0,8.568481750E0,1.391206970E0,2.266586609E0,8.971719523E0
5.355770500E0,8.675808563E0,1.189875641E0,2.333946533E0,9.062712877E0
5.365840500E0,8.942254486E0,1.095272369E0,2.207459564E0,9.275581631E0
5.375910500E0,9.291927338E0,1.015488281E0,2.011666718E0,9.561272566E0
5.385980500E0,9.635313263E0,8.578660583E-1,1.898052979E0,9.857880145E0
5.396051500E0,1.017494110E1,6.664141846E-1,1.972298584E0,1.038573522E1
5.406121500E0,1.081770447E1,3.924838257E-1,1.993404694E0,1.100683587E1
5.416191500E0,1.135718262E1,1.157093811E-1,1.935175781E0,1.152145351E1
5.426261500E0,1.197210388E1,-9.834548950E-2,2.202220459E0,1.217336100E1
5.436331500E0,1.267294647E1,-3.969744873E-1,2.706970825E0,1.296490849E1
5.446402500E0,1.328951431E1,-5.559439087E-1,3.240162048E0,1.369010279E1
5.456472500E0,1.380848511E1,-3.614982605E-1,3.610641632E0,1.427731330E1
5.466542500E0,1.399963760E1,8.831634521E-2,3.802093506E0,1.450701788E1
5.476612500E0,1.378064301E1,4.869374084E-1,3.797303467E0,1.430254325E1
5.486682500E0,1.337932755E1,5.474116516E-1,3.459456024E0,1.383018080E1
5.496753500E0,1.311183380E1,2.609074402E-1,2.965333557E0,1.344549967E1
5.506823500E0,1.315314789E1,3.113525391E-2,2.520608368E0,1.339252535E1
5.516893500E0,1.318922287E1,-2.065704346E-2,2.404599609E0,1.340664484E1
5.526963500E0,1.307920166E1,-0.000000000E0,2.610122223E0,1.333710066E1
5.537034500E0,1.286993683E1,-5.478607178E-2,2.918331299E0,1.319677737E1
5.547104500E0,1.255274643E1,-2.415975952E-1,3.263962555E0,1.297240394E1
5.557174500E0,1.215292786E1,-5.682183838E-1,3.516786804E0,1.266429299E1
5.567244500E0,1.172032745E1,-9.729766846E-1,3.686234436E0,1.232481576E1
5.577314500E0,1.135493729E1,-1.323847046E0,3.770209808E0,1.203751028E1
5.587385500E0,1.114178055E1,-1.575024719E0,3.498375092E0,1.178382811E1
5.597455500E0,1.108459946E1,-1.891766052E0,3.063379669E0,1.165467369E1
5.607525500E0,1.132065857E1,-2.132914581E0,2.583926697E0,1.180607099E1
5.617595500E0,1.152767807E1,-2.088307343E0,2.057172089E0,1.189455112E1
5.627666500E0,1.145477966E1,-1.895957336E0,1.443448334E0,1.170000745E1
5.637736500E0,1.117007172E1,-1.688638458E0,8.675958252E-1,1.133025704E1
5.647806500E0,1.066801575E1,-1.448388062E0,4.285588074E-1,1.077441649E1
5.657876500E0,9.964628448E0,-1.329535217E0,-4.071533203E-2,1.005301655E1
5.667946500E0,8.705596619E0,-1.384021912E0,-5.379812622E-1,8.831327928E0
5.678017500E0,8.134833527E0,-1.389111328E0,-4.004173279E-1,8.262292710E0
5.688087500E0,8.195008392E0,-1.165775757E0,6.677613831E-1,8.304402503E0
5.698157500E0,8.311915283E0,-8.611592102E-1,1.767524414E0,8.541292257E0
5.708227500E0,8.184081116E0,-4.511618042E-1,2.514321442E0,8.573479048E0
5.718297625E0,7.930658112E0,2.005828857E-2,2.820584564E0,8.417329606E0
5.728368625E0,7.549251251E0,4.010160828E-1,2.770139465E0,8.051439686E0
5.738438625E0,7.049889679E0,6.372248840E-1,2.329306183E0,7.452024378E0
5.748508625E0,6.342460785E0,6.740483093E-1,1.575024719E0,6.569768093E0
5.758578625E0,5.690566406E0,6.851252747E-1,8.635542297E-1,5.796349590E0
5.768649625E0,5.212610321E0,8.192463684E-1,4.411326599E-1,5.295004154E0
5.778719625E0,4.861739960E0,9.618997192E-1,3.131488037E-1,4.965866357E0
5.788789625E0,4.607568512E0,1.019080811E0,3.950285339E-1,4.735426151E0
5.798859625E0,4.459226990E0,1.035546570E0,5.617817688E-1,4.612229483E0
5.808929625E0,4.532275085E0,1.121168518E0,7.958949280E-1,4.736241657E0
5.819000625E0,4.757706299E0,1.286724243E0,1.069825287E0,5.043407048E0
5.829070625E0,5.025499420E0,1.319655762E0,1.335672455E0,5.364807234E0
5.839140625E0,5.381459198E0,1.244961090E0,1.368454285E0,5.690579790E0
5.849210625E0,5.796246643E0,1.240021362E0,1.180295563E0,6.043775785E0
5.859280625E0,6.258485413E0,1.275647278E0,9.984237671E-1,6.464732450E0
5.869351625E0,6.692283325E0,1.310824127E0,8.849597168E-1,6.876632148E0
5.879421625E0,7.128176880E0,1.423988800E0,8.431965637E-1,7.317761282E0
5.889491625E0,7.652536469E0,1.503174133E0,9.340576172E-1,7.854508929E0
5.899561625E0,8.217761078E0,1.588197327E0,1.132095795E0,8.446041012E0
5.909632625E0,8.665779419E0,1.683998108E0,1.385369110E0,8.935929170E0
5.919702625E0,9.012159119E0,1.631607056E0,1.693727875E0,9.313960902E0
5.929772625E0,9.282047882E0,1.572779388E0,2.108515320E0,9.647584399E0
5.939842625E0,9.342671814E0,1.663041687E0,2.572700043E0,9.832090815E0
5.949912625E0,9.359886017E0,1.753004608E0,2.952759705E0,9.969918820E0
5.959983625E0,9.557026062E0,1.772613831E0,3.268752594E0,1.025493298E1
5.970053625E0,9.926906891E0,1.721869354E0,3.536096649E0,1.067765396E1
5.980123625E0,1.033855087E1,1.594933319E0,3.725153503E0,1.110433317E1
5.990193625E0,1.094553864E1,1.429227905E0,3.722758484E0,1.164931067E1
6.000264625E0,1.163590302E1,1.356628876E0,3.781885529E0,1.231005033E1
6.010334625E0,1.241997253E1,1.318308563E0,3.870052185E0,1.307558638E1
6.020404625E0,1.316961365E1,1.122216339E0,3.887715454E0,1.377724300E1
6.030474625E0,1.380115036E1,9.306147766E-1,3.958069153E0,1.438763728E1
6.040544625E0,1.411534698E1,8.219407654E-1,4.106410675E0,1.472349197E1
6.050615625E0,1.392434418E1,8.704399109E-1,4.400998077E0,1.462921086E1
6.060685625E0,1.331256638E1,9.536668396E-1,4.709805908E0,1.415330971E1
6.070755625E0,1.255768616E1,8.581654358E-1,4.994962921E0,1.354184567E1
6.080825625E0,1.200877762E1,5.797444153E-1,5.123994598E0,1.306913020E1
6.090895625E0,1.178155014E1,2.883004761E-1,4.946613464E0,1.278111989E1
6.100966625E0,1.189546326E1,5.284011841E-2,4.749473419E0,1.280868205E1
6.111036625E0,1.239302856E1,-1.404080200E-1,4.671784973E0,1.324509140E1
6.121106625E0,1.306258621E1,-2.815644836E-1,4.749174042E0,1.390198156E1
6.131176625E0,1.358125763E1,-3.242257690E-1,4.886288910E0,1.443715694E1
6.141247625E0,1.354578140E1,-3.183879089E-1,4.876708832E0,1.440041158E1
6.151317625E0,1.278416519E1,-4.577481079E-1,4.705764313E0,1.363043032E1
6.161387625E0,1.175325897E1,-7.030879211E-1,4.512815552E0,1.260947792E1
6.171457625E0,1.082369202E1,-9.063652039E-1,4.326902161E0,1.169170172E1
6.181527625E0,1.008842102E1,-1.112037506E0,4.065845032E0,1.093361614E1
6.191598625E0,9.661508789E0,-1.355880432E0,3.657943268E0,1.041939119E1
6.201668625E0,9.592651978E0,-1.618135071E0,3.344345398E0,1.028698105E1
6.211738625E0,9.879605255E0,-1.776805115E0,3.070714417E0,1.049728172E1
6.221808625E0,1.017434235E1,-1.664688263E0,2.721490631E0,1.066278296E1
6.231878625E0,1.018317398E1,-1.301543427E0,2.334245911E0,1.052804595E1
6.241949625E0,9.842482452E0,-9.669891357E-1,2.024539948E0,1.009496364E1
6.252019625E0,9.238039398E0,-8.005352783E-1,1.866468658E0,9.458643344E0
6.262089625E0,8.544681244E0,-7.348219299E-1,1.923050995E0,8.789178913E0
6.272159625E0,7.873177643E0,-6.810836792E-1,2.103425903E0,8.177725949E0
6.282230625E0,7.210505676E0,-6.553372192E-1,2.286495209E0,7.592688543E0
6.292300625E0,6.527326355E0,-6.276448059E-1,2.392175446E0,6.980145465E0
6.302370625E0,5.908812561E0,-5.685177612E-1,2.451601868E0,6.422431786E0
6.312440625E0,5.509742432E0,-5.116360474E-1,2.481689301E0,6.064471526E0
6.322510625E0,5.225633240E0,-4.601431274E-1,2.443069611E0,5.786844008E0
6.332581625E0,5.129832458E0,-4.026626587E-1,2.419568481E0,5.686090916E0
6.342651625E0,5.227728882E0,-3.287164307E-1,2.476599884E0,5.794027161E0
6.352721625E0,5.411247253E0,-1.041833496E-1,2.442919922E0,5.938039134E0
6.362791625E0,5.608836365E0,2.258802795E-1,2.258802795E0,6.050806338E0
6.372862625E0,5.809269562E0,4.538562012E-1,1.972298584E0,6.151711957E0
6.382932625E0,5.991440735E0,6.423143005E-1,1.750310211E0,6.274831916E0
6.393002625E0,6.099815369E0,8.120613098E-1,1.650018768E0,6.371008793E0
6.403072625E0,6.106850739E0,9.201365662E-1,1.598226471E0,6.379232328E0
6.413142625E0,6.101012878E0,9.243278503E-1,1.691632233E0,6.398309130E0
6.423213625E0,6.184239807E0,8.527766418E-1,1.940115509E0,6.537285230E0
6.433283625E0,6.349645844E0,8.993298340E-1,2.270328827E0,6.803027963E0
6.443353625E0,6.598727875E0,9.521699524E-1,2.463277588E0,7.107571573E0
6.453423625E0,7.078929291E0,9.738748169E-1,2.501148834E0,7.570694655E0
6.463493625E0,7.708220673E0,9.723779297E-1,2.487078094E0,8.157679954E0
6.473564625E0,8.390950928E0,1.061592407E0,2.508633270E0,8.822033597E0
6.483634625E0,9.161249084E0,1.263372803E0,2.531835022E0,9.588262836E0
6.493704625E0,9.938881989E0,1.412762146E0,2.483635254E0,1.034145619E1
6.503774625E0,1.048554520E1,1.454824677E0,2.523003387E0,1.088249599E1
6.513844625E0,1.094464050E1,1.479822693E0,2.440375214E0,1.131063491E1
6.523915625E0,1.129491211E1,1.529818726E0,2.349963226E0,1.163777092E1
6.533985625E0,1.157872192E1,1.490749969E0,2.503094788E0,1.193962396E1
6.544055625E0,1.180834442E1,1.428479462E0,2.778671722E0,1.221468657E1
6.554125625E0,1.183783310E1,1.396895142E0,3.083587646E0,1.231235645E1
6.564196625E0,1.181148788E1,1.284029846E0,3.242706757E0,1.231564557E1
6.574266625E0,1.189321793E1,9.030720520E-1,3.118614807E0,1.232841961E1
6.584336625E0,1.224753113E1,5.529501343E-1,2.806813202E0,1.257720052E1
6.594406625E0,1.280078064E1,6.400689697E-1,2.451901245E0,1.304919511E1
6.604476625E0,1.339863739E1,9.327104187E-1,1.862576752E0,1.355959530E1
6.614547625E0,1.381013168E1,1.098715210E0,1.385219421E0,1.392284975E1
6.624617625E0,1.367645966E1,9.957293701E-1,1.470392303E0,1.379126822E1
6.634687625E0,1.294582901E1,1.052611084E0,1.971999207E0,1.313739928E1
6.644757625E0,1.193468170E1,1.111887817E0,2.517764282E0,1.224794100E1
6.654827625E0,1.109612549E1,1.006956024E0,2.752476196E0,1.147667576E1
6.664898625E0,1.057820251E1,6.468049622E-1,2.600991211E0,1.091246445E1
6.674968625E0,1.069121750E1,3.793112183E-1,2.302212524E0,1.094286028E1
6.685038625E0,1.145507904E1,4.462220764E-1,2.100282440E0,1.165457577E1
6.695108625E0,1.226339813E1,4.987628174E-1,2.119741974E0,1.245524003E1
6.705179625E0,1.293071045E1,5.677693176E-1,2.507136383E0,1.318375393E1
6.715249625E0,1.332244583E1,7.318281555E-1,3.058290253E0,1.368854538E1
6.725319833E0,1.325613373E1,8.331674194E-1,3.390599213E0,1.370822426E1
6.735389833E0,1.254765701E1,6.511459351E-1,3.448977814E0,1.302931831E1
6.745459833E0,1.143831390E1,1.288819885E-1,3.403173065E0,1.193453905E1
6.755530833E0,1.038794815E1,-4.760101318E-1,3.338058472E0,1.092147823E1
6.765600833E0,9.680818634E0,-8.458909607E-1,3.242257690E0,1.024431627E1
6.775670833E0,9.229656830E0,-1.078956299E0,3.028951263E0,9.773702351E0
6.785740833E0,9.033863983E0,-1.455124054E0,2.694696350E0,9.538840228E0
6.795811833E0,9.023236084E0,-1.695673828E0,2.266436920E0,9.456787799E0
6.805881833E0,9.099277954E0,-1.558409271E0,1.522633667E0,9.356490369E0
6.815951833E0,9.392817535E0,-1.261426849E0,6.557862854E-1,9.499803924E0
6.826021833E0,9.700128479E0,-8.833131409E-1,-3.098556519E-2,9.740312866E0
6.836091833E0,9.780810699E0,-5.004093933E-1,-5.590873718E-1,9.809548725E0
6.846162833E0,9.586814117E0,-1.838177490E-1,-5.972579956E-1,9.607159362E0
6.856232833E0,9.230854340E0,1.062789917E-2,8.472381592E-2,9.231249261E0
6.866302833E0,8.806486816E0,1.736389160E-2,1.153501282E0,8.881727127E0
6.876372833E0,8.092321930E0,4.520599365E-2,2.339485016E0,8.423829767E0
6.886442833E0,7.435637512E0,2.469863892E-1,3.272345123E0,8.127604204E0
6.896513833E0,6.857240295E0,4.813989258E-1,3.673510895E0,7.794111347E0
6.906583833E0,6.329737244E0,6.607260132E-1,3.610641632E0,7.317025723E0
6.916653833E0,5.917195129E0,7.714956665E-1,3.219505005E0,6.780384667E0
6.926723833E0,5.753735046E0,8.601113892E-1,2.589914246E0,6.368117020E0
6.936794833E0,5.553152161E0,1.107696533E0,1.895957336E0,5.971527841E0
6.946864833E0,5.178930359E0,1.312470703E0,1.191821594E0,5.473969101E0
6.956934833E0,4.882846069E0,1.338965607E0,5.584886169E-1,5.093812341E0
6.967004833E0,4.738546143E0,1.312470703E0,3.261717224E-1,4.927756780E0
6.977074833E0,4.797972565E0,1.337618408E0,4.831951904E-1,5.004322265E0
6.987145833E0,4.929548950E0,1.427880707E0,9.132508850E-1,5.212803789E0
6.997215833E0,5.007985840E0,1.437760162E0,1.399589539E0,5.394990948E0
7.007285833E0,5.077591095E0,1.330133972E0,1.647474060E0,5.501396049E0
7.017355833E0,5.180876312E0,1.190175018E0,1.599423981E0,5.551229864E0
7.027425833E0,5.463189240E0,1.093027039E0,1.352287903E0,5.733221376E0
7.037496833E0,5.846841431E0,1.079555054E0,1.006506958E0,6.030261195E0
7.047566833E0,6.324198761E0,1.148561554E0,5.492079163E-1,6.451070682E0
7.057636833E0,6.813381500E0,1.212778015E0,1.883084106E-1,6.923038209E0
7.067706833E0,7.316036224E0,1.169817352E0,1.381626892E-1,7.410259618E0
7.077776833E0,7.904312897E0,1.122366028E0,4.707710266E-1,7.997467926E0
7.087847833E0,8.469537506E0,1.076710968E0,1.178050232E0,8.618594690E0
7.097917833E0,8.954678650E0,1.113235016E0,1.905687103E0,9.222646326E0
7.107987833E0,9.283245392E0,1.204844513E0,2.455942841E0,9.677910443E0
7.118057833E0,9.486372986E0,1.360371094E0,2.892135773E0,1.001031125E1
7.128128833E0,9.752968597E0,1.556313629E0,3.174149323E0,1.037389669E1
7.138198833E0,1.001297791E1,1.699715424E0,3.194956055E0,1.064690111E1
7.148268833E0,1.029274612E1,1.883533173E0,3.034040680E0,1.089466488E1
7.158338833E0,1.075947556E1,2.039508820E0,2.821482697E0,1.130869909E1
7.168408833E0,1.133907028E1,2.034569092E0,2.919828186E0,1.188441765E1
7.178479833E0,1.198841995E1,1.937121735E0,2.939736786E0,1.249466710E1
7.188549833E0,1.255603958E1,1.844763794E0,3.025508423E0,1.304649319E1
7.198619833E0,1.301648209E1,1.726809082E0,3.355122986E0,1.355239926E1
7.208689833E0,1.342573105E1,1.488953705E0,3.607198792E0,1.398138478E1
7.218759833E0,1.374187363E1,1.221160583E0,3.719764709E0,1.428870090E1
7.228830833E0,1.387449783E1,1.191372528E0,3.891906738E0,1.445918382E1
7.238900833E0,1.386791153E1,1.483864288E0,4.263583832E0,1.458420277E1
7.248970833E0,1.368080063E1,1.788480835E0,4.658911743E0,1.456256942E1
7.259040833E0,1.342273727E1,1.888173523E0,4.805606689E0,1.438154828E1
7.269111833E0,1.334175568E1,1.780098267E0,4.547543335E0,1.420743977E1
7.279181833E0,1.354697891E1,1.509760437E0,3.997736664E0,1.420499605E1
7.289251833E0,1.408705582E1,1.229243774E0,3.485352173E0,1.456378596E1
7.299321833E0,1.492591141E1,1.185534668E0,3.060984650E0,1.528260288E1
7.309391833E0,1.564142349E1,1.288969574E0,2.765648804E0,1.593626006E1
7.319462833E0,1.580682953E1,1.140628052E0,2.500849457E0,1.604403753E1
7.329532833E0,1.496468079E1,7.548802185E-1,2.423310699E0,1.517840406E1
7.339602833E0,1.327738953E1,2.472857666E-1,2.893482971E0,1.359126435E1
7.349672833E0,1.172032745E1,-2.245330811E-1,3.378025360E0,1.219948958E1
7.359742833E0,1.051892578E1,-6.129753113E-1,3.609144745E0,1.113774951E1
7.369813833E0,9.744885406E0,-8.601113892E-1,3.810476074E0,1.049868140E1
7.379883833E0,9.557774506E0,-9.524693298E-1,3.977678375E0,1.039616163E1
7.389953833E0,9.877509613E0,-1.150208130E0,3.769012299E0,1.063454882E1
7.400023833E0,1.029169830E1,-1.269360352E0,2.957100677E0,1.078307814E1
7.410094833E0,1.042072998E1,-1.343156891E0,2.013013916E0,1.069803294E1
7.420164833E0,1.031639694E1,-1.429227905E0,1.179846497E0,1.048154454E1
7.430234833E0,1.015772690E1,-1.524280243E0,1.028062134E0,1.032277859E1
7.440304833E0,9.872120819E0,-1.636696472E0,1.603315887E0,1.013450377E1
7.450374833E0,9.314230957E0,-1.592987366E0,2.441572723E0,9.759804528E0
7.460445833E0,8.599467316E0,-1.491348724E0,3.425626373E0,9.376026620E0
7.470515833E0,7.843988342E0,-1.435514832E0,4.160597992E0,8.994411131E0
7.480585833E0,7.043453064E0,-1.317260742E0,4.458179169E0,8.439239802E0
7.490655833E0,6.323300629E0,-1.140927429E0,4.307891693E0,7.735875974E0
7.500725833E0,5.562133484E0,-9.406439209E-1,3.839665375E0,6.823867677E0
7.510796833E0,5.141208801E0,-7.601193237E-1,3.260370026E0,6.135130156E0
7.520866833E0,4.860392761E0,-4.116439819E-1,2.454745331E0,5.460644944E0
7.530936833E0,4.619393921E0,4.505630493E-2,1.603315887E0,4.889933752E0
7.541006833E0,4.517755280E0,3.116519165E-1,1.271006927E0,4.703477255E0
7.551077833E0,4.599185944E0,4.246669006E-1,1.366059265E0,4.816531038E0
7.561147833E0,4.737498322E0,7.438032532E-1,1.596430206E0,5.054277696E0
7.571217833E0,4.985382843E0,9.776170349E-1,1.609303436E0,5.329130765E0
7.581287833E0,4.977299652E0,9.280700684E-1,1.614841919E0,5.314371111E0
7.591357833E0,4.978646851E0,9.717791748E-1,1.632355499E0,5.328776943E0
7.601428833E0,5.102888489E0,1.082399139E0,1.389410706E0,5.398288704E0
7.611498833E0,5.129682770E0,1.210981750E0,9.810598755E-1,5.361212605E0
7.621568833E0,5.234913940E0,1.330433350E0,6.586303711E-1,5.441339066E0
7.631638833E0,5.652545471E0,1.569635925E0,5.346881104E-1,5.890748562E0
7.641708833E0,6.222709808E0,1.877845001E0,5.709127808E-1,6.524903111E0
7.651779833E0,6.614445190E0,2.143841858E0,8.114625549E-1,7.000386744E0
7.661849833E0,7.200626221E0,2.205064545E0,1.336121521E0,7.648303625E0
7.671919833E0,8.111033020E0,2.005828857E0,2.049537964E0,8.603069913E0
7.681989833E0,8.896749115E0,1.740730133E0,2.851719818E0,9.503398978E0
7.692059833E0,9.406888275E0,1.629810791E0,3.535198517E0,1.018054315E1
7.702130833E0,9.921518097E0,1.544488220E0,3.909869385E0,1.077539066E1
7.712200833E0,1.027508286E1,1.441951447E0,3.672612762E0,1.100657241E1
7.722270875E0,1.067295547E1,1.281335449E0,3.305875397E0,1.124644883E1
7.732340875E0,1.110825027E1,1.085841980E0,3.016227722E0,1.156157025E1
7.742411875E0,1.135673355E1,7.957452393E-1,2.720592499E0,1.170513695E1
7.752481875E0,1.157078842E1,4.073030090E-1,2.577789459E0,1.186145181E1
7.762551875E0,1.182525925E1,-8.382568359E-3,2.667153625E0,1.212231558E1
7.772621875E0,1.207104813E1,-3.459306335E-1,2.872975616E0,1.241305199E1
7.782691875E0,1.217597992E1,-6.360273743E-1,3.255130920E0,1.261962341E1
7.792762875E0,1.205772583E1,-9.048683167E-1,3.577859802E0,1.260986200E1
7.802832875E0,1.185714294E1,-9.476792908E-1,3.827241211E0,1.249550760E1
7.812902875E0,1.156135803E1,-6.358776855E-1,4.047133942E0,1.226575041E1
7.822972875E0,1.122845032E1,-1.977388000E-1,3.952830048E0,1.190554755E1
7.833042875E0,1.089763824E1,1.017883301E-1,3.573967896E0,1.146918161E1
7.843113875E0,1.076351715E1,2.597099304E-1,2.977757721E0,1.117084561E1
7.853183875E0,1.111812973E1,3.501219177E-1,2.317331085E0,1.136245649E1
7.863253875E0,1.205967178E1,1.008901978E-1,1.813329163E0,1.219565599E1
7.873323875E0,1.338037537E1,-2.713856506E-1,1.627116394E0,1.348167656E1
7.883393875E0,1.449929855E1,-3.360511780E-1,1.863774261E0,1.462245682E1
7.893464875E0,1.506197845E1,-1.658551025E-1,2.342029724E0,1.524387766E1
7.903534875E0,1.483594849E1,-3.742218018E-3,2.830314331E0,1.510351154E1
7.913604875E0,1.380788635E1,-1.589694214E-1,3.270099792E0,1.419072054E1
7.923674875E0,1.246936981E1,-7.150630188E-1,3.297343140E0,1.291777730E1
7.933745875E0,1.137679184E1,-1.212628326E0,2.937192078E0,1.181223761E1
7.943815875E0,1.053120026E1,-1.518891449E0,2.570604401E0,1.094628782E1
7.953885875E0,1.006746460E1,-1.772913208E0,2.142344971E0,1.044445818E1
7.963955875E0,9.971963196E0,-1.974843292E0,1.640887756E0,1.029721169E1
7.974025875E0,1.009291168E1,-2.061063995E0,1.075812836E0,1.035723053E1
7.984096875E0,1.021026764E1,-1.872007141E0,6.336323547E-1,1.039978202E1
7.994166875E0,1.006881180E1,-1.458417206E0,4.237687683E-1,1.018270749E1
8.004236875E0,9.611363068E0,-9.505233765E-1,3.149450684E-1,9.663383729E0
8.014306875E0,9.125323792E0,-7.122189331E-1,1.652563477E-1,9.154567154E0
8.024376875E0,8.516090698E0,-6.527925110E-1,7.753875732E-2,8.541425590E0
8.034447875E0,7.825876007E0,-5.879772949E-1,1.663041687E-1,7.849694876E0
8.044517875E0,7.303462372E0,-6.544390869E-1,5.776487732E-1,7.355442287E0
8.054587875E0,6.904841309E0,-6.866221619E-1,1.261277161E0,7.052595520E0
8.064657875E0,6.448889465E0,-3.941304016E-1,2.006577301E0,6.765343049E0
8.074728875E0,6.115832062E0,-2.829116821E-2,2.519261169E0,6.614444726E0
8.084798875E0,5.961053925E0,8.592132568E-2,2.696941681E0,6.543320319E0
8.094868875E0,6.025569763E0,8.831634521E-3,2.675835571E0,6.593001211E0
8.104938875E0,6.353388062E0,1.071771240E-1,2.744692383E0,6.921731219E0
8.115008875E0,6.594985657E0,4.601431274E-1,2.890638885E0,7.215355894E0
8.125079875E0,6.677913208E0,8.915460205E-1,2.699037323E0,7.257698092E0
8.135149875E0,6.527026978E0,1.049317932E0,2.186952209E0,6.963182409E0
8.145219875E0,6.192023621E0,9.620494080E-1,1.724863129E0,6.499372923E0
8.155289875E0,5.936504974E0,8.722361755E-1,1.364861755E0,6.153514026E0
8.165359875E0,5.765710144E0,8.791218567E-1,1.167871399E0,5.948125109E0
8.175430875E0,5.708229675E0,9.394464111E-1,1.018182678E0,5.873937483E0
8.185500875E0,5.878575439E0,1.025367737E0,1.002315674E0,6.050922649E0
8.195570875E0,6.281088409E0,1.087638245E0,1.229842529E0,6.492113770E0
8.205640875E0,6.772815857E0,1.119671631E0,1.419647827E0,7.009999939E0
8.215710875E0,7.320377197E0,1.291963348E0,1.499731293E0,7.583289890E0
8.225781875E0,7.945926361E0,1.474583588E0,1.516047363E0,8.222562989E0
8.235851875E0,8.529412994E0,1.497336273E0,1.438358917E0,8.778483828E0
8.245921875E0,8.944050751E0,1.315165100E0,1.328637085E0,9.137339852E0
8.255991875E0,9.262588348E0,1.142124939E0,1.273401947E0,9.419211475E0
8.266062875E0,9.605974274E0,1.074166260E0,1.379980316E0,9.763857873E0
8.276132875E0,9.909992065E0,1.093476105E0,1.628912659E0,1.010232593E1
8.286202875E0,1.020442978E1,1.188977509E0,2.002685394E0,1.046684305E1
8.296272875E0,1.049602341E1,1.322050781E0,2.470462646E0,1.086358648E1
8.306342875E0,1.073537567E1,1.422192535E0,2.952460327E0,1.122443515E1
8.316413875E0,1.095616653E1,1.430874481E0,3.277584229E0,1.152508331E1
8.326483875E0,1.119447098E1,1.346000977E0,3.410507812E0,1.177962065E1
8.336553875E0,1.141466309E1,1.264720001E0,3.383264465E0,1.197249049E1
8.346623875E0,1.158081757E1,1.285975800E0,3.198099518E0,1.208291810E1
8.356693875E0,1.181103882E1,1.334474945E0,2.957100677E0,1.224850627E1
8.366764875E0,1.215023346E1,1.165925446E0,2.889291687E0,1.254334731E1
8.376834875E0,1.269315445E1,8.452922058E-1,2.979104919E0,1.306544124E1
8.386904875E0,1.328397583E1,6.489006042E-1,3.217858429E0,1.368355578E1
8.396974875E0,1.375774063E1,5.331912231E-1,3.295397186E0,1.415695457E1
8.407044875E0,1.392239822E1,5.442681885E-1,3.437601471E0,1.435083635E1
8.417115875E0,1.365849701E1,6.200106812E-1,3.779041443E0,1.418520737E1
8.427185875E0,1.314132248E1,6.331832886E-1,4.083358612E0,1.377567041E1
8.437255875E0,1.242970230E1,4.665797424E-1,4.060755615E0,1.308453026E1
8.447325875E0,1.191462341E1,1.190025330E-1,3.778292999E0,1.249991643E1
8.457396875E0,1.178663956E1,-1.847158813E-1,3.482508087E0,1.229173928E1
8.467466875E0,1.204290665E1,-4.376898193E-1,3.265309753E0,1.248540831E1
8.477536875E0,1.246203506E1,-7.053332520E-1,3.322041779E0,1.291649235E1
8.487606875E0,1.256517059E1,-8.707392883E-1,3.465144196E0,1.306326618E1
8.497676875E0,1.213077393E1,-1.002914429E0,3.560645599E0,1.268225968E1
8.507747875E0,1.140029297E1,-1.219214630E0,3.436553650E0,1.196925499E1
8.517817875E0,1.054826477E1,-1.544039154E0,3.264261932E0,1.114923103E1
8.527887875E0,9.743987274E0,-1.697769470E0,3.126548309E0,1.037318724E1
8.537957875E0,9.105115814E0,-1.733694763E0,3.034938812E0,9.752932129E0
8.548027875E0,8.802145844E0,-1.900897064E0,2.817590790E0,9.435570940E0
8.558098875E0,8.997190247E0,-2.114353180E0,2.549348602E0,9.587444915E0
8.568168875E0,9.638456726E0,-2.080074463E0,2.376158752E0,1.014261743E1
8.578238875E0,1.030786469E1,-1.836680603E0,2.187850342E0,1.069636196E1
8.588308875E0,1.067235672E1,-1.544039154E0,1.981130219E0,1.096394691E1
8.598379875E0,1.051533325E1,-1.229243774E0,1.804946594E0,1.073969766E1
8.608449875E0,1.011252090E1,-9.304650879E-1,1.684147797E0,1.029393987E1
8.618519875E0,9.603429565E0,-6.406677246E-1,1.745071106E0,9.781696566E0
8.628589875E0,9.024732971E0,-4.366419983E-1,1.843566284E0,9.221453144E0
8.638659875E0,8.434959412E0,-3.713777161E-1,1.915566559E0,8.657705061E0
8.648730875E0,7.804620209E0,-2.508782959E-1,2.110760651E0,8.088902710E0
8.658800875E0,7.179220734E0,-6.765930176E-2,2.351909180E0,7.554949696E0
8.668870875E0,6.626420288E0,3.008743286E-2,2.615511017E0,7.123991084E0
8.678940875E0,6.272256775E0,1.210981750E-1,2.896027679E0,6.909619826E0
8.689010875E0,6.091732178E0,3.547622681E-1,3.200644226E0,6.890513816E0
8.699081875E0,6.098917236E0,6.310876465E-1,3.406316528E0,7.014132545E0
8.709151875E0,6.174809418E0,8.099656677E-1,3.345842285E0,7.069581057E0
8.719221875E0,6.223308563E0,8.957373047E-1,3.160677338E0,7.037172445E0
8.729291333E0,6.279292145E0,1.021026764E0,3.007096710E0,7.036663706E0
8.739361333E0,6.170318756E0,1.122815094E0,2.820135498E0,6.876533394E0
8.749432333E0,5.984555054E0,1.163530426E0,2.686313782E0,6.662205639E0
8.759502333E0,5.675747223E0,1.145268402E0,2.422113190E0,6.276334803E0
8.769572333E0,5.325475616E0,1.212328949E0,1.982028351E0,5.810238240E0
8.779642333E0,5.438490601E0,1.438358917E0,1.618135071E0,5.853581595E0
8.789712333E0,5.823190613E0,1.529818726E0,1.361867981E0,6.172890623E0
8.799783333E0,6.317013702E0,1.676663361E0,1.095871124E0,6.626974850E0
8.809853333E0,6.854845276E0,1.942510529E0,1.291663971E0,7.240900961E0
8.819923333E0,7.495213623E0,2.132764893E0,1.881138153E0,8.016582445E0
8.829993333E0,8.165519714E0,2.208058319E0,2.375859375E0,8.786122098E0
8.840064333E0,8.691525879E0,2.150877228E0,2.693947906E0,9.350200547E0
8.850134333E0,9.103169861E0,1.961670685E0,2.678829346E0,9.689787410E0
8.860204333E0,9.471254425E0,1.622476044E0,2.542163544E0,9.939803035E0
8.870274333E0,9.809101868E0,1.243314514E0,2.408192139E0,1.017662517E1
8.880344333E0,1.017000137E1,1.086440735E0,2.289488983E0,1.048098474E1
8.890415333E0,1.059526703E1,1.033899994E0,2.243085480E0,1.087934121E1
8.900485333E0,1.096395035E1,8.797206116E-1,2.230960693E0,1.122315915E1
8.910555333E0,1.115734818E1,6.406677246E-1,2.332449646E0,1.141653164E1
8.920625333E0,1.115525253E1,3.465293884E-1,2.637515259E0,1.146805251E1
8.930695333E0,1.114252899E1,9.505233765E-2,2.952909393E0,1.152756094E1
8.940766333E0,1.112456635E1,-2.749781799E-1,3.197650452E0,1.157827957E1
8.950836333E0,1.116767670E1,-6.560856628E-1,3.327280884E0,1.167125740E1
8.960906333E0,1.130613876E1,-8.821156311E-1,3.307671661E0,1.181302643E1
8.970976333E0,1.145687531E1,-9.154962158E-1,3.269650726E0,1.194942429E1
8.981046333E0,1.170386169E1,-7.556286621E-1,3.238964539E0,1.216726118E1
8.991117333E0,1.193797485E1,-6.487509155E-1,3.111429749E0,1.235383003E1
9.001187333E0,1.196611633E1,-7.923023987E-1,2.774929504E0,1.230918019E1
9.011257333E0,1.196342194E1,-9.819580078E-1,2.455942841E0,1.225232064E1
9.021327333E0,1.217777618E1,-1.010548553E0,2.325264587E0,1.243890255E1
9.031397333E0,1.259106674E1,-8.945397949E-1,2.523153076E0,1.287250809E1
9.041468333E0,1.288685165E1,-6.966513062E-1,2.988684998E0,1.324720750E1
9.051538333E0,1.292337570E1,-5.703140259E-1,3.478167114E0,1.339539264E1
9.061608333E0,1.272758286E1,-5.706134033E-1,3.893104248E0,1.332190773E1
9.071678333E0,1.243853394E1,-6.426136780E-1,4.198768616E0,1.314380982E1
9.081749333E0,1.201865707E1,-8.119116211E-1,4.293521576E0,1.278834023E1
9.091819333E0,1.157512939E1,-1.001118164E0,4.074227600E0,1.231199369E1
9.101889333E0,1.125419678E1,-1.098415833E0,3.414250031E0,1.181188240E1
9.111959333E0,1.111154343E1,-1.183738403E0,2.525398407E0,1.145623285E1
9.122029333E0,1.120045853E1,-1.183289337E0,1.730251923E0,1.139492065E1
9.132100333E0,1.143996048E1,-1.040186920E0,1.073268127E0,1.153718289E1
9.142170333E0,1.171523804E1,-7.020401001E-1,5.197192383E-1,1.174775598E1
9.152240333E0,1.180071030E1,-2.954855347E-1,1.127156067E-1,1.180494727E1
9.162310333E0,1.147139511E1,-6.691085815E-2,-1.474433899E-1,1.147253775E1
9.172380333E0,1.066442322E1,2.649490356E-2,-1.320254517E-1,1.066527333E1
9.182451333E0,9.742340698E0,-3.203338623E-2,2.646496582E-1,9.745987270E0
9.192521333E0,9.012757874E0,-1.646575928E-1,9.720785522E-1,9.066523773E0
9.202591333E0,8.537795563E0,-2.676434326E-1,1.747466125E0,8.718900386E0
9.212661333E0,8.348738708E0,-1.830693054E-1,2.414479065E0,8.692793656E0
9.222731333E0,8.246651001E0,1.764830017E-1,2.918331299E0,8.749574650E0
9.232802333E0,8.143814850E0,5.069956970E-1,2.970722351E0,8.683545142E0
9.242872333E0,7.925269318E0,6.996450806E-1,2.713407440E0,8.406067864E0
9.252942333E0,7.682773590E0,9.083111572E-1,2.294428711E0,8.069352037E0
9.263012333E0,7.328460388E0,1.085093536E0,1.889221344E0,7.645450734E0
9.273082333E0,6.853049011E0,1.173709259E0,1.553170166E0,7.124199024E0
9.283153333E0,6.291716309E0,1.214723969E0,1.380130005E0,6.554846090E0
9.293223333E0,5.616171112E0,1.219214630E0,1.357077942E0,5.905042152E0
9.303293333E0,4.952451324E0,1.224004669E0,1.382974091E0,5.285601090E0
9.313363333E0,4.398453369E0,1.189875641E0,1.443148956E0,4.779631261E0
9.323434333E0,4.008065186E0,1.140178986E0,1.401535492E0,4.396464078E0
9.333504333E0,3.841761017E0,1.075363770E0,1.332079926E0,4.205944826E0
9.343574333E0,3.898792419E0,1.086590424E0,1.241518250E0,4.233512566E0
9.353644333E0,4.198319550E0,1.125509491E0,1.022972717E0,4.465325502E0
9.363714333E0,4.728816376E0,1.229992218E0,7.764353943E-1,4.947467746E0
9.373785333E0,5.454207916E0,1.362167358E0,5.653742981E-1,5.650091327E0
9.383855333E0,6.336772614E0,1.544338531E0,4.640350342E-1,6.538730547E0
9.393925333E0,7.003037109E0,1.743723907E0,4.767585754E-1,7.232592935E0
9.403995333E0,7.455396423E0,1.814975739E0,5.219645691E-1,7.690872497E0
9.414065333E0,8.018675079E0,1.754351807E0,6.277944946E-1,8.232315969E0
9.424136333E0,8.576714630E0,1.580263824E0,9.184899902E-1,8.769315336E0
9.434206333E0,9.030870209E0,1.445693665E0,1.469643860E0,9.263179798E0
9.444276333E0,9.504036255E0,1.512305145E0,2.266586609E0,9.886919988E0
9.454346333E0,9.928254089E0,1.722019043E0,3.109034729E0,1.054522052E1
9.464416333E0,1.023391846E1,1.992805939E0,3.740571442E0,1.107683336E1
9.474487333E0,1.046922913E1,2.235451355E0,4.135001221E0,1.147607234E1
9.484557333E0,1.053793625E1,2.503843231E0,4.304897919E0,1.165544840E1
9.494627333E0,1.054437286E1,2.623145142E0,4.328399048E0,1.169614158E1
9.504697333E0,1.065978287E1,2.597847748E0,4.226910095E0,1.175782942E1
9.514768333E0,1.095856155E1,2.572999420E0,4.083059235E0,1.197421271E1
9.524838333E0,1.142963196E1,2.546205139E0,3.968697052E0,1.236406905E1
9.534908333E0,1.194231583E1,2.466421051E0,3.973337402E0,1.282534796E1
9.544978333E0,1.245694565E1,2.348316650E0,4.014202423E0,1.329676303E1
9.555048333E0,1.295002029E1,2.236349487E0,4.017645264E0,1.374211622E1
9.565119333E0,1.322799225E1,2.165846100E0,4.023632812E0,1.399500944E1
9.575189333E0,1.326975540E1,2.157912598E0,4.132456512E0,1.406485663E1
9.585259333E0,1.296708481E1,2.245929565E0,4.276307373E0,1.383749590E1
9.595329333E0,1.250424728E1,2.210603027E0,4.209845581E0,1.337780870E1
9.605399333E0,1.222223373E1,1.795516205E0,4.054917755E0,1.300189347E1
9.615470333E0,1.247805176E1,1.104253693E0,3.966451721E0,1.313978277E1
9.625540333E0,1.307665695E1,4.703219604E-1,4.003275146E0,1.368379961E1
9.635610333E0,1.353874603E1,-2.050735474E-2,4.133204956E0,1.415561542E1
9.645680333E0,1.349368973E1,-2.932402039E-1,4.249213715E0,1.414996359E1
9.655750333E0,1.271650589E1,-3.225791931E-1,4.259392548E0,1.341476814E1
9.665821333E0,1.131721573E1,-3.884422302E-1,4.143084412E0,1.205800181E1
9.675891333E0,9.799970856E0,-8.075706482E-1,3.898193665E0,1.057768940E1
9.685961333E0,8.593180389E0,-1.411564636E0,3.521427155E0,9.393386670E0
9.696031333E0,8.013735352E0,-1.821562042E0,3.305426331E0,8.857984296E0
9.706101333E0,7.973768463E0,-1.979633331E0,3.227438507E0,8.827020502E0
9.716172333E0,8.644972687E0,-2.060465240E0,3.280727692E0,9.473343863E0
9.726242708E0,9.691745911E0,-1.983225861E0,3.272195435E0,1.041971144E1
9.736312708E0,1.037297928E1,-1.653611298E0,3.130889282E0,1.096063854E1
9.746382708E0,1.066262695E1,-1.422641602E0,2.802172852E0,1.111610073E1
9.756452708E0,1.050874695E1,-1.324894867E0,2.249971161E0,1.082827221E1
9.766523708E0,9.780361633E0,-1.237476654E0,1.825903015E0,1.002600339E1
9.776593708E0,8.941655731E0,-1.151405640E0,1.812281342E0,9.195830894E0
9.786663708E0,8.224347382E0,-1.048719177E0,2.100881195E0,8.552976298E0
9.796733708E0,7.469467163E0,-9.526190186E-1,2.349663849E0,7.888050640E0
9.806803708E0,6.847061462E0,-8.623567200E-1,2.539469147E0,7.353557869E0
9.816874708E0,6.318660278E0,-6.782395935E-1,2.628384247E0,6.877054632E0
9.826944708E0,5.840554504E0,-5.092410278E-1,2.561922455E0,6.398034855E0
9.837014708E0,5.564378815E0,-3.721261597E-1,2.409239960E0,6.074967214E0
9.847084708E0,5.588778076E0,-1.678010559E-1,2.329755249E0,6.057256565E0
9.857155708E0,5.767805786E0,1.811233521E-1,2.358196106E0,6.233897507E0
9.867225708E0,5.959557037E0,5.240602112E-1,2.470462646E0,6.472568646E0
9.877295708E0,6.118376770E0,8.381071472E-1,2.574645996E0,6.690721926E0
9.887365708E0,6.104306030E0,1.100511475E0,2.477348328E0,6.679141588E0
9.897435708E0,5.991440735E0,1.216220856E0,2.257305908E0,6.517053415E0
9.907506708E0,5.922284546E0,1.274150391E0,2.032323761E0,6.389620750E0
9.917576708E0,5.949827271E0,1.396895142E0,1.857936401E0,6.387776472E0
9.927646708E0,6.116879883E0,1.571881256E0,1.840572510E0,6.578353696E0
9.937716708E0,6.329737244E0,1.720522156E0,1.904190216E0,6.830205739E0
9.947786708E0,6.619235229E0,1.815125427E0,1.932032318E0,7.130336894E0
9.957857708E0,6.978937225E0,1.840422821E0,2.002835083E0,7.490264970E0
9.967927708E0,7.506739655E0,1.880090332E0,2.107766876E0,8.020508781E0
9.977997708E0,7.914940796E0,2.026186523E0,2.233056335E0,8.469844168E0
9.988067708E0,8.262218628E0,2.102827148E0,2.387834473E0,8.853693700E0
9.998137708E0,8.654403076E0,2.004182281E0,2.639461212E0,9.267264683E0
1.000820871E1,9.124874725E0,1.956431580E0,2.879711609E0,9.766458019E0
1.001827871E1,9.723629608E0,2.017504578E0,3.056793365E0,1.039053816E1
1.002834871E1,1.023287064E1,2.158211975E0,3.274440765E0,1.095862595E1
1.003841871E1,1.063014450E1,2.268981628E0,3.474275208E0,1.141134689E1
1.004848871E1,1.096080688E1,2.252066803E0,3.633244629E0,1.176484420E1
1.005855971E1,1.109268265E1,2.067799988E0,3.667822723E0,1.186492009E1
1.006862971E1,1.109567642E1,1.793420563E0,3.728446655E0,1.184194693E1
1.007869971E1,1.122111557E1,1.443598022E0,3.922592926E0,1.197431189E1
1.008876971E1,1.151794830E1,1.195264435E0,4.199067993E0,1.231762811E1
1.009883971E1,1.182960022E1,9.604028320E-1,4.388424225E0,1.265385641E1
1.010891071E1,1.203557190E1,7.146139526E-1,4.393363953E0,1.283227614E1
1.011898071E1,1.232402206E1,4.459226990E-1,4.351451111E0,1.307728923E1
1.012905071E1,1.257774445E1,2.694396973E-1,4.397555237E0,1.332706814E1
1.013912071E1,1.273521698E1,2.486329651E-1,4.334835663E0,1.345504999E1
1.014919171E1,1.268581970E1,4.162843323E-1,4.027674408E0,1.331636119E1
1.015926171E1,1.246832199E1,7.593708801E-1,3.435805206E0,1.295532535E1
1.016933171E1,1.221250397E1,9.783654785E-1,2.706821136E0,1.254708463E1
1.017940171E1,1.210547653E1,8.491841125E-1,2.105970612E0,1.231660619E1
1.018947171E1,1.210263245E1,6.524931335E-1,1.866917725E0,1.226314973E1
1.019954271E1,1.227522354E1,5.680686951E-1,1.968855743E0,1.244508770E1
1.020961271E1,1.255693771E1,4.773573303E-1,2.403102722E0,1.279372727E1
1.021968271E1,1.272159531E1,2.968327332E-1,3.134631500E0,1.310545732E1
1.022975271E1,1.248912872E1,1.252894592E-1,3.864364014E0,1.307391842E1
1.023982271E1,1.189875641E1,2.619552612E-2,4.273163910E0,1.264282485E1
1.024989371E1,1.101664078E1,-8.367599487E-2,4.384981384E0,1.185754770E1
1.025996371E1,1.004471191E1,-2.911445618E-1,4.223766632E0,1.090051408E1
1.027003371E1,9.287736053E0,-5.375321960E-1,3.723357239E0,1.002069713E1
1.028010371E1,8.955876160E0,-9.533674622E-1,2.892884216E0,9.459672637E0
1.029017371E1,9.071585541E0,-1.630259857E0,1.993404694E0,9.430009210E0
1.030024471E1,9.449998627E0,-2.153272247E0,1.291065216E0,9.777827203E0
1.031031471E1,1.016266663E1,-2.154020691E0,8.804690552E-1,1.042568098E1
1.032038471E1,1.100197128E1,-1.698817291E0,7.418572998E-1,1.115704730E1
1.033045471E1,1.163380737E1,-1.116079102E0,6.888674927E-1,1.170750379E1
1.034052471E1,1.162662231E1,-7.150630188E-1,7.372169495E-1,1.167189575E1
1.035059571E1,1.102666992E1,-6.128256226E-1,9.047186279E-1,1.108068232E1
1.036066571E1,9.949360199E0,-6.435118103E-1,1.301693115E0,1.005476408E1
1.037073571E1,8.914113007E0,-6.665638733E-1,1.739083557E0,9.106598141E0
1.038080571E1,8.101752319E0,-6.626719666E-1,1.959125977E0,8.361560821E0
1.039087571E1,7.494315491E0,-5.878276062E-1,2.202819214E0,7.833435929E0
1.040094671E1,7.148235168E0,-3.517684937E-1,2.510429535E0,7.584409242E0
1.041101671E1,7.001689911E0,8.831634521E-2,2.625989227E0,7.478454440E0
1.042108671E1,6.851701813E0,4.722679138E-1,2.597398682E0,7.342706219E0
1.043115671E1,6.522536316E0,7.628137207E-1,2.456391907E0,7.011364059E0
1.044122671E1,6.011648712E0,1.003662872E0,2.143991547E0,6.460956520E0
1.045129771E1,5.433401184E0,1.077908478E0,1.660197601E0,5.782732156E0
1.046136771E1,4.916226654E0,1.087787933E0,1.105301514E0,5.155022652E0
1.047143771E1,4.582271118E0,1.179098053E0,5.930667114E-1,4.768564663E0
1.048150771E1,4.430037689E0,1.274898834E0,1.713935852E-1,4.613022515E0
1.049157871E1,4.421655121E0,1.334025879E0,6.646179199E-2,4.618990823E0
1.050164871E1,4.503983917E0,1.339414673E0,1.965412903E-1,4.703034262E0
1.051171871E1,4.760400696E0,1.295256500E0,4.736151123E-1,4.956149257E0
1.052178871E1,5.162165222E0,1.312919769E0,7.625143433E-1,5.380811856E0
1.053185871E1,5.667364655E0,1.275497589E0,1.122066650E0,5.916498102E0
1.054192971E1,6.265820160E0,1.250948639E0,1.449884949E0,6.551911258E0
1.055199971E1,6.955735474E0,1.425934753E0,1.763931885E0,7.316214977E0
1.056206971E1,7.614365845E0,1.609153748E0,2.161205750E0,8.077051027E0
1.057213971E1,8.244705048E0,1.678010559E0,2.515069885E0,8.781597650E0
1.058220971E1,8.827592926E0,1.707798615E0,2.761307831E0,9.405731971E0
1.059228071E1,9.431586914E0,1.816921692E0,2.872676239E0,1.002538303E1
1.060235071E1,1.001163071E1,1.981429596E0,2.825823669E0,1.058981077E1
1.061242071E1,1.039692947E1,2.070195007E0,2.717898102E0,1.094389419E1
1.062249071E1,1.059481796E1,2.162852325E0,2.817890167E0,1.117446208E1
1.063256071E1,1.079150894E1,2.165696411E0,3.076851654E0,1.142864481E1
1.064263171E1,1.097038696E1,2.188000031E0,3.306324463E0,1.166484101E1
1.065270171E1,1.094209579E1,2.211950226E0,3.309767303E0,1.164374269E1
1.066277171E1,1.087862778E1,1.950593719E0,3.194057922E0,1.150440629E1
1.067284171E1,1.097233292E1,1.641785889E0,3.173700256E0,1.153949409E1
1.068291171E1,1.123159378E1,1.504371643E0,3.281625824E0,1.179749554E1
1.069298271E1,1.164204025E1,1.401535492E0,3.347937927E0,1.219467471E1
1.070305271E1,1.205084015E1,1.190923462E0,3.517834625E0,1.261016286E1
1.071312271E1,1.258463013E1,1.024768982E0,3.725452881E0,1.316442426E1
1.072319333E1,1.301229080E1,9.503736877E-1,3.966302032E0,1.363651253E1
1.073326333E1,1.325778030E1,9.690847778E-1,4.087100830E0,1.390727353E1
1.074333433E1,1.326736038E1,1.119372253E0,4.202361145E0,1.396193701E1
1.075340433E1,1.292172913E1,1.378932495E0,4.345912628E0,1.370253608E1
1.076347433E1,1.229064148E1,1.548380127E0,4.308939514E0,1.311580378E1
1.077354433E1,1.182061890E1,1.306782532E0,3.922742615E0,1.252288391E1
1.078361433E1,1.183094742E1,7.792794800E-1,3.391347656E0,1.233206521E1
1.079368533E1,1.234647537E1,2.945874023E-1,2.955903168E0,1.269880307E1
1.080375533E1,1.287772064E1,9.535171509E-2,2.751578064E0,1.316874947E1
1.081382533E1,1.290900558E1,3.068618774E-2,2.778821411E0,1.320474215E1
1.082389533E1,1.241263779E1,-1.778302002E-1,2.863245850E0,1.273983427E1
1.083396633E1,1.143053009E1,-3.152444458E-1,3.060086517E0,1.183725165E1
1.084403633E1,1.044378204E1,-4.546046448E-1,3.368145905E0,1.098288011E1
1.085410633E1,9.726473694E0,-8.776249695E-1,3.516038361E0,1.037964556E1
1.086417633E1,9.384584656E0,-1.407373352E0,3.408112793E0,1.008297385E1
1.087424633E1,9.536069641E0,-1.771416321E0,3.250041504E0,1.022923799E1
1.088431733E1,1.008767258E1,-1.739382935E0,3.070714417E0,1.068718289E1
1.089438733E1,1.077130096E1,-1.438059540E0,2.850073242E0,1.123440507E1
1.090445733E1,1.110405899E1,-1.135538635E0,2.405198364E0,1.141816768E1
1.091452733E1,1.100765945E1,-9.125024414E-1,1.663341064E0,1.116995662E1
1.092459733E1,1.037238052E1,-8.419990540E-1,9.369017029E-1,1.044858961E1
1.093466833E1,9.421108704E0,-8.903485107E-1,5.129832458E-1,9.476980610E0
1.094473833E1,8.514294434E0,-9.834548950E-1,5.379812622E-1,8.587771368E0
1.095480833E1,7.690707092E0,-9.818083191E-1,9.752220154E-1,7.814216604E0
1.096487833E1,6.909331970E0,-9.482780457E-1,1.530267792E0,7.140015339E0
1.097494833E1,6.231990509E0,-8.643026733E-1,2.013013916E0,6.605826961E0
1.098501933E1,5.639971619E0,-6.632707214E-1,2.274969177E0,6.117572449E0
1.099508933E1,5.094356232E0,-3.483256531E-1,2.162702637E0,5.545365531E0
1.100515933E1,4.553830261E0,-2.597099304E-1,1.594334564E0,4.831844575E0
1.101522933E1,4.218228149E0,-4.436773682E-1,9.686357117E-1,4.350695745E0
1.102529933E1,4.268373871E0,-6.164181519E-1,5.427713013E-1,4.346675457E0
1.103537033E1,4.793631592E0,-4.968168640E-1,6.656657410E-1,4.865063382E0
1.104544033E1,5.608087921E0,-7.424560547E-2,1.013392639E0,5.699397089E0
1.105551033E1,6.293662262E0,4.444258118E-1,1.420845337E0,6.467341064E0
1.106558033E1,6.986571350E0,8.445437622E-1,1.720372467E0,7.244661125E0
1.107565033E1,7.296876068E0,1.098715210E0,1.948198700E0,7.631975736E0
1.108572133E1,7.279512177E0,1.122665405E0,2.017354889E0,7.636844629E0
1.109579133E1,7.240293732E0,9.050180054E-1,2.005679169E0,7.567275589E0
1.110586133E1,7.441475372E0,7.515870667E-1,1.943408661E0,7.727695391E0
1.111593133E1,7.915988617E0,7.463479614E-1,1.799108734E0,8.152098092E0
1.112600133E1,8.452472992E0,7.867639160E-1,1.571581879E0,8.633259335E0
1.113607233E1,9.074429626E0,9.114546204E-1,1.428030396E0,9.231212996E0
1.114614233E1,9.828860779E0,1.098415833E0,1.509910126E0,1.000464143E1
1.115621233E1,1.050320847E1,1.256487122E0,1.777104492E0,1.072633434E1
1.116628233E1,1.113654144E1,1.380429382E0,2.005679169E0,1.139960041E1
1.117635333E1,1.165117126E1,1.363215179E0,2.111658783E0,1.191919671E1
1.118642333E1,1.203033279E1,1.318607941E0,2.134561157E0,1.228918164E1
1.119649333E1,1.216415451E1,1.298100586E0,1.981728973E0,1.239269825E1
1.120656333E1,1.198707275E1,1.260977783E0,1.890119476E0,1.220051351E1
1.121663333E1,1.164443527E1,1.087937622E0,1.829196167E0,1.183733246E1
1.122670433E1,1.140403519E1,8.165519714E-1,1.820663910E0,1.157728780E1
1.123677433E1,1.133817215E1,4.836442566E-1,1.868713989E0,1.150131086E1
1.124684433E1,1.146750320E1,1.008901978E-1,1.841770020E0,1.161490101E1
1.125691433E1,1.183903061E1,-2.040257263E-1,1.843865662E0,1.198349335E1
1.126698433E1,1.239198074E1,-3.079096985E-1,1.983824615E0,1.255354752E1
1.127705533E1,1.289074356E1,-1.832189941E-1,2.283351746E0,1.309269010E1
1.128712533E1,1.315075287E1,3.876937866E-2,2.527194672E0,1.339143446E1
1.129719533E1,1.305420364E1,3.923341370E-1,2.439626770E0,1.328600533E1
1.130726533E1,1.260274246E1,7.240443420E-1,2.110311584E0,1.279870200E1
1.131733533E1,1.221759338E1,5.014572144E-1,1.794318695E0,1.235882790E1
1.132740633E1,1.206401276E1,-3.367996216E-2,1.466799774E0,1.215290252E1
1.133747633E1,1.206985062E1,-2.487826538E-1,1.148411865E0,1.212691373E1
1.134754633E1,1.228689926E1,-3.980223083E-1,9.901908875E-1,1.233315828E1
1.135761633E1,1.271665558E1,-5.101391602E-1,1.219514008E0,1.278517835E1
1.136768633E1,1.294552963E1,-4.614903259E-1,1.881587219E0,1.308969370E1
1.137775733E1,1.286843994E1,-3.116519165E-1,2.587219849E0,1.312964508E1
1.138782733E1,1.243464203E1,-2.490820312E-1,3.275338898E0,1.286119004E1
1.139789733E1,1.176807816E1,-4.824467468E-1,3.634142761E0,1.232588382E1
1.140796733E1,1.106439148E1,-9.464817810E-1,3.364703064E0,1.160335354E1
1.141803733E1,1.055694672E1,-1.472338257E0,2.460283813E0,1.093937386E1
1.142810833E1,1.044722488E1,-1.909878387E0,1.284478912E0,1.069775814E1
1.143817833E1,1.064466431E1,-2.293979645E0,1.124162292E-1,1.088962158E1
1.144824833E1,1.114103210E1,-2.189347229E0,-7.089257812E-1,1.137622140E1
1.145831833E1,1.173275162E1,-1.638642426E0,-1.184786224E0,1.190572669E1
1.146838833E1,1.194635742E1,-1.150657196E0,-1.347797241E0,1.207708678E1
1.147845933E1,1.168949158E1,-8.475375366E-1,-1.142124939E0,1.177569457E1
1.148852933E1,1.077609100E1,-5.475613403E-1,-7.156617737E-1,1.081370115E1
1.149859933E1,9.433383179E0,-3.083587646E-1,-7.229965210E-2,9.438698563E0
1.150866933E1,8.332422638E0,-3.754193115E-1,6.215075684E-1,8.363998944E0
1.151873933E1,7.497009888E0,-3.613485718E-1,1.014590149E0,7.573976711E0
1.152881033E1,6.905290375E0,-3.293151855E-3,1.243763580E0,7.016408900E0
1.153888033E1,6.444548492E0,3.941304016E-1,1.466051331E0,6.620940307E0
1.154895033E1,6.131100311E0,6.321354675E-1,1.549877014E0,6.355478348E0
1.155902033E1,5.925877075E0,8.210426331E-1,1.449735260E0,6.155636640E0
1.156909033E1,5.728437653E0,1.065783691E0,1.181942139E0,5.945408315E0
1.157916133E1,5.515879669E0,1.228195953E0,8.044271851E-1,5.707932806E0
1.158923133E1,5.322481842E0,1.278341675E0,4.119433594E-1,5.489323066E0
1.159930133E1,5.222639465E0,1.360969849E0,2.163002014E-1,5.401387571E0
1.160937133E1,5.234165497E0,1.517693939E0,3.278182983E-1,5.459610625E0
1.161944233E1,5.303471375E0,1.666185150E0,5.936654663E-1,5.590654726E0
1.162951233E1,5.298381958E0,1.807341614E0,7.514373779E-1,5.648361994E0
1.163958233E1,5.326373749E0,1.830094299E0,9.129515076E-1,5.705522142E0
1.164965233E1,5.397475891E0,1.743723907E0,1.098116455E0,5.777471662E0
1.165972233E1,5.552403717E0,1.621428223E0,1.265618134E0,5.921149025E0
1.166979333E1,5.856122131E0,1.573078766E0,1.113833771E0,6.165173873E0
1.167986333E1,6.218069458E0,1.686692505E0,7.587721252E-1,6.487299479E0
1.168993333E1,6.589297485E0,1.756447449E0,4.239184570E-1,6.832543878E0
1.170000333E1,7.171885986E0,1.756148071E0,2.311193848E-1,7.387382542E0
1.171007333E1,7.853418732E0,1.777553558E0,2.305206299E-1,8.055372256E0
1.172014433E1,8.471034393E0,1.696571960E0,2.065704346E-1,8.641727342E0
1.173021375E1,8.988957367E0,1.611848145E0,3.333567810E-1,9.138409913E0
1.174028375E1,9.543105011E0,1.606309662E0,6.854246521E-1,9.701592186E0
1.175035375E1,1.004231689E1,1.553918610E0,1.213376770E0,1.023401558E1
1.176042375E1,1.038300842E1,1.546883240E0,1.736239471E0,1.064021800E1
1.177049475E1,1.048225204E1,1.647623749E0,2.156415710E0,1.082785300E1
1.178056475E1,1.048853897E1,1.782343597E0,2.444416809E0,1.091610608E1
1.179063475E1,1.067100952E1,1.748364258E0,2.619253235E0,1.112599251E1
1.180070475E1,1.083072739E1,1.663490753E0,2.627785492E0,1.126841221E1
1.181077475E1,1.108415039E1,1.640139313E0,2.424807587E0,1.146421121E1
1.182084575E1,1.152603149E1,1.560355225E0,2.211052094E0,1.183946206E1
1.183091575E1,1.198632431E1,1.514849854E0,2.195035400E0,1.227945117E1
1.184098575E1,1.244122833E1,1.471589813E0,2.196981354E0,1.271913779E1
1.185105575E1,1.289179138E1,1.260528717E0,2.061812439E0,1.311633669E1
1.186112575E1,1.327439575E1,9.699829102E-1,2.039508820E0,1.346514187E1
1.187119675E1,1.349758163E1,8.533753967E-1,2.247426453E0,1.370999217E1
1.188126675E1,1.341031311E1,9.874964905E-1,2.771037598E0,1.372917683E1
1.189133675E1,1.321212524E1,1.049617310E0,3.184328156E0,1.363091691E1
1.190140675E1,1.311976730E1,7.631130981E-1,3.269650726E0,1.354257182E1
1.191147675E1,1.329625031E1,2.965333557E-1,3.169958038E0,1.367211901E1
1.192154775E1,1.384620667E1,-3.742218018E-2,2.951412506E0,1.415731879E1
1.193161775E1,1.454031326E1,-2.805166626E-1,2.792892151E0,1.480876922E1
1.194168775E1,1.488310043E1,-3.784130859E-1,2.681673431E0,1.512749971E1
1.195175775E1,1.444376404E1,-4.067042542E-1,2.525248718E0,1.466849035E1
1.196182875E1,1.328277832E1,-6.096821594E-1,2.423011322E0,1.351572773E1
1.197189875E1,1.213391739E1,-8.997789001E-1,2.501747589E0,1.242176695E1
1.198196875E1,1.114447495E1,-1.144669647E0,2.565215607E0,1.149303796E1
1.199203875E1,1.034438873E1,-1.378932495E0,2.518662415E0,1.073552483E1
1.200210875E1,1.003123993E1,-1.495240631E0,2.432890778E0,1.042978795E1
1.201217975E1,9.954299927E0,-1.513652344E0,2.263443146E0,1.032000026E1
1.202224975E1,1.005489075E1,-1.526525574E0,2.036515045E0,1.037200568E1
1.203231975E1,1.019619690E1,-1.578617249E0,1.776206360E0,1.046944949E1
1.204238975E1,1.002151016E1,-1.471589813E0,1.333876190E0,1.021643129E1
1.205245975E1,9.619146881E0,-1.375639343E0,7.503895569E-1,9.745945558E0
1.206253075E1,9.210496674E0,-1.398541718E0,3.504212952E-1,9.322658580E0
1.207260075E1,8.799301758E0,-1.380429382E0,3.492237854E-1,8.913767663E0
1.208267075E1,8.364156647E0,-1.239721985E0,6.511459351E-1,8.480567082E0
1.209274075E1,8.056995392E0,-1.106499023E0,1.228345642E0,8.224861570E0
1.210281075E1,7.798033905E0,-9.375004578E-1,1.937720490E0,8.089684826E0
1.211288175E1,7.441475372E0,-6.551875305E-1,2.417323151E0,7.851641716E0
1.212295175E1,7.040608978E0,-3.870950317E-1,2.548450470E0,7.497640772E0
1.213302175E1,6.615343323E0,-2.151026917E-1,2.479743347E0,7.068108906E0
1.214309175E1,6.267616425E0,-4.311035156E-2,2.461032257E0,6.733613734E0
1.215316175E1,6.070326691E0,1.878593445E-1,2.327958984E0,6.504117949E0
1.216323275E1,5.879772949E0,4.475692749E-1,2.057621155E0,6.245466596E0
1.217330275E1,5.603297882E0,6.785389709E-1,1.791324921E0,5.921672674E0
1.218337275E1,5.410349121E0,8.244854736E-1,1.448986816E0,5.661379399E0
1.219344275E1,5.278323669E0,1.021625519E0,8.199948120E-1,5.438456670E0
1.220351275E1,5.240003357E0,1.110091553E0,5.998027039E-1,5.389777520E0
1.221358375E1,5.304818573E0,1.146765289E0,8.967851257E-1,5.500944854E0
1.222365375E1,5.512137451E0,1.166524200E0,1.456471252E0,5.819428365E0
1.223372375E1,5.812562714E0,1.169967041E0,2.130669250E0,6.300353929E0
1.224379375E1,6.160439301E0,1.273252258E0,2.659070435E0,6.829556301E0
1.225386375E1,6.632707214E0,1.364562378E0,2.897225189E0,7.365375026E0
1.226393475E1,7.185807037E0,1.459165649E0,2.702330475E0,7.814574663E0
1.227400475E1,7.654482422E0,1.537602539E0,2.147135010E0,8.097253328E0
1.228407475E1,8.129744110E0,1.632056122E0,1.560205536E0,8.437451499E0
1.229414475E1,8.905431061E0,1.792372742E0,1.427281952E0,9.195457367E0
1.230421475E1,9.651479645E0,1.803000641E0,1.682650909E0,9.961585453E0
1.231428575E1,1.034558624E1,1.771116943E0,2.057770844E0,1.069590720E1
1.232435575E1,1.088147186E1,1.757944336E0,2.453098755E0,1.129223148E1
1.233442575E1,1.109328140E1,1.671573944E0,2.796484680E0,1.156180688E1
1.234449575E1,1.119641693E1,1.449286194E0,2.827170868E0,1.163843107E1
1.235456575E1,1.122470810E1,1.225052490E0,2.764451294E0,1.162484479E1
1.236463675E1,1.113699051E1,1.027613068E0,2.739602966E0,1.151494553E1
1.237470675E1,1.115031281E1,7.415579224E-1,2.499202881E0,1.145099991E1
1.238477675E1,1.164338745E1,3.802093506E-1,2.287243652E0,1.187200548E1
1.239484675E1,1.230935257E1,7.289840698E-2,2.028282166E0,1.247555223E1
1.240491775E1,1.296783325E1,-1.757345581E-1,1.521436157E0,1.305796117E1
1.241498775E1,1.373783203E1,-2.914439392E-1,1.230740662E0,1.379593024E1
1.242505775E1,1.432865341E1,-1.761836243E-1,1.257235565E0,1.438478330E1
1.243512775E1,1.443792618E1,2.180964661E-1,1.501228180E0,1.451740212E1
1.244519775E1,1.408855270E1,8.572673035E-1,1.491348724E0,1.419317954E1
1.245526875E1,1.346584763E1,1.087937622E0,1.019230499E0,1.354811763E1
1.246533875E1,1.276365784E1,6.399192810E-1,3.016227722E-1,1.278324819E1
1.247540875E1,1.234288284E1,7.409591675E-2,-1.354682922E-1,1.234384862E1
1.248547875E1,1.212882797E1,-1.794767761E-1,-3.921844482E-1,1.213649408E1
1.249554875E1,1.223076599E1,-3.459306335E-1,-2.031275940E-1,1.223734308E1
1.250561975E1,1.277997391E1,-5.589376831E-1,2.884501648E-1,1.279544247E1
1.251568975E1,1.301034485E1,-4.345463562E-1,9.737251282E-1,1.305396661E1
1.252575975E1,1.277323792E1,-1.880090332E-1,1.544637909E0,1.286766725E1
1.253582975E1,1.228600113E1,-1.044827271E-1,1.964514771E0,1.244251014E1
1.254589975E1,1.181972076E1,-4.152365112E-1,2.129920807E0,1.201727020E1
1.255597075E1,1.131018036E1,-1.005309448E0,1.989662476E0,1.152777444E1
1.256604075E1,1.090093140E1,-1.690434723E0,1.419647827E0,1.112219739E1
1.257611075E1,1.086904770E1,-2.425256653E0,9.857002258E-1,1.117987802E1
1.258618075E1,1.113609238E1,-2.768792267E0,7.484436035E-1,1.149951877E1
1.259625075E1,1.128907425E1,-2.431693268E0,4.393363953E-1,1.155635522E1
1.260632175E1,1.150043472E1,-1.774709473E0,5.987548828E-2,1.163671679E1
1.261639175E1,1.130808472E1,-1.127156067E0,-5.260061646E-1,1.137628864E1
1.262646175E1,1.047925827E1,-7.914042664E-1,-8.937913513E-1,1.054703928E1
1.263653175E1,9.588760071E0,-8.328680420E-1,-6.700067139E-1,9.648155154E0
1.264660175E1,8.495882721E0,-8.143066406E-1,8.666976929E-2,8.535258061E0
1.265667275E1,7.475754089E0,-5.646258545E-1,8.939410400E-1,7.550154445E0
1.266674275E1,6.744524689E0,-3.782633972E-1,1.511107635E0,6.922076478E0
1.267681275E1,6.154900818E0,-1.510359192E-1,1.961371307E0,6.461624667E0
1.268688275E1,5.720653839E0,1.808239746E-1,2.265538788E0,6.155586378E0
1.269695275E1,5.388793945E0,4.712200928E-1,2.365680542E0,5.904031926E0
1.270702375E1,5.212460632E0,7.113208008E-1,2.300715637E0,5.741865165E0
1.271709375E1,5.052593079E0,9.761201477E-1,2.214345245E0,5.602216724E0
1.272716396E1,5.083428955E0,1.299447784E0,2.220632172E0,5.697457479E0
1.273723396E1,5.158722382E0,1.352587280E0,1.783092041E0,5.623284288E0
1.274730396E1,5.116210785E0,1.213077393E0,1.286424866E0,5.413137583E0
1.275737496E1,5.054389343E0,1.172062683E0,9.491761780E-1,5.274610695E0
1.276744496E1,5.005141754E0,1.225950623E0,9.985734558E-1,5.248956835E0
1.277751496E1,5.089566193E0,1.281335449E0,1.235680389E0,5.391883770E0
1.278758496E1,5.428012390E0,1.262774048E0,1.462458801E0,5.761657969E0
1.279765596E1,5.939947815E0,1.275198212E0,1.667532349E0,6.299982116E0
1.280772596E1,6.423143005E0,1.371897125E0,1.728006592E0,6.791529619E0
1.281779596E1,6.954088898E0,1.382075958E0,1.490899658E0,7.245154805E0
1.282786596E1,7.400310974E0,1.389410706E0,1.331331482E0,7.646404916E0
1.283793596E1,7.732320557E0,1.491947479E0,1.357077942E0,7.991016770E0
1.284800696E1,7.820636902E0,1.466350708E0,1.478176117E0,8.093055701E0
1.285807696E1,7.698041840E0,1.323847046E0,1.700314178E0,7.993965691E0
1.286814696E1,7.710016937E0,1.151106262E0,1.838027802E0,8.009229239E0
1.287821696E1,7.842790833E0,1.059496765E0,1.926942902E0,8.145244649E0
1.288828696E1,8.305927734E0,1.114432526E0,2.105671234E0,8.640847570E0
1.289835796E1,8.819210358E0,1.311722260E0,2.192790070E0,9.181906932E0
1.290842796E1,9.379644928E0,1.451531525E0,2.337539063E0,9.774905197E0
1.291849796E1,1.003662872E1,1.595083008E0,2.547252960E0,1.047696061E1
1.292856796E1,1.076067307E1,1.745071106E0,2.746638336E0,1.124194735E1
1.293863796E1,1.140972336E1,1.840123444E0,3.003953247E0,1.194117149E1
1.294870896E1,1.189531357E1,1.972148895E0,3.106040955E0,1.245131907E1
1.295877896E1,1.214709000E1,2.006128235E0,3.194956055E0,1.271943749E1
1.296884896E1,1.234737350E1,1.755848694E0,3.202141113E0,1.287611528E1
1.297891896E1,1.260109589E1,1.419797516E0,3.305426331E0,1.310455210E1
1.298898896E1,1.272354126E1,1.266216888E0,3.429817657E0,1.323840838E1
1.299905996E1,1.279194901E1,1.171014862E0,3.550915833E0,1.332719920E1
1.300912996E1,1.290601181E1,1.094074860E0,3.802692261E0,1.349898548E1
1.301919996E1,1.282802399E1,1.273551636E0,4.123325500E0,1.353447252E1
1.302926996E1,1.259959900E1,1.623673553E0,4.252207489E0,1.339654729E1
1.303933996E1,1.241338623E1,1.831591187E0,4.206103363E0,1.323397860E1
1.304941096E1,1.233030899E1,1.851200409E0,4.031416626E0,1.310403689E1
1.305948096E1,1.256591904E1,1.704655151E0,3.688180389E0,1.320646982E1
1.306955096E1,1.331690735E1,1.399589539E0,3.234922943E0,1.377547091E1
1.307962096E1,1.421953033E1,1.060993652E0,2.746488647E0,1.452115527E1
1.308969096E1,1.469374420E1,7.247927856E-1,2.645448761E0,1.494756978E1
1.309976196E1,1.452250031E1,6.304888916E-1,2.820883942E0,1.480736025E1
1.310983196E1,1.345701599E1,7.074288940E-1,2.923271027E0,1.378902638E1
1.311990196E1,1.208167603E1,2.508782959E-1,3.001558228E0,1.245147330E1
1.312997196E1,1.091305618E1,-5.739065552E-1,2.862796783E0,1.129689202E1
1.314004196E1,1.003019211E1,-1.155147858E0,2.838696899E0,1.048796074E1
1.315011296E1,9.695338440E0,-1.438508606E0,2.975063324E0,1.024304136E1
1.316018296E1,1.007584717E1,-1.596130829E0,2.975063324E0,1.062644492E1
1.317025296E1,1.061472656E1,-1.575024719E0,2.798280945E0,1.108979256E1
1.318032296E1,1.121318207E1,-1.501377869E0,2.240241394E0,1.153292110E1
1.319039296E1,1.168649780E1,-1.337319031E0,1.652264099E0,1.187824186E1
1.320046396E1,1.167317551E1,-1.243314514E0,1.068178711E0,1.178769965E1
1.321053396E1,1.114941467E1,-1.211131439E0,5.517526245E-1,1.122856704E1
1.322060396E1,1.029648834E1,-1.121018829E0,5.795947266E-1,1.037353775E1
1.323067396E1,9.434580688E0,-1.106648712E0,9.485774231E-1,9.546506338E0
1.324074396E1,8.680748291E0,-1.103654938E0,1.436712341E0,8.867783684E0
1.325081496E1,7.962092743E0,-9.713301086E-1,1.844913483E0,8.230559445E0
1.326088496E1,7.485184479E0,-7.964936829E-1,2.110760651E0,7.817780976E0
1.327095496E1,7.214098206E0,-5.583389282E-1,2.210153961E0,7.565694668E0
1.328102496E1,6.971153412E0,-3.043171692E-1,2.138752441E0,7.298208742E0
1.329109596E1,6.810537415E0,-1.240919495E-1,2.080523529E0,7.122316817E0
1.330116596E1,6.712790680E0,1.179547119E-1,1.992656250E0,7.003295721E0
1.331123596E1,6.595434723E0,4.466711426E-1,2.015109558E0,6.910856736E0
1.332130596E1,6.274801483E0,7.312294006E-1,2.032473450E0,6.636171970E0
1.333137596E1,5.776487732E0,8.731343079E-1,2.010020142E0,6.178216167E0
1.334144696E1,5.253026276E0,7.704478455E-1,1.966909790E0,5.661855620E0
1.335151696E1,4.940775604E0,6.018983459E-1,1.907633057E0,5.330347931E0
1.336158696E1,4.823269958E0,8.015830994E-1,1.810934143E0,5.214014867E0
1.337165696E1,4.911885681E0,1.062340851E0,1.770817566E0,5.328319048E0
1.338172696E1,5.266498260E0,1.218765564E0,1.787283325E0,5.693485322E0
1.339179796E1,5.749094696E0,1.482966156E0,1.622176666E0,6.154895253E0
1.340186796E1,6.146667938E0,1.806293793E0,1.213975525E0,6.520579774E0
1.341193796E1,6.532864838E0,2.020049286E0,8.669970703E-1,6.892793775E0
1.342200796E1,6.721322937E0,2.053878937E0,7.458988953E-1,7.067599725E0
1.343207796E1,6.850504303E0,1.948348389E0,9.035211182E-1,7.179263267E0
1.344214896E1,7.071744232E0,1.904788971E0,1.403331757E0,7.457018676E0
1.345221896E1,7.247927856E0,1.955533447E0,2.143392792E0,7.807093053E0
1.346228896E1,7.541916504E0,2.051633606E0,2.771486664E0,8.292818781E0
1.347235896E1,7.996970215E0,2.106719055E0,2.951562195E0,8.780746961E0
1.348242896E1,8.316705322E0,2.031725006E0,2.702330475E0,8.977643561E0
1.349249996E1,8.685688019E0,1.922152863E0,2.269281006E0,9.180712623E0
1.350256996E1,9.140142975E0,2.010618896E0,1.898502045E0,9.549299030E0
1.351263996E1,9.492061157E0,2.155367889E0,1.717079315E0,9.883986904E0
1.352270996E1,1.003273682E1,2.070195007E0,1.532812500E0,1.035813832E1
1.353277996E1,1.043539948E1,1.725012817E0,1.422641602E0,1.067226033E1
1.354285096E1,1.092413315E1,1.147962799E0,1.742676086E0,1.112166460E1
1.355292096E1,1.173275162E1,5.870791626E-1,2.330204315E0,1.197630889E1
1.356299096E1,1.263387772E1,1.574725342E-1,2.943179626E0,1.297312491E1
1.357306096E1,1.343426331E1,-2.709365845E-2,3.653302917E0,1.392216890E1
1.358313096E1,1.392943359E1,1.619631958E-1,4.137246552E0,1.453176388E1
1.359320196E1,1.398796188E1,6.209088135E-1,4.187392273E0,1.461447431E1
1.360327196E1,1.378842682E1,9.569599915E-1,3.702700195E0,1.430896486E1
1.361334196E1,1.342947327E1,8.440946960E-1,3.000211029E0,1.378638873E1
1.362341196E1,1.323981766E1,4.487667847E-1,2.424208832E0,1.346740330E1
1.363348196E1,1.338336914E1,1.911524963E-1,2.019001465E0,1.353615439E1
1.364355296E1,1.361628479E1,4.340972900E-2,1.968706055E0,1.375793950E1
1.365362296E1,1.391685974E1,4.984634399E-2,2.332599335E0,1.411107683E1
1.366369296E1,1.369891296E1,2.297721863E-1,3.039728851E0,1.403399313E1
1.367376296E1,1.300989578E1,2.345622253E-1,3.652404785E0,1.351489802E1
1.368383296E1,1.213631241E1,-3.442840576E-3,3.895499268E0,1.274617610E1
1.369390396E1,1.111768066E1,-3.189866638E-1,3.713178406E0,1.172570977E1
1.370397396E1,1.046608566E1,-5.155279541E-1,3.247197418E0,1.097036960E1
1.371404396E1,9.991123352E0,-4.730163574E-1,2.648292847E0,1.034696793E1
1.372411396E1,9.658964081E0,-6.171665955E-1,1.759291534E0,9.837255127E0
1.373418533E1,9.695637817E0,-1.068478088E0,9.276210022E-1,9.798342658E0
1.374425533E1,1.014096176E1,-1.317859497E0,6.472540283E-1,1.024669688E1
1.375432533E1,1.055335419E1,-1.105750580E0,7.168592834E-1,1.063531176E1
1.376439533E1,1.064226929E1,-7.444020081E-1,7.075785828E-1,1.069171162E1
1.377446533E1,1.032912048E1,-6.001020813E-1,5.260061646E-1,1.035990034E1
1.378453633E1,9.736652527E0,-7.147636414E-1,4.297563171E-1,9.772306789E0
1.379460633E1,9.033115540E0,-7.875123596E-1,6.785389709E-1,9.092731559E0
1.380467633E1,8.353379059E0,-8.026309204E-1,1.052311707E0,8.457571639E0
1.381474633E1,7.766299896E0,-8.553213501E-1,1.251846771E0,7.912907748E0
1.382481633E1,7.324718170E0,-8.352630615E-1,1.343156891E0,7.493545962E0
1.383488733E1,7.132517853E0,-7.024891663E-1,1.606908417E0,7.344961308E0
1.384495733E1,7.084168396E0,-4.803511047E-1,2.063009949E0,7.394064450E0
1.385502733E1,7.066355438E0,-2.040257263E-1,2.451901245E0,7.482434456E0
1.386509733E1,7.055278473E0,-2.395019531E-3,2.467169495E0,7.474214700E0
1.387516733E1,7.000642090E0,2.345622253E-1,2.137554932E0,7.323465723E0
1.388523833E1,6.824308777E0,5.670208740E-1,1.821112976E0,7.085841900E0
1.389530833E1,6.562802582E0,6.918612671E-1,1.583706665E0,6.786543785E0
1.390537833E1,6.229296112E0,5.960604858E-1,1.569935303E0,6.451675365E0
1.391544833E1,5.979315948E0,4.242178345E-1,1.971849518E0,6.310338383E0
1.392551833E1,5.970783691E0,3.472778320E-1,2.550246735E0,6.501893431E0
1.393558933E1,5.993386688E0,3.894900513E-1,3.051404572E0,6.736724453E0
1.394565933E1,6.145769806E0,4.140390015E-1,3.167563019E0,6.926425505E0
1.395572933E1,6.461613007E0,4.050576782E-1,2.876568146E0,7.084571876E0
1.396579933E1,6.798562317E0,5.475613403E-1,2.508184204E0,7.267135681E0
1.397586933E1,7.128027191E0,8.505313110E-1,2.117197266E0,7.484296855E0
1.398594033E1,7.444469147E0,1.136287079E0,1.725461884E0,7.725832506E0
1.399601033E1,7.609126740E0,1.267414398E0,1.376537476E0,7.835815491E0
1.400608033E1,7.773185577E0,1.188229065E0,1.223256226E0,7.958056178E0
1.401615033E1,7.910899200E0,1.177900543E0,1.297950897E0,8.102743510E0
1.402622033E1,8.012986908E0,1.295406189E0,1.483714600E0,8.251511704E0
1.403629133E1,8.246501312E0,1.366059265E0,1.700014801E0,8.530003056E0
1.404636133E1,8.442443848E0,1.383123779E0,1.955383759E0,8.775614802E0
1.405643133E1,8.601862335E0,1.436862030E0,2.190844116E0,8.992019021E0
1.406650133E1,8.820407867E0,1.468146973E0,2.321971436E0,9.238322457E0
1.407657133E1,9.057514801E0,1.538350983E0,2.377505951E0,9.489870002E0
1.408664233E1,9.450597382E0,1.584904175E0,2.357297974E0,9.868260528E0
1.409671233E1,9.915829926E0,1.685195618E0,2.331701202E0,1.032474687E1
1.410678233E1,1.047057632E1,1.726809082E0,2.293231201E0,1.085696769E1
1.411685233E1,1.096694412E1,1.662592621E0,2.218087463E0,1.131185173E1
1.412692233E1,1.147603546E1,1.613943787E0,2.222877502E0,1.180022834E1
1.413699333E1,1.198841995E1,1.637145538E0,2.295775909E0,1.231556111E1
1.414706333E1,1.227237946E1,1.519639893E0,2.324067078E0,1.258260270E1
1.415713333E1,1.234707413E1,1.158141632E0,2.289189606E0,1.261078588E1
1.416720333E1,1.236922806E1,7.771838379E-1,2.272274780E0,1.260020040E1
1.417727333E1,1.240709930E1,4.478686523E-1,2.428400116E0,1.265044768E1
1.418734433E1,1.250559448E1,2.505789185E-1,2.768193512E0,1.281076026E1
1.419741433E1,1.265663040E1,2.691403198E-1,3.417842560E0,1.311275629E1
1.420748433E1,1.258552826E1,5.204676819E-1,4.250261536E0,1.329402615E1
1.421755433E1,1.239931549E1,7.523355103E-1,5.035229187E0,1.340382656E1
1.422762433E1,1.230740662E1,7.053332520E-1,5.530249786E0,1.351123293E1
1.423769533E1,1.246323257E1,4.688250732E-1,5.496869202E0,1.362965642E1
1.424776533E1,1.264884659E1,2.912942505E-1,4.894970856E0,1.356609421E1
1.425783533E1,1.274509644E1,1.643582153E-1,4.059408417E0,1.337696877E1
1.426790533E1,1.266276764E1,-3.667373657E-2,3.395239563E0,1.311009843E1
1.427797633E1,1.207089844E1,-2.121089172E-1,3.144061890E0,1.247544406E1
1.428804633E1,1.102038300E1,-4.348457336E-1,3.154540100E0,1.147122729E1
1.429811633E1,9.825268250E0,-8.482859802E-1,3.040776672E0,1.031997132E1
1.430818633E1,8.841513977E0,-1.288221130E0,2.933449860E0,9.404095446E0
1.431825633E1,8.074359283E0,-1.481469269E0,2.893033905E0,8.704003344E0
1.432832733E1,7.672894135E0,-1.525178375E0,2.883453827E0,8.337492396E0
1.433839733E1,7.674241333E0,-1.698218536E0,2.891237640E0,8.374794405E0
1.434846733E1,8.261470184E0,-2.122885437E0,2.883753204E0,9.004141532E0
1.435853733E1,9.519154816E0,-2.250569916E0,2.847378845E0,1.018758753E1
1.436860733E1,1.113908615E1,-1.768422546E0,2.786305847E0,1.161766151E1
1.437867833E1,1.233973938E1,-1.085243225E0,2.570754089E0,1.265131208E1
1.438874833E1,1.285960831E1,-7.099736023E-1,2.086211700E0,1.304706356E1
1.439881833E1,1.256711655E1,-6.932084656E-1,1.379082184E0,1.266154903E1
1.440888833E1,1.155806488E1,-8.262817383E-1,1.039737854E0,1.163411621E1
1.441895833E1,1.052027298E1,-1.164428558E0,1.248553619E0,1.065790428E1
1.442902933E1,9.616751862E0,-1.465153198E0,1.939367065E0,9.919159988E0
1.443909933E1,8.829239502E0,-1.611548767E0,2.784210205E0,9.397041347E0
1.444916933E1,8.223449249E0,-1.521885223E0,3.447331238E0,9.045736280E0
1.445923933E1,7.775131531E0,-1.183738403E0,3.970643005E0,8.810216388E0
1.446930933E1,7.534132690E0,-7.304809570E-1,4.416266327E0,8.763570397E0
1.447938033E1,7.286397858E0,-3.064128113E-1,4.620142365E0,8.633145314E0
1.448945033E1,6.886728973E0,2.050735474E-2,4.362228699E0,8.152085360E0
1.449952033E1,6.373745728E0,2.288740540E-1,3.726650391E0,7.386808585E0
1.450959033E1,5.836961975E0,3.635939026E-1,3.047961731E0,6.594876522E0
1.451966033E1,5.298681335E0,4.995112610E-1,2.463127899E0,5.864514851E0
1.452973133E1,4.809498596E0,6.023474121E-1,2.041305084E0,5.259375020E0
1.453980133E1,4.522695007E0,7.394622803E-1,1.710493011E0,4.891560174E0
1.454987133E1,4.264332275E0,8.783734131E-1,1.626817017E0,4.647860068E0
1.455994133E1,4.293671265E0,8.181985474E-1,1.727557526E0,4.699948595E0
1.457001133E1,4.520299988E0,7.750881958E-1,1.879192200E0,4.956333021E0
1.458008233E1,4.787644043E0,8.437953186E-1,2.152074738E0,5.316479258E0
1.459015233E1,5.126688995E0,8.930429077E-1,2.428699493E0,5.742738625E0
1.460022233E1,5.592819672E0,9.354048157E-1,2.582130432E0,6.230731227E0
1.461029233E1,6.124663696E0,1.051413574E0,2.618504791E0,6.743407391E0
1.462036233E1,6.643335114E0,1.240620117E0,2.577939148E0,7.233174266E0
1.463043333E1,7.042255554E0,1.432221680E0,2.465373230E0,7.597544827E0
1.464050333E1,7.470065918E0,1.548080750E0,2.390528870E0,7.994564848E0
1.465057333E1,7.982600098E0,1.652713165E0,2.418221283E0,8.503008838E0
1.466064333E1,8.441396027E0,1.739083557E0,2.632874908E0,9.011859341E0
1.467071333E1,8.947044525E0,1.675016785E0,2.910098419E0,9.556357035E0
1.468078433E1,9.598639526E0,1.438807983E0,3.303330688E0,1.025261151E1
1.469085433E1,1.025876678E1,1.196911011E0,3.692671051E0,1.096862395E1
1.470092433E1,1.098790054E1,9.306147766E-1,3.977678375E0,1.172270990E1
1.471099433E1,1.170475983E1,6.472540283E-1,4.176614685E0,1.244445461E1
1.472106433E1,1.238329880E1,4.064048767E-1,4.227359161E0,1.309128792E1
1.473113496E1,1.299372940E1,9.101074219E-2,4.090094604E0,1.362256072E1
1.474120496E1,1.342977264E1,-3.532653809E-1,3.756438446E0,1.394971037E1
1.475127496E1,1.380354538E1,-7.640112305E-1,3.413800964E0,1.423993031E1
1.476134496E1,1.398945877E1,-1.020577698E0,3.129093018E0,1.437142159E1
1.477141496E1,1.371238495E1,-1.137185211E0,2.940634918E0,1.407018212E1
1.478148596E1,1.302995407E1,-1.185384979E0,2.854264526E0,1.339147739E1
1.479155596E1,1.219124817E1,-1.197659454E0,2.876119080E0,1.258304339E1
1.480162596E1,1.131422195E1,-1.124761047E0,2.923121338E0,1.173973357E1
1.481169596E1,1.076486435E1,-1.110989685E0,2.731070709E0,1.116133279E1
1.482176596E1,1.074495575E1,-1.346300354E0,2.318678284E0,1.107442403E1
1.483183696E1,1.099643280E1,-1.606459351E0,1.848056946E0,1.126576941E1
1.484190696E1,1.149863846E1,-1.829196167E0,1.368603973E0,1.172338355E1
1.485197696E1,1.209634552E1,-1.819616089E0,1.153950348E0,1.228674811E1
1.486204696E1,1.257849289E1,-1.716779938E0,1.301693115E0,1.276167002E1
1.487211696E1,1.277997391E1,-1.820065155E0,1.761686554E0,1.302858050E1
1.488218796E1,1.245589783E1,-1.911375275E0,2.351011047E0,1.281912630E1
1.489225796E1,1.195054871E1,-2.088756409E0,2.795137482E0,1.244955064E1
1.490232796E1,1.134894974E1,-2.275867310E0,2.744991760E0,1.189593258E1
1.491239796E1,1.077189972E1,-2.392025757E0,2.234403534E0,1.125824897E1
1.492246796E1,1.063164139E1,-2.630330200E0,1.467997284E0,1.105013356E1
1.493253896E1,1.099852844E1,-2.884801025E0,8.414002991E-1,1.140165160E1
1.494260896E1,1.158560760E1,-2.949765930E0,3.665876770E-1,1.196084483E1
1.495267896E1,1.221834183E1,-2.705324249E0,1.586700439E-2,1.251426818E1
1.496274896E1,1.262789017E1,-2.320175171E0,-8.382568359E-2,1.283954242E1
1.497281996E1,1.256606873E1,-2.004182281E0,7.783813477E-3,1.272489255E1
1.498288996E1,1.197300201E1,-1.638941803E0,2.758763123E-1,1.208780440E1
1.499295996E1,1.097802109E1,-1.434766388E0,8.110134888E-1,1.110104700E1
1.500302996E1,9.926308136E0,-1.428778839E0,1.469344482E0,1.013567834E1
1.501309996E1,9.048234100E0,-1.379680939E0,1.956730957E0,9.359639729E0
1.502317096E1,8.263266449E0,-1.205443268E0,2.166893921E0,8.627287821E0
1.503324096E1,7.654033356E0,-1.022373962E0,2.292482758E0,8.055119634E0
1.504331096E1,7.289691010E0,-8.009843445E-1,2.343526611E0,7.698914723E0
1.505338096E1,7.081773376E0,-5.616320801E-1,2.300266571E0,7.467139415E0
1.506345096E1,6.991810455E0,-3.564088440E-1,2.129920807E0,7.317718453E0
1.507352196E1,7.014114075E0,-6.122268677E-2,1.880838776E0,7.262169027E0
1.508359196E1,6.890471191E0,3.367996216E-1,1.574425964E0,7.076075490E0
1.509366196E1,6.654412079E0,6.526428223E-1,1.256187744E0,6.803319074E0
1.510373196E1,6.262676697E0,8.372090149E-1,9.722282410E-1,6.392751058E0
1.511380196E1,5.794300690E0,9.069639587E-1,8.415499878E-1,5.924922825E0
1.512387296E1,5.308560791E0,9.139993286E-1,8.247848511E-1,5.449447907E0
1.513394296E1,4.859195251E0,8.647517395E-1,8.729846191E-1,5.012152852E0
1.514401296E1,4.572391663E0,8.431965637E-1,8.954379272E-1,4.734929254E0
1.515408296E1,4.475243683E0,8.839118958E-1,7.638615417E-1,4.625212505E0
1.516415296E1,4.597090302E0,8.373587036E-1,5.387297058E-1,4.703683507E0
1.517422396E1,5.028193817E0,8.056246948E-1,3.156935120E-1,5.102100215E0
1.518429396E1,5.467230835E0,9.617500305E-1,2.618055725E-1,5.557348134E0
1.519436396E1,5.984854431E0,1.053359528E0,3.698808289E-1,6.088091711E0
1.520443396E1,6.563850403E0,1.053658905E0,6.150709534E-1,6.676274521E0
1.521450396E1,7.086114349E0,1.049766998E0,9.125024414E-1,7.221335613E0
1.522457496E1,7.598798218E0,1.014440460E0,1.142424316E0,7.750868153E0
1.523464496E1,8.245154114E0,9.339079285E-1,1.407672729E0,8.416429937E0
1.524471496E1,8.901688843E0,8.622070313E-1,1.764830017E0,9.115815389E0
1.525478496E1,9.444011078E0,8.164022827E-1,2.113305359E0,9.711947151E0
1.526485496E1,9.864786072E0,8.322692871E-1,2.469714203E0,1.020324285E1
1.527492596E1,1.021924896E1,9.021739197E-1,2.840942230E0,1.064508900E1
1.528499596E1,1.037028488E1,1.071172485E0,3.205583954E0,1.090715304E1
1.529506596E1,1.045036835E1,1.158740387E0,3.473676453E0,1.107336019E1
1.530513596E1,1.037657181E1,1.082099762E0,3.517235870E0,1.100977432E1
1.531520596E1,1.034304153E1,8.336164856E-1,3.311862946E0,1.089228446E1
1.532527696E1,1.046533722E1,5.673202515E-1,3.189716949E0,1.095533795E1
1.533534696E1,1.079091019E1,4.689747620E-1,3.216211853E0,1.126976924E1
1.534541696E1,1.143561951E1,4.679269409E-1,3.421435089E0,1.194565056E1
1.535548696E1,1.218630844E1,4.176315308E-1,3.713926849E0,1.274652039E1
1.536555696E1,1.292577072E1,2.221380615E-1,4.013154602E0,1.353625886E1
1.537562796E1,1.356554031E1,4.041595459E-2,4.416565704E0,1.426644911E1
1.538569796E1,1.390967468E1,8.786727905E-2,4.890330505E0,1.474456181E1
1.539576796E1,1.383767441E1,2.501298523E-1,5.246439972E0,1.480097734E1
1.540583796E1,1.341315720E1,3.655398560E-1,5.240302734E0,1.440510944E1
1.541590796E1,1.277189072E1,2.387535095E-1,4.883295135E0,1.367569988E1
1.542597896E1,1.235440887E1,-1.191522217E-1,4.385131073E0,1.311011024E1
1.543604896E1,1.235500763E1,-4.486170959E-1,3.988605652E0,1.299062916E1
1.544611896E1,1.279539185E1,-6.167175293E-1,3.642375641E0,1.331800636E1
1.545618896E1,1.361493759E1,-6.918612671E-1,3.434607697E0,1.405851086E1
1.546625896E1,1.445529007E1,-6.318360901E-1,3.305126953E0,1.484178197E1
1.547632996E1,1.436697372E1,-3.806584167E-1,3.044967957E0,1.469104029E1
1.548639996E1,1.321901093E1,-1.945953369E-1,2.571053467E0,1.346812656E1
1.549646996E1,1.185295166E1,-4.427792358E-1,2.100132751E0,1.204570770E1
1.550653996E1,1.075513458E1,-8.978329468E-1,1.911974030E0,1.096059618E1
1.551661096E1,9.921817474E0,-1.260229340E0,1.928439789E0,1.018575083E1
1.552668096E1,9.391620026E0,-1.600471802E0,2.049987030E0,9.745074834E0
1.553675096E1,9.211544495E0,-2.007026367E0,2.054777069E0,9.648980030E0
1.554682096E1,9.731563110E0,-2.233355713E0,1.960173798E0,1.017514028E1
1.555689096E1,1.034708313E1,-1.895059204E0,1.894011383E0,1.068834214E1
1.556696196E1,1.062266006E1,-1.409319305E0,1.702559509E0,1.085015192E1
1.557703196E1,1.042432251E1,-1.242865448E0,1.581012268E0,1.061653494E1
1.558710196E1,9.827363892E0,-1.248852997E0,1.545536041E0,1.002623541E1
1.559717196E1,8.943302307E0,-1.253942413E0,1.489253082E0,9.152753819E0
1.560724196E1,8.164322205E0,-1.279239807E0,1.355431366E0,8.374354049E0
1.561731296E1,7.451953583E0,-1.208287354E0,1.295705566E0,7.659662097E0
1.562738296E1,6.797514496E0,-1.039887543E0,1.334624634E0,7.004912015E0
1.563745296E1,6.278394012E0,-8.349636841E-1,1.513802032E0,6.512065135E0
1.564752296E1,6.008205872E0,-6.158193970E-1,1.709145813E0,6.276858349E0
1.565759296E1,5.809119873E0,-3.969744873E-1,1.751807098E0,6.080484401E0
1.566766396E1,5.681435394E0,-7.155120850E-2,1.482217712E0,5.872035172E0
1.567773396E1,5.602699127E0,2.207908630E-1,1.055455170E0,5.705521162E0
1.568780396E1,5.529950409E0,3.906875610E-1,7.220983887E-1,5.590564764E0
1.569787396E1,5.529950409E0,5.792953491E-1,6.288423157E-1,5.595657002E0
1.570794396E1,5.629044342E0,8.527766418E-1,7.047344971E-1,5.736725452E0
1.571801496E1,5.654042358E0,1.065634003E0,8.904981995E-1,5.822092224E0
1.572808458E1,5.674998779E0,1.081201630E0,1.037791901E0,5.869550250E0
1.573815458E1,5.501808929E0,1.066831512E0,1.229094086E0,5.737482309E0
1.574822458E1,5.376669159E0,9.461824036E-1,1.243164825E0,5.599043773E0
1.575829458E1,5.428311768E0,8.337661743E-1,1.032103729E0,5.588109948E0
1.576836558E1,5.795348511E0,9.246272278E-1,7.435038757E-1,5.915555585E0
1.577843558E1,6.248007202E0,1.032552795E0,7.060816956E-1,6.371994243E0
1.578850558E1,6.864724731E0,9.565109253E-1,7.737409973E-1,6.974097355E0
1.579857558E1,7.566016388E0,8.954379272E-1,9.990225220E-1,7.684039241E0
1.580864558E1,8.364156647E0,8.222401428E-1,1.228645020E0,8.493807382E0
1.581871658E1,9.137149200E0,6.914122009E-1,1.531614990E0,9.290392393E0
1.582878658E1,9.866133270E0,6.430627441E-1,2.144739990E0,1.011701661E1
1.583885658E1,1.062475571E1,7.177574158E-1,2.831811218E0,1.101906368E1
1.584892658E1,1.136317017E1,6.912625122E-1,3.371738434E0,1.187299879E1
1.585899658E1,1.197839081E1,5.391787720E-1,3.635489960E0,1.252953899E1
1.586906758E1,1.222627533E1,4.326004028E-1,3.788771210E0,1.280717529E1
1.587913758E1,1.208691513E1,2.945874023E-1,3.800746307E0,1.267383019E1
1.588920758E1,1.174053543E1,6.481521606E-2,3.679947510E0,1.230391754E1
1.589927758E1,1.139610168E1,-3.540138245E-1,3.404969330E0,1.189917121E1
1.590934758E1,1.145882126E1,-8.641529846E-1,3.010988617E0,1.187928438E1
1.591941858E1,1.174322983E1,-1.108145599E0,2.707120514E0,1.210206325E1
1.592948858E1,1.223450821E1,-1.166524200E0,2.520458679E0,1.254578343E1
1.593955858E1,1.297052765E1,-1.119521942E0,2.450404358E0,1.324735439E1
1.594962858E1,1.338935669E1,-9.871971130E-1,2.449655914E0,1.364735303E1
1.595969858E1,1.338217163E1,-7.101232910E-1,2.217039642E0,1.358315344E1
1.596976958E1,1.307336380E1,-2.448907471E-1,1.658850403E0,1.318046271E1
1.597983958E1,1.248134491E1,-3.742218018E-2,8.934919739E-1,1.251334084E1
1.598990958E1,1.173439819E1,-1.649569702E-1,-1.377136230E-2,1.173556566E1
1.599997958E1,1.122904907E1,-2.329156494E-1,-7.403604126E-1,1.125583965E1
1.601004958E1,1.117471207E1,-2.152523804E-1,-1.257385254E0,1.124729039E1
1.602012058E1,1.156450150E1,-2.948867798E-2,-1.233435059E0,1.163013011E1
1.603019058E1,1.213481552E1,1.845661926E-1,-6.102809143E-1,1.215155361E1
1.604026058E1,1.259331207E1,1.975891113E-1,3.448828125E-1,1.259958311E1
1.605033058E1,1.264645157E1,-3.188369751E-2,1.192270660E0,1.270256916E1
1.606040058E1,1.223720261E1,-4.815486145E-1,1.588347015E0,1.234924544E1
1.607047158E1,1.159384048E1,-1.071621552E0,1.509011993E0,1.174063998E1
1.608054158E1,1.134101624E1,-1.919458466E0,9.716294861E-1,1.154326790E1
1.609061158E1,1.159863052E1,-2.890339508E0,3.734733582E-1,1.195917116E1
1.610068158E1,1.205757614E1,-3.406765594E0,-1.821711731E-1,1.253093694E1
1.611075258E1,1.248179398E1,-3.259771271E0,-7.973918152E-1,1.292505796E1
1.612082258E1,1.276949570E1,-3.069217529E0,-1.394051056E0,1.320694874E1
1.613089258E1,1.303309753E1,-2.966980133E0,-1.742077332E0,1.347959331E1
1.614096258E1,1.265079254E1,-2.524649963E0,-1.740430756E0,1.301712367E1
1.615103258E1,1.184157532E1,-2.175575867E0,-1.479822693E0,1.213037145E1
1.616110358E1,1.080917221E1,-1.970951385E0,-8.002359009E-1,1.101649812E1
1.617117358E1,9.781259766E0,-1.806144104E0,-5.688171387E-3,9.946619098E0
1.618124358E1,8.794062653E0,-1.590442657E0,6.303392029E-1,8.958927017E0
1.619131358E1,7.797135773E0,-1.297202454E0,9.704319763E-1,7.963654857E0
1.620138358E1,6.932234344E0,-9.265731812E-1,1.112785950E0,7.081857344E0
1.621145458E1,6.214925995E0,-5.879772949E-1,1.140628052E0,6.346026692E0
1.622152458E1,5.688321075E0,-3.315605164E-1,1.124910736E0,5.807956026E0
1.623159458E1,5.347928925E0,-1.169068909E-1,9.442364502E-1,5.431905143E0
1.624166458E1,5.154381409E0,1.199006653E-1,7.355703735E-1,5.207983069E0
1.625173458E1,5.117707672E0,4.493655396E-1,5.096900940E-1,5.162619994E0
1.626180558E1,5.066963196E0,7.354206848E-1,3.258723450E-1,5.130414447E0
1.627187558E1,5.055137787E0,8.208929443E-1,1.761836243E-1,5.124385226E0
1.628194558E1,5.054988098E0,8.077203369E-1,1.064286804E-1,5.120219124E0
1.629201558E1,5.056634674E0,8.647517395E-1,1.806742859E-1,5.133224425E0
1.630208558E1,5.162314911E0,9.157955933E-1,2.880010986E-1,5.250821025E0
1.631215658E1,5.346881104E0,9.410929871E-1,3.905378723E-1,5.443097774E0
1.632222658E1,5.540278931E0,9.446855164E-1,5.141807556E-1,5.643713600E0
1.633229658E1,5.772595825E0,9.439370728E-1,6.280938721E-1,5.882888888E0
1.634236658E1,6.104605408E0,9.497749329E-1,6.725514221E-1,6.214547853E0
1.635243658E1,6.495742035E0,8.988807678E-1,6.788383484E-1,6.592683272E0
1.636250758E1,6.805148621E0,8.006849670E-1,7.165599060E-1,6.889455876E0
1.637257758E1,7.236850891E0,6.947053528E-1,8.431965637E-1,7.318852833E0
1.638264758E1,7.848329315E0,6.370751953E-1,1.100062408E0,7.950614765E0
1.639271758E1,8.377179565E0,7.444020081E-1,1.411115570E0,8.527749936E0
1.640278758E1,8.984317017E0,7.777825928E-1,1.670975189E0,9.171426067E0
1.641285858E1,9.524842987E0,7.927514648E-1,1.958227844E0,9.756318215E0
1.642292858E1,9.946216736E0,8.843609619E-1,2.216291199E0,1.022845386E1
1.643299858E1,1.031669632E1,9.062155151E-1,2.433788910E0,1.063855150E1
1.644306858E1,1.067774551E1,9.047186279E-1,2.555785217E0,1.101656948E1
1.645313858E1,1.097323105E1,8.783734131E-1,2.541415100E0,1.129788167E1
1.646320958E1,1.125180176E1,8.307723999E-1,2.483485565E0,1.155252899E1
1.647327958E1,1.159668457E1,8.048762512E-1,2.509232025E0,1.189231534E1
1.648334958E1,1.189516388E1,7.421566772E-1,2.532433777E0,1.218437282E1
1.649341958E1,1.224468704E1,5.065466309E-1,2.518063660E0,1.251117880E1
1.650348958E1,1.268611908E1,1.770817566E-1,2.560724945E0,1.294319464E1
1.651356058E1,1.314192123E1,-6.915618896E-2,2.734812927E0,1.342363878E1
1.652363058E1,1.351793930E1,-1.589694214E-1,2.897524567E0,1.382590333E1
1.653370058E1,1.365535355E1,-2.883004761E-1,3.072660370E0,1.399975140E1
1.654377058E1,1.349922821E1,-3.329077148E-1,3.422931976E0,1.393041468E1
1.655384158E1,1.299777100E1,-1.624122620E-1,3.893553314E0,1.356938414E1
1.656391158E1,1.221235428E1,-1.115180969E-1,4.400249634E0,1.298138013E1
1.657398158E1,1.159473862E1,-4.025129700E-1,4.701273651E0,1.251806512E1
1.658405158E1,1.147364044E1,-9.087602234E-1,4.827012177E0,1.248079792E1
1.659412158E1,1.189546326E1,-1.270258484E0,4.860991516E0,1.291297182E1
1.660419258E1,1.276695099E1,-1.279389496E0,4.662504272E0,1.365176989E1
1.661426258E1,1.363334930E1,-1.229543152E0,4.330943756E0,1.435747413E1
1.662433258E1,1.400427795E1,-1.283580780E0,3.942950592E0,1.460528124E1
1.663440258E1,1.356030121E1,-1.185534668E0,3.419339447E0,1.403492585E1
1.664447258E1,1.239183105E1,-1.151405640E0,2.992277527E0,1.279988034E1
1.665454358E1,1.119506973E1,-1.419647827E0,2.961741028E0,1.166691460E1
1.666461358E1,1.031834290E1,-1.757046204E0,2.929557953E0,1.086911778E1
1.667468358E1,9.882000275E0,-2.261946259E0,2.674937439E0,1.048454198E1
1.668475358E1,1.014395554E1,-2.909349976E0,2.473905487E0,1.083902023E1
1.669482358E1,1.112426697E1,-3.117117920E0,2.345771942E0,1.178848530E1
1.670489458E1,1.237910751E1,-2.722987518E0,2.335443420E0,1.288841572E1
1.671496458E1,1.341405533E1,-2.176324310E0,2.419867859E0,1.380322529E1
1.672503458E1,1.381791550E1,-1.799857178E0,2.312840424E0,1.412527895E1
1.673510475E1,1.338546478E1,-1.655557251E0,2.102976837E0,1.365042303E1
1.674517475E1,1.204784637E1,-1.726509705E0,2.052382050E0,1.234275942E1
1.675524575E1,1.063014450E1,-1.923050995E0,2.278262329E0,1.104031596E1
1.676531575E1,9.378746796E0,-1.991309052E0,2.581381989E0,9.929236434E0
1.677538575E1,8.157735901E0,-1.873354340E0,2.811303864E0,8.829583281E0
1.678545575E1,7.064858551E0,-1.685494995E0,2.826871490E0,7.793864391E0
1.679552575E1,6.223607941E0,-1.419647827E0,2.827470245E0,6.981639044E0
1.680559675E1,5.702990570E0,-1.040785675E0,2.835553436E0,6.453502890E0
1.681566675E1,5.311853943E0,-6.849755859E-1,2.714604950E0,6.004503635E0
1.682573675E1,4.995861053E0,-4.020639038E-1,2.493065643E0,5.597826306E0
1.683580675E1,4.722828827E0,-2.320175171E-1,2.100731506E0,5.174168254E0
1.684587675E1,4.561015320E0,-1.627116394E-1,1.453327789E0,4.789728331E0
1.685594775E1,4.412224731E0,-1.586700439E-2,8.725355530E-1,4.497699093E0
1.686601775E1,4.482728119E0,1.989363098E-1,6.587800598E-1,4.535241803E0
1.687608775E1,4.602778473E0,5.173242188E-1,6.367758179E-1,4.675326455E0
1.688615775E1,4.336182861E0,6.426136780E-1,6.752458191E-1,4.435244194E0
1.689622775E1,4.383334808E0,5.370831299E-1,8.619076538E-1,4.499440758E0
1.690629875E1,4.542753296E0,8.161029053E-1,1.072519684E0,4.738452272E0
1.691636875E1,4.644092560E0,9.975256348E-1,1.238674164E0,4.908866140E0
1.692643875E1,4.736001434E0,1.022373962E0,1.355581055E0,5.031158723E0
1.693650875E1,5.095703430E0,1.085542603E0,1.539548492E0,5.432753054E0
1.694657875E1,5.845194855E0,1.218166809E0,1.841021576E0,6.248167228E0
1.695664975E1,6.677464142E0,1.322948914E0,2.074086914E0,7.116217937E0
1.696671975E1,7.671247559E0,1.465153198E0,2.211650848E0,8.117026086E0
1.697678975E1,8.407266998E0,1.718127136E0,2.309397583E0,8.886361259E0
