"Time (s)","Linear Acceleration x (m/s^2)","Linear Acceleration y (m/s^2)","Linear Acceleration z (m/s^2)","Absolute acceleration (m/s^2)"
5.657820000E-3,7.897999883E-1,-2.286399841E0,-3.669999912E-2,2.419246814E0
1.565782000E-2,-4.030000046E-2,9.829999506E-2,4.027999938E-1,4.165751001E-1
2.565625800E-2,-1.638000011E-1,-7.490000129E-2,1.964999884E-1,2.665571159E-1
3.565782000E-2,-9.989999980E-2,-1.623999923E-1,-4.219999909E-2,1.952808424E-1
4.565782000E-2,1.829999872E-2,-1.773999929E-1,-2.883999944E-1,3.390873106E-1
5.565625800E-2,1.145999953E-1,-1.476999968E-1,-5.730999708E-1,6.028200598E-1
6.565625800E-2,2.675999999E-1,-7.319999486E-2,-1.033399940E0,1.069992259E0
7.565782000E-2,3.709999919E-1,-4.010000080E-2,-1.483500004E0,1.529712805E0
8.565782000E-2,4.730999768E-1,5.849999934E-2,-1.815299988E0,1.876848391E0
9.565782000E-2,4.871999919E-1,1.635999978E-1,-2.116799831E0,2.178295278E0
1.056562580E-1,3.953000009E-1,1.982000023E-1,-2.319499969E0,2.361276231E0
1.156578200E-1,2.574000061E-1,2.114999890E-1,-2.492100000E0,2.514269162E0
1.256578200E-1,1.323999912E-1,1.753000021E-1,-2.752499819E0,2.761252451E0
1.356578200E-1,-2.789999917E-2,1.290999949E-1,-2.943799973E0,2.946761527E0
1.456562580E-1,-2.036999911E-1,1.017000005E-1,-3.046200037E0,3.054696588E0
1.556578200E-1,-2.388999909E-1,2.699999884E-2,-3.037600040E0,3.047099639E0
1.656578200E-1,-3.498999774E-1,4.629999772E-2,-2.943300009E0,2.964386720E0
1.756578200E-1,-4.271000028E-1,7.549999654E-2,-2.702399969E0,2.736983788E0
1.856578200E-1,-4.001999795E-1,1.536999941E-1,-2.422799826E0,2.460435471E0
1.956578200E-1,-2.969000041E-1,2.515999973E-1,-2.113899946E0,2.149424377E0
2.056578200E-1,-7.809999585E-2,3.680999875E-1,-1.755800009E0,1.795670037E0
2.156578200E-1,1.072999984E-1,4.627999961E-1,-1.426999927E0,1.504003297E0
2.256578200E-1,3.091000021E-1,5.443999767E-1,-1.166199923E0,1.323607346E0
2.356578200E-1,4.878999889E-1,5.727999806E-1,-9.240999818E-1,1.191682421E0
2.456578200E-1,5.855999589E-1,6.365999579E-1,-6.711999774E-1,1.094849865E0
2.556578200E-1,6.039999723E-1,5.796999931E-1,-5.153999925E-1,9.831099638E-1
2.656578200E-1,4.575999975E-1,5.020999908E-1,-1.724999994E-1,7.008982867E-1
2.756578200E-1,2.016000003E-1,5.026999712E-1,5.359999835E-2,5.442635216E-1
2.856578200E-1,-6.059999764E-2,5.408999920E-1,-1.199999973E-1,5.573555063E-1
2.956578200E-1,-3.504999876E-1,5.285999775E-1,-2.919999957E-1,6.982350428E-1
3.056578200E-1,-5.372999907E-1,5.945999622E-1,-3.454000056E-1,8.726634855E-1
3.156578200E-1,-4.784999788E-1,6.886999607E-1,-5.353999734E-1,9.949487409E-1
3.256578200E-1,-3.179000020E-1,8.501999974E-1,-6.175999641E-1,1.097875295E0
3.356578200E-1,-1.573999971E-1,9.541999698E-1,-5.245000124E-1,1.100169353E0
3.456578200E-1,1.287000030E-1,1.022300005E0,-1.884000003E-1,1.047451933E0
3.556578200E-1,4.025000036E-1,9.389999509E-1,4.192000031E-1,1.104289728E0
3.656578200E-1,6.965000033E-1,7.349999547E-1,1.053099990E0,1.460943797E0
3.756578200E-1,8.192999959E-1,4.402000010E-1,1.556800008E0,1.813464857E0
3.856578200E-1,8.234999776E-1,9.479999542E-2,2.136100054E0,2.291301528E0
3.956578200E-1,7.615999579E-1,-2.333000004E-1,2.654399872E0,2.771335791E0
4.056578200E-1,4.988999963E-1,-4.378999770E-1,3.161399841E0,3.230341554E0
4.156578200E-1,1.375999898E-1,-3.655000031E-1,3.207499981E0,3.231188657E0
4.256578200E-1,2.129999921E-2,-1.079999954E-1,2.754799843E0,2.756998343E0
4.356578200E-1,3.093000054E-1,4.910000041E-2,2.224499941E0,2.246436576E0
4.456578200E-1,8.258000016E-1,-1.799999923E-2,1.860099912E0,2.035249696E0
4.556578200E-1,1.397699952E0,-1.107999980E-1,1.875599980E0,2.341733777E0
4.656578200E-1,1.794299960E0,-1.577000022E-1,2.269999981E0,2.897806334E0
4.756578200E-1,2.034499884E0,-2.556000054E-1,2.748800039E0,3.429347284E0
4.856578200E-1,2.077600002E0,-4.696999788E-1,2.977799892E0,3.661192707E0
4.956578200E-1,1.701699972E0,-6.471999884E-1,2.883100033E0,3.409826450E0
5.056578200E-1,1.197000027E0,-7.181999683E-1,2.252799988E0,2.650231696E0
5.156578200E-1,8.662999868E-1,-7.439999580E-1,1.471399903E0,1.862533028E0
5.256578200E-1,7.677999735E-1,-7.888000011E-1,7.980999947E-1,1.359663871E0
5.356578200E-1,8.564999700E-1,-8.191999793E-1,2.900999784E-1,1.220179824E0
5.456578200E-1,1.077000022E0,-8.528999686E-1,1.032999977E-1,1.377693106E0
5.556578200E-1,1.295799971E0,-9.377999902E-1,3.938999772E-1,1.647338331E0
5.656578200E-1,1.424199939E0,-1.095299959E0,8.976999521E-1,2.008455295E0
5.756578200E-1,1.367799997E0,-1.299700022E0,1.321799994E0,2.303747426E0
5.856578200E-1,1.141099930E0,-1.407999992E0,1.520900011E0,2.365947986E0
5.956578200E-1,9.738999605E-1,-1.462199926E0,1.378299952E0,2.232984665E0
6.056578200E-1,9.278999567E-1,-1.365399957E0,8.848999739E-1,1.873062555E0
6.156578200E-1,9.546999931E-1,-1.126399994E0,2.069000006E-1,1.490985122E0
6.256578200E-1,1.036899924E0,-8.725000024E-1,-3.023999929E-1,1.388475229E0
6.356578200E-1,1.112999916E0,-7.008999586E-1,-8.238999844E-1,1.552044055E0
6.456578200E-1,1.089999914E0,-6.003000140E-1,-1.285200000E0,1.788909992E0
6.556578200E-1,9.727999568E-1,-5.170999765E-1,-1.707799911E0,2.032317072E0
6.656578200E-1,7.225999832E-1,-3.922999799E-1,-2.130899906E0,2.284028113E0
6.756578200E-1,4.569000006E-1,-3.823999763E-1,-2.466399908E0,2.537344253E0
6.856578200E-1,2.903999984E-1,-3.695999980E-1,-2.645699978E0,2.687129452E0
6.956578200E-1,2.398999929E-1,-3.048999906E-1,-2.580799818E0,2.609797638E0
7.056578200E-1,2.640999854E-1,-1.992999911E-1,-2.398999929E0,2.421708065E0
7.156578200E-1,3.640999794E-1,-1.048999950E-1,-2.275599957E0,2.306930421E0
7.256578200E-1,4.228999913E-1,5.799999926E-3,-2.278899908E0,2.317814236E0
7.356593830E-1,3.714999855E-1,8.399999887E-2,-2.261699915E0,2.293546325E0
7.456578200E-1,2.890000045E-1,1.791999936E-1,-2.371299982E0,2.395557815E0
7.556578200E-1,2.251999974E-1,2.236999869E-1,-2.568799973E0,2.588337308E0
7.656578200E-1,2.081999928E-1,2.305999994E-1,-2.482399940E0,2.501765989E0
7.756578200E-1,2.663999796E-1,2.511000037E-1,-2.122900009E0,2.154234112E0
7.856578200E-1,2.741999924E-1,2.854000032E-1,-1.754799962E0,1.798877901E0
7.956578200E-1,2.640999854E-1,3.321999907E-1,-1.485499978E0,1.544932303E0
8.056578200E-1,2.577999830E-1,3.805999756E-1,-1.304600000E0,1.383220277E0
8.156578200E-1,2.056999952E-1,3.906999826E-1,-1.113899946E0,1.198220370E0
8.256578200E-1,8.699999750E-2,3.422999978E-1,-8.739999533E-1,9.426633579E-1
8.356609450E-1,-1.300000004E-3,2.730000019E-1,-6.238999963E-1,6.810153423E-1
8.456578200E-1,-3.159999847E-2,1.913999915E-1,-2.651999891E-1,3.285780742E-1
8.556578200E-1,-4.199999850E-3,2.131000012E-1,3.590000048E-2,2.161436109E-1
8.656578200E-1,-3.549999744E-2,2.680999935E-1,2.700999975E-1,3.822196554E-1
8.756578200E-1,-8.429999650E-2,3.652999997E-1,3.594000041E-1,5.193447238E-1
8.856578200E-1,-2.275999933E-1,5.044000149E-1,2.744999826E-1,6.177146367E-1
8.956578200E-1,-3.474999964E-1,6.865999699E-1,5.299999844E-3,7.695478258E-1
9.056578200E-1,-3.568999767E-1,9.337999821E-1,-2.230999917E-1,1.024272232E0
9.156578200E-1,-3.465999961E-1,1.170300007E0,-3.728999794E-1,1.276239812E0
9.256578200E-1,-2.401999980E-1,1.309700012E0,-5.328999758E-1,1.434221930E0
9.356578200E-1,-1.799999969E-3,1.363999963E0,-5.766000152E-1,1.480866880E0
9.456578200E-1,2.365999967E-1,1.268100023E0,-1.032999977E-1,1.294112869E0
9.556578200E-1,4.732999802E-1,1.140599966E0,8.470999599E-1,1.497517778E0
9.656578200E-1,6.514999866E-1,9.296000004E-1,1.824799895E0,2.149070276E0
9.756578200E-1,8.043999672E-1,6.699999571E-1,2.694099903E0,2.890351802E0
9.856578200E-1,7.623999715E-1,4.271000028E-1,3.378000021E0,3.489205106E0
9.956578200E-1,4.007000029E-1,3.457999825E-1,3.397699833E0,3.438677402E0
1.005657820E0,-2.906000018E-1,4.653999805E-1,2.508899927E0,2.568194764E0
1.015657820E0,-8.195999861E-1,7.507999539E-1,1.387099981E0,1.777495729E0
1.025657820E0,-1.058799982E0,8.667999506E-1,4.706999958E-1,1.447051500E0
1.035657820E0,-1.086499929E0,7.710999846E-1,1.197999939E-1,1.337695526E0
1.045657820E0,-1.056900024E0,5.945000052E-1,5.485999584E-1,1.330950725E0
1.055657820E0,-9.936999679E-1,3.537999988E-1,1.463299990E0,1.803846148E0
1.065657820E0,-1.014599919E0,1.009999961E-2,2.268699884E0,2.485259377E0
1.075657820E0,-1.276499987E0,-3.301999867E-1,2.859899998E0,3.149208193E0
1.085657820E0,-1.623099923E0,-5.593999624E-1,2.768899918E0,3.257942362E0
1.095657820E0,-1.937500000E0,-6.911000013E-1,2.055000067E0,2.907671016E0
1.105657820E0,-2.104899883E0,-7.525999546E-1,1.246999979E0,2.559691223E0
1.115657820E0,-2.052099943E0,-7.372999787E-1,5.480999947E-1,2.248363636E0
1.125657820E0,-1.664899945E0,-7.579999566E-1,1.934999973E-1,1.839537445E0
1.135657820E0,-1.018999934E0,-7.343999743E-1,4.502999783E-1,1.334344131E0
1.145657820E0,-3.876000047E-1,-7.458999753E-1,9.891999960E-1,1.298120630E0
1.155657820E0,-8.649999648E-2,-7.616999745E-1,1.457399964E0,1.646719089E0
1.165657820E0,1.001999974E-1,-8.621999621E-1,1.758599997E0,1.961148327E0
1.175657820E0,1.133999974E-1,-1.010900021E0,1.502200007E0,1.814216986E0
1.185657820E0,-4.349999875E-2,-1.140900016E0,7.184000015E-1,1.348941681E0
1.195657820E0,-5.079999939E-2,-1.222599983E0,-1.717000008E-1,1.235642444E0
1.205657820E0,5.529999733E-2,-1.244099975E0,-9.243999720E-1,1.550921708E0
1.215657820E0,5.236999989E-1,-1.185099959E0,-1.834699988E0,2.246073830E0
1.225657820E0,1.041599989E0,-1.120499969E0,-2.149299860E0,2.638169935E0
1.235657820E0,1.367599964E0,-1.016199946E0,-1.487599969E0,2.261845631E0
1.245657820E0,1.437699914E0,-9.153999686E-1,-7.206999660E-1,1.850499010E0
1.255657820E0,1.416099906E0,-9.735999703E-1,-2.766999900E-1,1.740631704E0
1.265657820E0,1.076099992E0,-1.175400019E0,-2.910999954E-1,1.619967779E0
1.275657820E0,5.339999795E-1,-1.344699979E0,-7.339999676E-1,1.622384037E0
1.285657820E0,-2.869999968E-2,-1.391799927E0,-1.517099977E0,2.059010215E0
1.295657820E0,-4.371999800E-1,-1.294299960E0,-2.425799847E0,2.784036836E0
1.305657820E0,-6.755999923E-1,-1.165400028E0,-3.334199905E0,3.596036928E0
1.315657820E0,-7.512999773E-1,-9.997999668E-1,-3.861799955E0,4.059254922E0
1.325657820E0,-6.708999872E-1,-7.560999990E-1,-4.019599915E0,4.144753005E0
1.335657820E0,-4.314000010E-1,-5.322999954E-1,-3.925799847E0,3.985141614E0
1.345657820E0,-1.861999929E-1,-3.490999937E-1,-3.315799952E0,3.339321872E0
1.355657820E0,7.279999554E-2,-2.397999913E-1,-2.453099966E0,2.465867660E0
1.365657820E0,1.539999992E-1,-2.106999904E-1,-1.786799908E0,1.805758676E0
1.375657820E0,-2.539999969E-2,-2.764999866E-1,-1.462000012E0,1.488133542E0
1.385657820E0,-2.858999968E-1,-3.700999916E-1,-1.429000020E0,1.503580350E0
1.395657820E0,-5.572999716E-1,-3.831000030E-1,-1.668499947E0,1.800344673E0
1.405657820E0,-6.516999602E-1,-2.724999785E-1,-2.024299860E0,2.144005364E0
1.415657820E0,-4.708999991E-1,-7.180000097E-2,-2.105999947E0,2.159198422E0
1.425657820E0,-2.301999927E-1,1.057999954E-1,-1.855699897E0,1.872914249E0
1.435657820E0,4.349999875E-2,2.613999844E-1,-1.469999909E0,1.493694057E0
1.445657820E0,1.458999962E-1,4.818999767E-1,-7.912999988E-1,9.379072899E-1
1.455657820E0,-1.939999871E-2,7.240999937E-1,-1.323999912E-1,7.363605900E-1
1.465657820E0,-3.137999773E-1,8.438999653E-1,2.799999900E-2,9.007894188E-1
1.475657820E0,-6.117999554E-1,8.560000062E-1,-3.087999821E-1,1.096536650E0
1.485657820E0,-8.784999847E-1,8.295999765E-1,-7.803999782E-1,1.438409702E0
1.495657820E0,-9.621999860E-1,8.866999745E-1,-1.093899965E0,1.705486087E0
1.505657820E0,-7.885999680E-1,9.641999602E-1,-1.319700003E0,1.814711980E0
1.515657820E0,-4.852999747E-1,1.020300031E0,-1.312500000E0,1.731815368E0
1.525657820E0,-1.107999980E-1,1.022199988E0,-7.992999554E-1,1.302324796E0
1.535657820E0,1.563999951E-1,8.739999533E-1,3.466999829E-1,9.531724686E-1
1.545657820E0,3.786999881E-1,5.223000050E-1,1.470199943E0,1.605521363E0
1.555657820E0,4.026999772E-1,1.552999914E-1,2.436300039E0,2.474235890E0
1.565657820E0,1.331000030E-1,-1.063999981E-1,3.089699984E0,3.094395346E0
1.575657820E0,-2.009999901E-1,-3.484999835E-1,3.235999823E0,3.260912156E0
1.585657820E0,-5.516999960E-1,-4.490000010E-1,2.846899986E0,2.934418753E0
1.595657820E0,-7.075999975E-1,-2.732000053E-1,2.089499950E0,2.222913863E0
1.605657820E0,-4.481000006E-1,-8.429999650E-2,1.100700021E0,1.191402802E0
1.615657820E0,-1.384999901E-1,-1.094999984E-1,3.200999796E-1,3.655632556E-1
1.625657820E0,2.496999949E-1,-2.073999941E-1,-2.232999951E-1,3.939895085E-1
1.635657820E0,8.799999952E-1,-4.667999744E-1,-5.550000072E-1,1.140318910E0
1.645657820E0,1.578699946E0,-7.024999857E-1,-7.493999600E-1,1.883454287E0
1.655657820E0,2.083799839E0,-9.012999535E-1,-6.114999652E-1,2.351275310E0
1.665657820E0,2.355399847E0,-1.144500017E0,-2.579999864E-1,2.631416486E0
1.675657820E0,2.422799826E0,-1.439099908E0,1.852999926E-1,2.824058007E0
1.685657820E0,2.207799911E0,-1.685899973E0,2.698999941E-1,2.790964918E0
1.695657820E0,1.829899907E0,-1.942399979E0,-3.748999834E-1,2.694810076E0
1.705657820E0,1.424999952E0,-2.172199965E0,-1.248000026E0,2.882114088E0
1.715657820E0,1.104799986E0,-2.394700050E0,-2.504899979E0,3.637264802E0
1.725659383E0,1.051599979E0,-2.518299818E0,-4.184299946E0,4.995604320E0
1.735657820E0,1.456900001E0,-2.564599991E0,-6.217599869E0,6.881735163E0
1.745657820E0,1.752999902E0,-2.762099981E0,-7.517999649E0,8.198934302E0
1.755657820E0,2.057399988E0,-2.994400024E0,-7.902799606E0,8.697905945E0
1.765657820E0,2.340100050E0,-3.145999908E0,-7.648799896E0,8.595203518E0
1.775657820E0,2.306299925E0,-3.324599981E0,-7.266799927E0,8.317353278E0
1.785657820E0,2.158999920E0,-3.668399811E0,-6.737799644E0,7.969716549E0
1.795657820E0,1.914199948E0,-3.993799925E0,-5.875599861E0,7.357803545E0
1.805657820E0,1.527699947E0,-4.218299866E0,-4.836599827E0,6.597015899E0
1.815657820E0,8.855999708E-1,-4.409199715E0,-4.708199978E0,6.510950504E0
1.825657820E0,6.243000031E-1,-4.304299831E0,-5.479899883E0,6.996145386E0
1.835657820E0,1.066399932E0,-4.459700108E0,-5.414700031E0,7.095428831E0
1.845657820E0,1.591699958E0,-4.556699753E0,-3.856799841E0,6.178343338E0
1.855657820E0,2.096199989E0,-4.331599712E0,-1.437399983E0,5.022243441E0
1.865657820E0,2.504099846E0,-3.886499882E0,1.194399953E0,4.775142785E0
1.875657820E0,2.316200018E0,-3.426399946E0,3.124199867E0,5.183205950E0
1.885657820E0,1.715199947E0,-3.134999990E0,3.647300005E0,5.106166187E0
1.895657820E0,8.088999987E-1,-2.991400003E0,2.888799906E0,4.236503049E0
1.905657820E0,1.485999972E-1,-2.697700024E0,1.055400014E0,2.900609689E0
1.915657820E0,4.380000010E-2,-2.495199919E0,-6.019999981E-1,2.567166740E0
1.925657820E0,5.439999700E-1,-2.274600029E0,-3.480999768E-1,2.364511546E0
1.935657820E0,1.346699953E0,-1.675099969E0,1.509299994E0,2.626318172E0
1.945657820E0,1.991799951E0,-9.566999674E-1,3.451900005E0,4.098555296E0
1.955657820E0,2.125999928E0,-4.283999801E-1,4.577600002E0,5.065355270E0
1.965657820E0,1.696999907E0,-1.761000007E-1,4.817699909E0,5.110875885E0
1.975657820E0,1.020300031E0,-1.474999934E-1,4.198100090E0,4.322824628E0
1.985657820E0,2.895999849E-1,-2.570999861E-1,2.938599825E0,2.964006998E0
1.995657820E0,-2.635999918E-1,-1.949999928E-1,1.486699939E0,1.522427884E0
2.005659383E0,-6.976000071E-1,2.017000020E-1,5.099999905E-1,8.873717659E-1
2.015657820E0,-8.211999536E-1,5.119000077E-1,1.699000001E-1,9.824851101E-1
2.025657820E0,-6.783999801E-1,6.347999573E-1,-3.051999807E-1,9.779287024E-1
2.035657820E0,-6.482999921E-1,9.013999701E-1,1.083000004E-1,1.115591178E0
2.045657820E0,-3.252999783E-1,1.035099983E0,1.332299948E0,1.718218613E0
2.055657820E0,-2.279999852E-2,9.850999713E-1,2.295799971E0,2.498327300E0
2.065657820E0,-1.290999949E-1,9.151999950E-1,2.523099899E0,2.687059907E0
2.075657820E0,-2.362999916E-1,8.231999874E-1,1.911399961E0,2.094503692E0
2.085657820E0,-2.894999981E-1,6.254000068E-1,6.340999603E-1,9.364924864E-1
2.095657820E0,-3.545999825E-1,3.411999941E-1,-6.809999943E-1,8.401902021E-1
2.105657820E0,-3.810999990E-1,-1.860000007E-2,-1.757699966E0,1.798636245E0
2.115657820E0,-4.183000028E-1,-5.629000068E-1,-2.318599939E0,2.422341221E0
2.125657820E0,-5.827000141E-1,-1.197199941E0,-2.200399876E0,2.571883865E0
2.135657820E0,-5.587999821E-1,-2.008899927E0,-1.344599962E0,2.481105680E0
2.145657820E0,-4.660999775E-1,-2.620599985E0,1.167999953E-1,2.664288969E0
2.155657820E0,-1.762000024E-1,-3.063499928E0,1.448400021E0,3.393219838E0
2.165657820E0,1.838999987E-1,-3.218799829E0,2.628700018E0,4.159874438E0
2.175657820E0,5.313999653E-1,-3.337800026E0,3.416800022E0,4.806018865E0
2.185657820E0,6.496999860E-1,-3.335399866E0,3.489699841E0,4.870832302E0
2.195657820E0,6.424999833E-1,-3.258199930E0,3.205600023E0,4.615684621E0
2.205657820E0,6.040999889E-1,-3.345799923E0,2.962499857E0,4.509514311E0
2.215657820E0,2.448999882E-1,-3.465299845E0,2.600499868E0,4.339456024E0
2.225657820E0,1.609999873E-2,-3.474699974E0,2.484699965E0,4.271713126E0
2.235657820E0,9.739999473E-2,-3.371699810E0,3.280699968E0,4.705405259E0
2.245657820E0,5.350000039E-2,-3.347199917E0,3.999899864E0,5.215918755E0
2.255657820E0,-6.889999658E-2,-3.210899830E0,4.661600113E0,5.660842741E0
2.265657820E0,1.809999906E-2,-2.898000002E0,5.338599682E0,6.074485837E0
2.275657820E0,4.578999877E-1,-2.589599848E0,6.149999619E0,6.688661681E0
2.285657820E0,9.147999883E-1,-2.310999870E0,6.475299835E0,6.935927290E0
2.295659383E0,1.291100025E0,-2.076499939E0,6.250499725E0,6.711746277E0
2.305657820E0,1.791599989E0,-1.787299991E0,5.976299763E0,6.490025472E0
2.315657820E0,2.317899942E0,-1.352599978E0,5.919300079E0,6.499253824E0
2.325657820E0,2.716099977E0,-7.619999647E-1,5.879099846E0,6.520863289E0
2.335657820E0,2.997799873E0,-2.122999877E-1,6.057600021E0,6.762129353E0
2.345657820E0,2.965899944E0,2.741999924E-1,6.294099808E0,6.963292361E0
2.355657820E0,2.622499943E0,5.976999998E-1,6.208799839E0,6.766383575E0
2.365657820E0,2.056200027E0,7.089999914E-1,5.965600014E0,6.349726220E0
2.375657820E0,1.580699921E0,8.167999983E-1,5.958499908E0,6.218480171E0
2.385657820E0,1.217499971E0,8.751999736E-1,5.746200085E0,5.938610661E0
2.395657820E0,7.723999619E-1,1.101699948E0,5.278100014E0,5.446896752E0
2.405657820E0,3.628999889E-1,1.536899924E0,4.712800026E0,4.970336192E0
2.415657820E0,5.599999800E-3,2.131799936E0,4.172399998E0,4.685458790E0
2.425657820E0,-2.345999926E-1,2.679299831E0,3.621699810E0,4.511141126E0
2.435657820E0,-5.659999847E-1,2.970899820E0,2.854300022E0,4.158561090E0
2.445657820E0,-1.058200002E0,3.114699841E0,2.107399940E0,3.906696411E0
2.455657820E0,-1.613499999E0,3.083499908E0,1.522099972E0,3.798439450E0
2.465657820E0,-1.995099902E0,2.958400011E0,9.727999568E-1,3.698498885E0
2.475657820E0,-2.201499939E0,2.811499834E0,5.992999673E-1,3.620813962E0
2.485657820E0,-2.369099855E0,2.772099972E0,2.854000032E-1,3.657680350E0
2.495657820E0,-2.379799843E0,2.861099958E0,-5.629999936E-2,3.721896016E0
2.505657820E0,-2.244999886E0,3.010099888E0,-2.468999922E-1,3.763201486E0
2.515659383E0,-2.075099945E0,3.090299845E0,-3.531000018E-1,3.739073752E0
2.525657820E0,-1.843899965E0,2.982100010E0,-2.162999958E-1,3.512787104E0
2.535657820E0,-1.592399955E0,2.723899841E0,2.529000044E-1,3.165331953E0
2.545657820E0,-1.476400018E0,2.441499949E0,5.903999805E-1,2.913631951E0
2.555657820E0,-1.472299933E0,2.105599880E0,7.220000029E-1,2.668801595E0
2.565657820E0,-1.616099954E0,1.727199912E0,6.155999899E-1,2.444168968E0
2.575657820E0,-1.845600009E0,1.377900004E0,3.978999853E-1,2.337342982E0
2.585657820E0,-1.803299904E0,1.258499980E0,3.035999835E-1,2.219884162E0
2.595657820E0,-1.714100003E0,1.302500010E0,3.836999834E-1,2.186748905E0
2.605657820E0,-1.589599967E0,1.440500021E0,6.195999980E-1,2.232884351E0
2.615657820E0,-1.490199924E0,1.591499925E0,7.947999835E-1,2.320619494E0
2.625701570E0,-1.260100007E0,1.679299951E0,7.448999882E-1,2.227728966E0
2.635657820E0,-1.090399981E0,1.707199931E0,3.840999901E-1,2.061804192E0
2.645657820E0,-1.030399919E0,1.539799929E0,-6.309999526E-2,1.853831012E0
2.655657820E0,-9.350000024E-1,1.116099954E0,-3.202999830E-1,1.490803874E0
2.665657820E0,-6.381999850E-1,6.053999662E-1,-1.872999966E-1,8.993829155E-1
2.675657820E0,-9.160000086E-2,1.171000004E-1,4.657999873E-1,4.889505071E-1
2.685657820E0,5.577999949E-1,-3.208000064E-1,1.166700006E0,1.332382220E0
2.695657820E0,1.300499916E0,-7.214999795E-1,1.842399955E0,2.367762624E0
2.705657820E0,1.742699981E0,-1.088899970E0,2.372999907E0,3.139081860E0
2.715657820E0,1.892899990E0,-1.347499967E0,2.639299870E0,3.516351850E0
2.725657820E0,1.673200011E0,-1.614199996E0,2.779399872E0,3.623576072E0
2.735657820E0,1.194800019E0,-1.903599977E0,2.872900009E0,3.647573772E0
2.745657820E0,5.550999641E-1,-2.003399849E0,2.875000000E0,3.547868645E0
2.755657820E0,2.358999997E-1,-1.916999936E0,2.580999851E0,3.223677682E0
2.765657820E0,2.113000005E-1,-1.719599962E0,1.998600006E0,2.645009207E0
2.775657820E0,6.155999899E-1,-1.538999915E0,1.455599904E0,2.205959013E0
2.785657820E0,1.126399994E0,-1.339999914E0,1.194599986E0,2.119303150E0
2.795657820E0,1.450699925E0,-1.108600020E0,1.202299953E0,2.186103715E0
2.805657820E0,1.651999950E0,-8.685999513E-1,1.363399982E0,2.311369556E0
2.815657820E0,1.826699972E0,-5.931000113E-1,1.618199944E0,2.511408265E0
2.825657820E0,1.739799976E0,-2.360000014E-1,1.953299999E0,2.626400740E0
2.835657820E0,1.099499941E0,4.339999706E-2,2.127500057E0,2.395211927E0
2.845657820E0,3.339999914E-1,1.181999967E-1,1.995199919E0,2.026413075E0
2.855657820E0,-1.775999963E-1,1.283999979E-1,1.443399906E0,1.459942330E0
2.865657820E0,-4.434999824E-1,-5.049999803E-2,6.298999786E-1,7.720210277E-1
2.875657820E0,-5.442999601E-1,-4.363999963E-1,-8.619999886E-2,7.029493888E-1
2.885657820E0,-4.449999928E-1,-7.426999807E-1,-4.912999868E-1,9.954918041E-1
2.895657820E0,-2.274999917E-1,-9.492999911E-1,-8.254999518E-1,1.278427507E0
2.905657820E0,1.530999988E-1,-1.067099929E0,-1.016199946E0,1.481487158E0
2.915657820E0,5.536000133E-1,-1.156700015E0,-1.008999944E0,1.631719579E0
2.925657820E0,8.326999545E-1,-1.210799932E0,-8.606999516E-1,1.703006194E0
2.935657820E0,1.001199961E0,-1.280499935E0,-6.826999784E-1,1.762997648E0
2.945657820E0,1.005100012E0,-1.325699925E0,-4.992999732E-1,1.736953307E0
2.955657820E0,6.723999977E-1,-1.394099951E0,-4.913999736E-1,1.623918213E0
2.965657820E0,2.348999977E-1,-1.355199933E0,-6.340999603E-1,1.514538751E0
2.975657820E0,-9.730000049E-2,-1.155699968E0,-8.011999726E-1,1.409620908E0
2.985657820E0,-4.781999886E-1,-9.398999810E-1,-1.033200026E0,1.476343285E0
2.995657820E0,-7.397999763E-1,-5.494999886E-1,-1.261600018E0,1.562334422E0
3.005657820E0,-9.619999528E-1,-9.250000119E-2,-1.553499937E0,1.829579792E0
3.015657820E0,-1.068699956E0,2.718999982E-1,-2.044999838E0,2.323375463E0
3.025659383E0,-9.664999843E-1,6.198999882E-1,-2.360199928E0,2.624679393E0
3.035657820E0,-9.933999777E-1,8.713999987E-1,-2.652099848E0,2.963075273E0
3.045657820E0,-1.054299951E0,1.015399933E0,-2.810499907E0,3.168831825E0
3.055657820E0,-1.033200026E0,1.159799933E0,-2.647399902E0,3.069424119E0
3.065657820E0,-1.049799919E0,1.215600014E0,-2.318500042E0,2.820497422E0
3.075657820E0,-1.084699988E0,1.200799942E0,-2.070099831E0,2.627509824E0
3.085657820E0,-1.105899930E0,1.056100011E0,-1.787599921E0,2.352419046E0
3.095657820E0,-1.032299995E0,8.121999502E-1,-1.610299945E0,2.078070728E0
3.105657820E0,-9.504999518E-1,5.778999925E-1,-1.480399966E0,1.851756631E0
3.115657820E0,-9.490999579E-1,4.328999817E-1,-1.337700009E0,1.696359172E0
3.125657820E0,-9.021999836E-1,4.309999943E-1,-1.194100022E0,1.557434001E0
3.135657820E0,-9.361000061E-1,4.439999759E-1,-1.056999922E0,1.480090550E0
3.145657820E0,-1.000000000E0,4.267999828E-1,-9.100999832E-1,1.417899928E0
3.155657820E0,-1.042099953E0,4.724999964E-1,-8.212999701E-1,1.408460933E0
3.165657820E0,-1.180299997E0,5.609999895E-1,-7.121999860E-1,1.488307056E0
3.175657820E0,-1.238899946E0,6.629999876E-1,-5.525999665E-1,1.509903568E0
3.185657820E0,-1.247200012E0,7.490999699E-1,-4.698999822E-1,1.528876917E0
3.195657820E0,-1.274899960E0,8.186999559E-1,-2.870000005E-1,1.542079286E0
3.205657820E0,-1.167099953E0,9.002999663E-1,5.629999936E-2,1.475070174E0
3.215657820E0,-8.445999622E-1,1.071499944E0,3.725999892E-1,1.414316788E0
3.225657820E0,-3.647999763E-1,1.290899992E0,5.112999678E-1,1.435593769E0
3.235657820E0,-1.699999906E-3,1.417799950E0,2.533999979E-1,1.440267734E0
3.245657820E0,1.754999906E-1,1.421899915E0,-3.324999809E-1,1.470767096E0
3.255657820E0,3.815999925E-1,1.305299997E0,-9.005999565E-1,1.631106042E0
3.265657820E0,7.217999697E-1,1.160200000E0,-1.140900016E0,1.780087661E0
3.275657820E0,1.054899931E0,8.608999848E-1,-9.398999810E-1,1.654501321E0
3.285657820E0,1.349099994E0,5.054000020E-1,-3.631999791E-1,1.485736915E0
3.295657820E0,1.604299903E0,1.419000030E-1,4.316999912E-1,1.667416766E0
3.305657820E0,1.712999940E0,-9.369999915E-2,1.345499992E0,2.180256571E0
3.315657820E0,1.894099951E0,-2.422999889E-1,2.393899918E0,3.062201940E0
3.325657820E0,1.878299952E0,-2.266999930E-1,3.235999823E0,3.748479485E0
3.335657820E0,1.682899952E0,-7.729999721E-2,3.548199892E0,3.927830191E0
3.345657820E0,1.608500004E0,1.375000030E-1,3.215199947E0,3.597733900E0
3.355657820E0,1.615700006E0,2.331999987E-1,2.512300014E0,2.996084130E0
3.365657820E0,1.680699944E0,1.516999900E-1,1.837399960E0,2.494755259E0
3.375657820E0,1.495199919E0,-9.600000083E-2,1.167500019E0,1.899445996E0
3.385657820E0,1.067399979E0,-4.876999855E-1,8.887999654E-1,1.472127497E0
3.395657820E0,6.229000092E-1,-6.656000018E-1,1.162500024E0,1.477306363E0
3.405657820E0,1.333999932E-1,-6.671999693E-1,1.694299936E0,1.825815881E0
3.415657820E0,-8.669999987E-2,-5.528999567E-1,2.237400055E0,2.306333510E0
3.425657820E0,-9.979999810E-2,-2.680000067E-1,2.733500004E0,2.748418875E0
3.435657820E0,3.070000000E-2,9.359999746E-2,3.085399866E0,3.086971944E0
3.445657820E0,4.875999987E-1,4.588999748E-1,3.215199947E0,3.284182341E0
3.455657820E0,1.198300004E0,7.247999907E-1,2.985699892E0,3.297826826E0
3.465657820E0,1.857800007E0,7.705999613E-1,2.493799925E0,3.203792008E0
3.475657820E0,2.376999855E0,6.556999683E-1,1.946799994E0,3.141671685E0
3.485657820E0,2.667899847E0,4.898999929E-1,1.680299997E0,3.190783552E0
3.495657820E0,2.643399954E0,2.380999923E-1,2.010400057E0,3.329559026E0
3.505657820E0,2.416899920E0,-1.064999998E-1,2.521499872E0,3.494382503E0
3.515657820E0,2.008100033E0,-3.652999997E-1,3.026799917E0,3.650674947E0
3.525657820E0,1.520999908E0,-5.074999928E-1,3.401399851E0,3.760388000E0
3.535657820E0,1.074299932E0,-5.532999635E-1,3.515799999E0,3.717675460E0
3.545657820E0,7.067999840E-1,-5.439999700E-1,3.211599827E0,3.333148006E0
3.555657820E0,2.312999964E-1,-4.411999881E-1,2.499099970E0,2.548265641E0
3.565657820E0,-9.839999676E-2,-1.455999911E-1,1.655900002E0,1.665198706E0
3.575657820E0,-3.228999972E-1,2.168999910E-1,8.324999809E-1,9.188940268E-1
3.585657820E0,-4.935999811E-1,5.302000046E-1,1.702999920E-1,7.441472122E-1
3.595657820E0,-6.717000008E-1,7.847999930E-1,-2.777000070E-1,1.069677154E0
3.605657820E0,-8.201999664E-1,9.508999586E-1,-5.975999832E-1,1.390706459E0
3.615657820E0,-1.067600012E0,1.066499949E0,-8.181999922E-1,1.716578910E0
3.625657820E0,-1.382699966E0,1.076599956E0,-1.018499970E0,2.026886492E0
3.635657820E0,-1.644599915E0,1.016700029E0,-1.098799944E0,2.223904032E0
3.645657820E0,-1.858299971E0,8.018999696E-1,-1.049000025E0,2.279632294E0
3.655657820E0,-2.083199978E0,5.260999799E-1,-1.184000015E0,2.453234472E0
3.665657820E0,-2.338899851E0,3.076999784E-1,-1.336799979E0,2.711487779E0
3.675657820E0,-2.498100042E0,1.585000008E-1,-1.407599926E0,2.871752709E0
3.685657820E0,-2.600199938E0,8.039999753E-2,-1.552399993E0,3.029430576E0
3.695657820E0,-2.732800007E0,6.439999491E-2,-1.653699994E0,3.194850060E0
3.705657820E0,-2.768899918E0,8.150000125E-2,-1.710899949E0,3.255860507E0
3.715657820E0,-2.797399998E0,2.429999970E-2,-1.733099937E0,3.290846795E0
3.725657820E0,-2.720099926E0,-3.859999776E-2,-1.593099952E0,3.152522962E0
3.735657820E0,-2.527499914E0,-2.150999904E-1,-1.545699954E0,2.970473392E0
3.745657820E0,-2.434200048E0,-4.757999778E-1,-1.474399924E0,2.885406493E0
3.755657820E0,-2.214299917E0,-5.837999582E-1,-1.271499991E0,2.619285922E0
3.765657820E0,-1.886599898E0,-5.673999786E-1,-1.054799914E0,2.234682253E0
3.775657820E0,-1.597499967E0,-4.183999896E-1,-7.770999670E-1,1.825088780E0
3.785657820E0,-1.356199980E0,-2.379999906E-1,-6.370999813E-1,1.517174600E0
3.795657820E0,-1.230599999E0,-1.270999908E-1,-6.857999563E-1,1.414514880E0
3.805657820E0,-1.033999920E0,-1.460999995E-1,-9.346999526E-1,1.401486727E0
3.815657820E0,-8.759999871E-1,-3.446999788E-1,-1.283699989E0,1.591879303E0
3.825657820E0,-8.370999694E-1,-8.296999931E-1,-1.602499962E0,1.989257290E0
3.835657820E0,-7.421000004E-1,-1.371899962E0,-1.671700001E0,2.286351419E0
3.845657820E0,-2.970999777E-1,-1.828799963E0,-1.478999972E0,2.370700027E0
3.855657820E0,3.091999888E-1,-2.169399977E0,-1.167799950E0,2.483074227E0
3.865657820E0,1.025300026E0,-2.523099899E0,-6.967999935E-1,2.811192536E0
3.875657820E0,1.723099947E0,-2.882699966E0,-2.230999917E-1,3.365829189E0
3.885657820E0,2.217200041E0,-3.171900034E0,4.084999859E-1,3.891503319E0
3.895657820E0,2.352999926E0,-3.332799911E0,1.096799970E0,4.224586852E0
3.905657820E0,2.038899899E0,-3.258199930E0,1.559399962E0,4.147855810E0
3.915657820E0,1.488499999E0,-2.907699823E0,1.639499903E0,3.654902248E0
3.925657820E0,1.040099978E0,-2.593899965E0,1.350600004E0,3.103908080E0
3.935657820E0,8.022999763E-1,-2.609799862E0,8.780999780E-1,2.868065575E0
3.945657820E0,7.723000050E-1,-2.816999912E0,5.399999619E-1,2.970443698E0
3.955657820E0,8.654999733E-1,-2.978999853E0,4.232999980E-1,3.130928491E0
3.965657820E0,1.008299947E0,-3.085999966E0,4.755999744E-1,3.281197938E0
3.975657820E0,1.178099990E0,-3.030999899E0,6.024000049E-1,3.307229315E0
3.985657820E0,1.077899933E0,-2.856499910E0,9.431999922E-1,3.195479030E0
3.995657820E0,6.391999722E-1,-2.535599947E0,1.427999973E0,2.979434111E0
4.005657820E0,-6.350000203E-2,-1.961799979E0,1.753799915E0,2.632205454E0
4.015657820E0,-6.304000020E-1,-1.389500022E0,1.646099925E0,2.244495363E0
4.025657820E0,-1.017799973E0,-1.033599973E0,1.060299993E0,1.796797641E0
4.035657820E0,-1.324699998E0,-1.011500001E0,3.802999854E-1,1.709558544E0
4.045657820E0,-1.477299929E0,-1.223500013E0,-1.314999908E-1,1.922669917E0
4.055657820E0,-1.312099934E0,-1.441200018E0,-3.907999992E-1,1.987809942E0
4.065657820E0,-8.324999809E-1,-1.554600000E0,-4.997999966E-1,1.832931372E0
4.075657820E0,-2.307000011E-1,-1.527499914E0,-4.623000026E-1,1.612513495E0
4.085657820E0,3.394999802E-1,-1.383899927E0,-2.040999979E-1,1.439477702E0
4.095657820E0,8.459999561E-1,-1.266199946E0,3.989999741E-2,1.523341800E0
4.105657820E0,1.123499990E0,-1.199699998E0,2.056999952E-1,1.656455493E0
4.115657820E0,1.138700008E0,-1.191100001E0,3.170999885E-1,1.678067140E0
4.125657820E0,9.029999971E-1,-1.159099936E0,8.919999748E-2,1.472032030E0
4.135657820E0,5.565999746E-1,-1.021899939E0,-2.793000042E-1,1.196700258E0
4.145657820E0,1.152999997E-1,-7.250999808E-1,-7.512999773E-1,1.050483569E0
4.155657820E0,-4.264999926E-1,-3.154000044E-1,-1.232299924E0,1.341619361E0
4.165657820E0,-1.001799941E0,1.094999984E-1,-1.719599962E0,1.993142594E0
4.175657820E0,-1.379199982E0,5.008999705E-1,-2.178099871E0,2.626254446E0
4.185657820E0,-1.594799995E0,8.276999593E-1,-2.560699940E0,3.128203706E0
4.195657820E0,-1.606299996E0,1.067700028E0,-2.791699886E0,3.393194849E0
4.205657820E0,-1.497499943E0,1.208699942E0,-3.003999949E0,3.567559014E0
4.215657820E0,-1.380100012E0,1.287299991E0,-3.194900036E0,3.710687746E0
4.225657820E0,-1.265699983E0,1.263399959E0,-3.294799805E0,3.748850711E0
4.235657820E0,-1.271999955E0,1.098399997E0,-3.293599844E0,3.697602787E0
4.245657820E0,-1.297799945E0,8.441999555E-1,-3.242699862E0,3.593335589E0
4.255657820E0,-1.309299946E0,5.924999714E-1,-3.085999966E0,3.404220667E0
4.265657820E0,-1.313599944E0,3.761000037E-1,-2.805299997E0,3.120369225E0
4.275657820E0,-1.309499979E0,1.472999901E-1,-2.302799940E0,2.653182061E0
4.285657820E0,-1.246599913E0,-4.399999976E-2,-1.755999923E0,2.153945930E0
4.295657820E0,-1.201300025E0,-1.484999955E-1,-1.215899944E0,1.715688396E0
4.305657820E0,-1.123600006E0,-8.829999715E-2,-7.818999887E-1,1.371729367E0
4.315657820E0,-9.357999563E-1,8.579999954E-2,-3.850999773E-1,1.015571362E0
4.325657820E0,-6.893999577E-1,3.610000014E-1,-7.379999757E-2,7.816903110E-1
4.335657820E0,-5.029999614E-1,6.064000130E-1,-5.460000038E-2,7.897538205E-1
4.345657820E0,-3.177999854E-1,8.107999563E-1,-2.011999935E-1,8.937979846E-1
4.355657820E0,-9.420000017E-2,1.014599919E0,-2.874000072E-1,1.058718754E0
4.365657820E0,1.193000004E-1,1.218999982E0,-3.524000049E-1,1.274511361E0
4.375657820E0,4.711999893E-1,1.463999987E0,-3.579999804E-1,1.579078648E0
4.385657820E0,8.641999960E-1,1.681100011E0,-3.341999948E-1,1.919538621E0
4.395657820E0,1.141999960E0,1.849999905E0,-3.219999969E-1,2.197805167E0
4.405657820E0,1.138999939E0,1.988799930E0,-3.920999765E-1,2.325164169E0
4.415657820E0,1.138999939E0,2.078099966E0,-4.654999971E-1,2.415059125E0
4.425657820E0,1.287299991E0,2.049999952E0,-4.607999921E-1,2.464138329E0
4.435657820E0,1.454899907E0,1.924099922E0,-4.842000008E-1,2.460354424E0
4.445657820E0,1.650099993E0,1.710299969E0,-3.861999810E-1,2.407718089E0
4.455657820E0,1.919199944E0,1.468199968E0,-5.460000038E-2,2.417006564E0
4.465657820E0,2.388799906E0,1.257499933E0,5.514000058E-1,2.755306342E0
4.475657820E0,2.960500002E0,1.125900030E0,1.343899965E0,3.440679912E0
4.485657820E0,3.222399950E0,1.148800015E0,2.163300037E0,4.047649931E0
4.495657820E0,3.323999882E0,1.392899990E0,2.847599983E0,4.593252797E0
4.505657820E0,3.278399944E0,1.777699947E0,3.302199841E0,4.981229475E0
4.515657820E0,3.067600012E0,1.966599941E0,3.442799807E0,5.013038567E0
4.525657820E0,2.760099888E0,1.712999940E0,3.375299931E0,4.684567195E0
4.535657820E0,2.384699821E0,1.234599948E0,3.572499990E0,4.469204230E0
4.545657820E0,1.934299946E0,6.832000017E-1,3.907799959E0,4.413522294E0
4.555657820E0,1.621299982E0,4.263999760E-1,4.082099915E0,4.412932164E0
4.565657820E0,1.438199997E0,4.858999848E-1,3.917599916E0,4.201441078E0
4.575657820E0,1.302199960E0,6.642000079E-1,3.468199968E0,3.763681364E0
4.585657820E0,1.216300011E0,7.226999998E-1,3.025199890E0,3.339687917E0
4.595657820E0,8.795999885E-1,7.479999661E-1,2.929699898E0,3.149022321E0
4.605657820E0,6.902999878E-1,9.456999898E-1,3.059399843E0,3.275788446E0
4.615657820E0,8.129000068E-1,1.050400019E0,3.220599890E0,3.483735103E0
4.625657820E0,1.160399914E0,1.050099969E0,3.472699881E0,3.809052686E0
4.635657820E0,1.593299985E0,1.005900025E0,3.778599977E0,4.222352128E0
4.645657820E0,2.023099899E0,1.047500014E0,4.124700069E0,4.712042036E0
4.655657820E0,2.437500000E0,1.070699930E0,4.461100101E0,5.195114889E0
4.665657820E0,2.676300049E0,1.095399976E0,4.464499950E0,5.319233297E0
4.675657820E0,2.725399971E0,1.082299948E0,4.008199692E0,4.966371205E0
4.685657820E0,2.625799894E0,1.052099943E0,3.394699812E0,4.418792390E0
4.695657820E0,2.416499853E0,1.045499921E0,2.714499950E0,3.781673123E0
4.705657820E0,2.115499973E0,1.083699942E0,2.197299957E0,3.236954248E0
4.715657820E0,1.740199924E0,1.147300005E0,1.866999984E0,2.798264107E0
4.725657820E0,1.288100004E0,1.225700021E0,1.707099915E0,2.464900055E0
4.735657820E0,8.151999712E-1,1.366500020E0,1.652599931E0,2.294114171E0
4.745657820E0,3.484999835E-1,1.459999919E0,1.529099941E0,2.142708247E0
4.755657820E0,-5.350000039E-2,1.494899988E0,1.257900000E0,1.954456608E0
4.765657820E0,-4.108999968E-1,1.353299975E0,1.163599968E0,1.831454208E0
4.775657820E0,-7.021999955E-1,1.193400025E0,1.019600034E0,1.719555955E0
4.785657820E0,-8.657000065E-1,1.124599934E0,6.961999536E-1,1.580776988E0
4.795657820E0,-1.213799953E0,1.038900018E0,1.722999960E-1,1.606957019E0
4.805657820E0,-1.589999914E0,8.977999687E-1,-4.129999876E-1,1.872088006E0
4.815657820E0,-1.858299971E0,6.834999919E-1,-8.700000048E-1,2.162718435E0
4.825657820E0,-1.971099973E0,3.887999952E-1,-1.243600011E0,2.362824904E0
4.835657820E0,-1.850699902E0,5.489999801E-2,-1.393999934E0,2.317615143E0
4.845657820E0,-1.626699924E0,-2.585999966E-1,-1.435999990E0,2.185205384E0
4.855657820E0,-1.399099946E0,-5.335999727E-1,-1.367699981E0,2.028007107E0
4.865657820E0,-1.138599992E0,-7.026000023E-1,-1.356400013E0,1.905223793E0
4.875657820E0,-8.849999905E-1,-7.864999771E-1,-1.558799982E0,1.957463814E0
4.885657820E0,-9.599999785E-1,-8.646999598E-1,-2.046299934E0,2.420051529E0
4.895657820E0,-1.055400014E0,-8.856999874E-1,-2.509199858E0,2.862589314E0
4.905657820E0,-1.050499916E0,-1.010399938E0,-2.674799919E0,3.046147192E0
4.915657820E0,-1.118299961E0,-1.146399975E0,-2.595599890E0,3.049912539E0
4.925657820E0,-1.225099921E0,-1.263099909E0,-2.346799850E0,2.933216790E0
4.935657820E0,-1.426800013E0,-1.350700021E0,-2.139499903E0,2.904756213E0
4.945657820E0,-1.674600005E0,-1.488099933E0,-2.092000008E0,3.065157519E0
4.955657820E0,-1.813899994E0,-1.706599951E0,-2.133399963E0,3.279346274E0
4.965657820E0,-1.966399908E0,-2.027400017E0,-2.258599997E0,3.616400610E0
4.975657820E0,-2.047600031E0,-2.421299934E0,-2.423499823E0,3.991078883E0
4.985657820E0,-2.050499916E0,-2.858099937E0,-2.662999868E0,4.411899076E0
4.995657820E0,-1.967899919E0,-3.355299950E0,-2.708899975E0,4.740127310E0
5.005657820E0,-1.889099956E0,-3.871099949E0,-2.559200048E0,5.010351120E0
5.015657820E0,-1.627999902E0,-4.382699966E0,-2.252699852E0,5.189710907E0
5.025657820E0,-1.175099969E0,-4.819099903E0,-1.837899923E0,5.289844983E0
5.035657820E0,-5.691999793E-1,-5.002699852E0,-1.423099995E0,5.232227826E0
5.045657820E0,-4.449999705E-2,-4.943599701E0,-1.088500023E0,5.062212022E0
5.055657820E0,3.310999870E-1,-4.665199757E0,-8.950999975E-1,4.761818978E0
5.065657820E0,3.416999876E-1,-4.259599686E0,-8.039999604E-1,4.348259916E0
5.075657820E0,1.255999953E-1,-3.866499901E0,-7.479999661E-1,3.940190451E0
5.085657820E0,-1.030000020E-2,-3.642799854E0,-8.689000010E-1,3.745007888E0
5.095657820E0,1.439999975E-2,-3.587899923E0,-1.051699996E0,3.738891026E0
5.105657820E0,1.499999911E-1,-3.691699982E0,-1.275200009E0,3.908616612E0
5.115657820E0,3.265999854E-1,-3.766899824E0,-1.448899984E0,4.049137316E0
5.125657820E0,5.399999619E-1,-3.587199926E0,-1.390100002E0,3.884839931E0
5.135657820E0,8.193999529E-1,-3.233599901E0,-1.278499961E0,3.572414695E0
5.145657820E0,9.677000046E-1,-2.702800035E0,-1.088299990E0,3.070173969E0
5.155657820E0,8.887999654E-1,-2.218799829E0,-7.163000107E-1,2.495220184E0
5.165657820E0,7.497000098E-1,-1.882999897E0,-2.425999939E-1,2.041223524E0
5.175657820E0,5.924000144E-1,-1.676599979E0,2.791999876E-1,1.799966083E0
5.185657820E0,4.492999911E-1,-1.650499940E0,8.240999579E-1,1.898726224E0
5.195657820E0,2.723999918E-1,-1.903699994E0,1.399199963E0,2.378242199E0
5.205657820E0,2.369999886E-2,-2.357599974E0,1.727599978E0,2.922916525E0
5.215657820E0,-1.488000005E-1,-2.704299927E0,1.878099918E0,3.295851762E0
5.225657820E0,-1.278999895E-1,-2.822899818E0,1.862699986E0,3.384490069E0
5.235657820E0,-1.409999933E-2,-2.712699890E0,1.911299944E0,3.318434417E0
5.245657820E0,2.671999931E-1,-2.315500021E0,1.971199989E0,3.052632566E0
5.255657820E0,6.349999905E-1,-1.801099896E0,1.966699958E0,2.741367277E0
5.265657820E0,8.817999959E-1,-1.341399908E0,1.740199924E0,2.367534735E0
5.275657820E0,9.481999874E-1,-1.038100004E0,1.309899926E0,1.921606789E0
5.285657820E0,7.175999880E-1,-8.330000043E-1,7.615000010E-1,1.337430746E0
5.295657820E0,3.200999796E-1,-6.248999834E-1,2.493999898E-1,7.450935117E-1
5.305657820E0,-1.425999999E-1,-3.504999876E-1,-2.689000070E-1,4.642113905E-1
5.315657820E0,-6.488999724E-1,-6.799999624E-3,-6.970999837E-1,9.524000218E-1
5.325657820E0,-1.071200013E0,3.393999934E-1,-9.748999476E-1,1.487646373E0
5.335657820E0,-1.450099945E0,6.786999702E-1,-1.089900017E0,1.936828735E0
5.345657820E0,-1.680199981E0,9.802999496E-1,-1.156799912E0,2.263237947E0
5.355657820E0,-1.744699955E0,1.213199973E0,-1.201300025E0,2.441096855E0
5.365657820E0,-1.851699948E0,1.325699925E0,-1.271099925E0,2.608058284E0
5.375657820E0,-1.845299959E0,1.424799919E0,-1.365599990E0,2.701860485E0
5.385657820E0,-1.745499969E0,1.422899961E0,-1.464200020E0,2.686130328E0
5.395657820E0,-1.737800002E0,1.428699970E0,-1.577299953E0,2.747545740E0
5.405657820E0,-1.742199898E0,1.394400001E0,-1.667599916E0,2.785767637E0
5.415657820E0,-1.816199899E0,1.263000011E0,-1.686699986E0,2.781853329E0
5.425657820E0,-1.889699936E0,1.124799967E0,-1.703899980E0,2.781980581E0
5.435657820E0,-1.873299956E0,1.001600027E0,-1.591699958E0,2.654423496E0
5.445657820E0,-1.746699929E0,9.343999624E-1,-1.408499956E0,2.430624623E0
5.455657820E0,-1.441599965E0,9.524999857E-1,-1.065400004E0,2.029912277E0
5.465657820E0,-1.125599980E0,9.465000033E-1,-6.006999612E-1,1.588608830E0
5.475657820E0,-8.869999647E-1,9.923999906E-1,-3.597999811E-1,1.378797558E0
5.485657820E0,-7.350999713E-1,1.128199935E0,-2.460999936E-1,1.368858016E0
5.495657820E0,-6.604999900E-1,1.274699926E0,-2.298000008E-1,1.453935411E0
5.505657820E0,-6.627999544E-1,1.442099929E0,-3.213000000E-1,1.619317657E0
5.515657820E0,-5.550000072E-1,1.621999979E0,-3.238999844E-1,1.744654734E0
5.525657820E0,-1.808999926E-1,1.814700007E0,-1.477999985E-1,1.829673677E0
5.535657820E0,3.800999820E-1,1.940799952E0,-6.709999591E-2,1.978808444E0
5.545657820E0,9.207999706E-1,2.017400026E0,-3.249999881E-2,2.217843931E0
5.555657820E0,1.370499969E0,2.130399942E0,1.326999962E-1,2.536628346E0
5.565657820E0,1.571599960E0,2.149800062E0,1.140999943E-1,2.665442843E0
5.575657820E0,1.720600009E0,1.977899909E0,5.729999766E-2,2.622181483E0
5.585657820E0,1.945599914E0,1.724999905E0,1.996999979E-1,2.607846580E0
5.595657820E0,2.394399881E0,1.491899967E0,5.134999752E-1,2.867507372E0
5.605657820E0,2.968799829E0,1.259500027E0,9.406999946E-1,3.359319756E0
5.615657820E0,3.501899958E0,1.056399941E0,1.431699991E0,3.927982818E0
5.625657820E0,4.038099766E0,1.036700010E0,1.892599940E0,4.578529367E0
5.635657820E0,4.485799789E0,1.155499935E0,2.195600033E0,5.126230521E0
5.645657820E0,4.710599899E0,1.522099972E0,2.551800013E0,5.569400600E0
5.655657820E0,4.639999866E0,2.058199883E0,2.765799999E0,5.780608545E0
5.665657820E0,4.489999771E0,2.574599981E0,2.744299889E0,5.858314168E0
5.675657820E0,4.475699902E0,2.756099939E0,2.594199896E0,5.861556925E0
5.685657820E0,4.466899872E0,2.434399843E0,2.434799910E0,5.639835783E0
5.695657820E0,4.248799801E0,1.748299956E0,2.217499971E0,5.101583931E0
5.705657820E0,3.815699816E0,1.291700006E0,2.049499989E0,4.519790282E0
5.715657820E0,3.290099859E0,1.256799936E0,1.989599943E0,4.045097168E0
5.725657820E0,2.908499956E0,1.508700013E0,1.783699989E0,3.730567434E0
5.735657820E0,2.628799915E0,1.742100000E0,1.602100015E0,3.537262482E0
5.745657820E0,2.444399834E0,1.865399957E0,1.598799944E0,3.465684464E0
5.755657820E0,2.516399860E0,1.925399899E0,1.849399924E0,3.668748167E0
5.765657820E0,2.636299849E0,1.831599951E0,2.198400021E0,3.890732312E0
5.775657820E0,2.979599953E0,1.699999928E0,2.596499920E0,4.302304902E0
5.785657820E0,3.351099968E0,1.539399981E0,2.864399910E0,4.669519262E0
5.795657820E0,3.526899815E0,1.418099999E0,3.087399960E0,4.897149009E0
5.805657820E0,3.695899963E0,1.424700022E0,3.232699871E0,5.112709179E0
5.815657820E0,3.811100006E0,1.372999907E0,3.267699957E0,5.204562903E0
5.825657820E0,3.794999838E0,1.242699981E0,3.287899971E0,5.172679502E0
5.835657820E0,3.688399792E0,1.003700018E0,3.251199961E0,5.018167787E0
5.845657820E0,3.501999855E0,7.050999999E-1,3.323499918E0,4.879223371E0
5.855657820E0,3.236899853E0,4.848999977E-1,3.385999918E0,4.709314611E0
5.865657820E0,2.737499952E0,3.621999919E-1,3.240499973E0,4.257456389E0
5.875657820E0,2.063199997E0,3.269000053E-1,2.866799831E0,3.547139568E0
5.885657820E0,1.292999983E0,3.410999775E-1,2.394199848E0,2.742333142E0
5.895657820E0,6.029999852E-1,4.163999856E-1,1.973399997E0,2.105066621E0
5.905657820E0,1.100999936E-1,5.248999596E-1,1.755699992E0,1.835789868E0
5.915657820E0,-1.772999913E-1,5.972999930E-1,1.685199976E0,1.796691829E0
5.925657820E0,-4.657000005E-1,6.419999599E-1,1.555599928E0,1.746119004E0
5.935657820E0,-6.460999846E-1,5.792999864E-1,1.325999975E0,1.584711204E0
5.945657820E0,-9.139999747E-1,4.189999998E-1,1.015499949E0,1.429054618E0
5.955657820E0,-1.110299945E0,2.319999933E-1,7.803999782E-1,1.376813019E0
5.965657820E0,-1.124400020E0,1.213999987E-1,6.495000124E-1,1.304171626E0
5.975657820E0,-9.736999869E-1,9.009999782E-2,6.603999734E-1,1.179973643E0
5.985657820E0,-8.149999976E-1,8.859999478E-2,6.949999928E-1,1.074755761E0
5.995657820E0,-6.789000034E-1,6.579999626E-2,7.246999741E-1,9.952009378E-1
6.005657820E0,-5.564999580E-1,-2.829999849E-2,7.802999616E-1,9.588332093E-1
6.015657820E0,-4.975999892E-1,-2.635999918E-1,7.156999707E-1,9.106685198E-1
6.025657820E0,-4.239999950E-1,-5.819000006E-1,7.768999934E-1,1.059224814E0
6.035657820E0,-3.164999783E-1,-8.739999533E-1,9.853000045E-1,1.354571613E0
6.045657820E0,-3.612000048E-1,-9.828999639E-1,1.115299940E0,1.529853502E0
6.055657820E0,-1.856999993E-1,-9.962999821E-1,1.305199981E0,1.652466379E0
6.065657820E0,1.299999952E-1,-9.614999890E-1,1.606999993E0,1.877187046E0
6.075657820E0,4.301999807E-1,-1.016799927E0,1.763999939E0,2.081021360E0
6.085657820E0,4.429000020E-1,-1.087599993E0,1.634099960E0,2.012291439E0
6.095657820E0,1.014999971E-1,-1.185999990E0,1.332499981E0,1.786744085E0
6.105657820E0,-3.750000000E-1,-1.439000010E0,7.087999582E-1,1.647344351E0
6.115657820E0,-9.153999686E-1,-1.804299951E0,-2.290999889E-1,2.036158692E0
6.125657820E0,-1.201499939E0,-2.353899956E0,-1.345799923E0,2.965741819E0
6.135657820E0,-1.600499988E0,-2.638900042E0,-2.095700026E0,3.730596767E0
6.145657820E0,-2.026000023E0,-3.087599993E0,-2.770599842E0,4.616727552E0
6.155657820E0,-2.567800045E0,-3.661000013E0,-3.398599863E0,5.616671541E0
6.165657820E0,-3.268199921E0,-4.218299866E0,-3.997099876E0,6.667232702E0
6.175657820E0,-3.837299824E0,-4.568999767E0,-4.691199780E0,7.589992370E0
6.185657820E0,-4.172999859E0,-4.874300003E0,-5.447400093E0,8.417059826E0
6.195657820E0,-4.115699768E0,-5.208799839E0,-5.927499771E0,8.899765945E0
6.205657820E0,-3.791399956E0,-5.607100010E0,-6.026700020E0,9.062858118E0
6.215657820E0,-3.408499956E0,-5.820899963E0,-5.871799946E0,8.943085762E0
6.225657820E0,-2.845299959E0,-5.790799618E0,-5.438600063E0,8.438451441E0
6.235657820E0,-2.325899839E0,-5.519799709E0,-4.756899834E0,7.648927698E0
6.245657820E0,-1.863999963E0,-4.997600079E0,-4.114599705E0,6.736500066E0
6.255657820E0,-1.581799984E0,-4.480899811E0,-3.739899874E0,6.047098922E0
6.265657820E0,-1.415399909E0,-4.303400040E0,-3.665199995E0,5.827203429E0
6.275657820E0,-1.144799948E0,-4.783599854E0,-3.815899849E0,6.225310124E0
6.285657820E0,-7.486000061E-1,-5.498799801E0,-3.909299850E0,6.788212323E0
6.295657820E0,-5.986999869E-1,-6.258800030E0,-3.838499784E0,7.366484920E0
6.305657820E0,-7.518999577E-1,-6.655900002E0,-3.773000002E0,7.687775191E0
6.315657820E0,-1.087800026E0,-6.587699890E0,-3.755699873E0,7.660703641E0
6.325657820E0,-1.449800014E0,-6.168799877E0,-3.687899828E0,7.331890421E0
6.335657820E0,-1.614199996E0,-5.684299946E0,-3.515499830E0,6.875728802E0
6.345657820E0,-1.494599938E0,-5.411299706E0,-3.135699987E0,6.430288321E0
6.355657820E0,-1.090899944E0,-5.519599915E0,-2.526199818E0,6.167473666E0
6.365657820E0,-5.583999753E-1,-5.923899651E0,-1.805199981E0,6.217969490E0
6.375657820E0,2.730000019E-2,-6.341799736E0,-9.763000011E-1,6.416566907E0
6.385657820E0,6.895999908E-1,-6.883699894E0,-2.324999869E-1,6.922061010E0
6.395657820E0,1.108099937E0,-7.472899914E0,3.894999921E-1,7.564643338E0
6.405657820E0,1.069199920E0,-7.902599812E0,7.655000091E-1,8.011258485E0
6.415657820E0,9.380999804E-1,-7.991299629E0,8.594999909E-1,8.091949182E0
6.425657820E0,8.233000040E-1,-7.724399567E0,8.274999857E-1,7.812101368E0
6.435657820E0,7.145999670E-1,-7.206299782E0,6.022999883E-1,7.266648122E0
6.445657820E0,6.412999630E-1,-6.485799789E0,3.430999815E-1,6.526452493E0
6.455657820E0,4.943999946E-1,-5.673199654E0,1.122999936E-1,5.695808718E0
6.465657820E0,3.130999804E-1,-4.860099792E0,-8.969999850E-2,4.871000686E0
6.475657820E0,2.242999971E-1,-3.942499876E0,-2.633999884E-1,3.957650226E0
6.485657820E0,3.944000006E-1,-3.011899948E0,-2.913999856E-1,3.051558063E0
6.495657820E0,4.394999743E-1,-2.044699907E0,-2.631999850E-1,2.107897571E0
6.505657820E0,3.182999790E-1,-1.203400016E0,-2.590000033E-1,1.271443069E0
6.515657820E0,3.127999902E-1,-6.283000112E-1,-2.477999926E-1,7.443181942E-1
6.525657820E0,2.432999909E-1,-2.331999987E-1,-2.248999923E-1,4.051630925E-1
6.535657820E0,1.665000021E-1,-9.659999609E-2,-2.161999941E-1,2.894758149E-1
6.545657820E0,2.285999954E-1,-1.190999970E-1,-1.704999954E-1,3.090518008E-1
6.555657820E0,1.645999998E-1,-2.004999965E-1,-9.559999406E-2,2.764647670E-1
6.565657820E0,9.250000119E-2,-2.694999874E-1,-1.274999976E-1,3.121582016E-1
6.575657820E0,1.019999981E-1,-1.955999881E-1,-1.674000025E-1,2.769225809E-1
6.585657820E0,5.609999970E-2,-1.630000025E-2,-2.427999973E-1,2.497293308E-1
6.595657820E0,6.289999932E-2,9.279999882E-2,-3.519999981E-1,3.694215050E-1
6.605657820E0,2.987000048E-1,8.329999447E-2,-3.647999763E-1,4.787897291E-1
6.615657820E0,6.933999658E-1,1.319999993E-2,-1.992999911E-1,7.215942343E-1
6.625657820E0,1.138899922E0,-1.709999889E-2,1.834999919E-1,1.153714735E0
6.635657820E0,1.487699986E0,-1.653999984E-1,5.063999891E-1,1.580205479E0
6.645657820E0,1.720600009E0,-2.064999938E-1,8.968999982E-1,1.951290918E0
6.655657820E0,1.869499922E0,-1.919000000E-1,1.103099942E0,2.179147781E0
6.665657820E0,1.995700002E0,-1.881999969E-1,1.240000010E0,2.357082468E0
6.675657820E0,2.151299953E0,-1.246999949E-1,1.315599918E0,2.524766271E0
6.685657820E0,2.554100037E0,1.176999956E-1,1.358799934E0,2.895447728E0
6.695657820E0,3.027199984E0,4.696999788E-1,1.567399979E0,3.441119077E0
6.705657820E0,3.627699852E0,8.992999792E-1,1.970999956E0,4.225374243E0
6.715657820E0,4.255899906E0,1.472499967E0,2.340399981E0,5.075274597E0
6.725657820E0,4.830699921E0,1.931499958E0,2.474400043E0,5.760990313E0
6.735657820E0,5.437900066E0,2.352399826E0,2.398399830E0,6.391937407E0
6.745657820E0,6.085000038E0,2.616299868E0,2.101999998E0,6.949147750E0
6.755657820E0,6.866999626E0,2.633999825E0,1.715299964E0,7.552211127E0
6.765657820E0,7.663099766E0,2.561899900E0,1.350399971E0,8.192069897E0
6.775657820E0,8.284299850E0,2.507900000E0,1.100199938E0,8.725229299E0
6.785657820E0,8.699600220E0,2.501799822E0,9.582999945E-1,9.102767997E0
6.795657820E0,8.988399506E0,2.731699944E0,8.774999976E-1,9.435227422E0
6.805657820E0,9.150699615E0,3.296700001E0,7.516999841E-1,9.755438853E0
6.815657820E0,9.195300102E0,4.030600071E0,7.896999717E-1,1.007089405E1
6.825657820E0,9.157799721E0,4.795300007E0,1.034699917E0,1.038897501E1
6.835657820E0,9.150699615E0,5.383299828E0,1.272199988E0,1.069269439E1
6.845657820E0,9.285499573E0,5.655299664E0,1.611099958E0,1.099083981E1
6.855657820E0,9.576000214E0,5.569999695E0,2.276599884E0,1.130962350E1
6.865657820E0,9.615900040E0,5.056900024E0,3.294199944E0,1.135295225E1
6.875657820E0,9.003299713E0,4.546999931E0,4.105000019E0,1.088970336E1
6.885657820E0,7.815099716E0,4.298099995E0,4.421499729E0,9.954853439E0
6.895657820E0,6.580699921E0,4.216000080E0,4.215799809E0,8.879934467E0
6.905657820E0,5.702300072E0,4.275799751E0,3.830899954E0,8.091630496E0
6.915657820E0,5.283599854E0,4.382400036E0,3.457099915E0,7.685922021E0
6.925657820E0,5.217400074E0,4.369800091E0,3.197999954E0,7.519549193E0
6.935657820E0,5.451900005E0,4.187799931E0,3.175099850E0,7.572459375E0
6.945657820E0,5.767399788E0,3.794899940E0,3.332499981E0,7.666141272E0
6.955657820E0,5.994299889E0,3.268199921E0,3.700599909E0,7.765771150E0
6.965657820E0,6.112599850E0,2.802700043E0,4.080699921E0,7.865819493E0
6.975657820E0,6.113399982E0,2.467000008E0,4.294799805E0,7.867976471E0
6.985657820E0,6.075799942E0,2.201900005E0,4.322700024E0,7.774924055E0
6.995659383E0,6.077699661E0,1.908399940E0,4.107599735E0,7.579762469E0
7.005657820E0,6.148399830E0,1.527300000E0,3.889799833E0,7.434111144E0
7.015679695E0,6.149199963E0,1.008399963E0,3.733799934E0,7.264350805E0
7.025657820E0,6.052000046E0,5.088999867E-1,3.692299843E0,7.107655160E0
7.035657820E0,5.957099915E0,1.473999918E-1,3.717199802E0,7.023271355E0
7.045657820E0,5.856999874E0,-5.549999699E-2,3.827699900E0,6.997057546E0
7.055657820E0,5.645099640E0,-1.097999960E-1,3.932899952E0,6.880908953E0
7.065657820E0,5.313499928E0,4.399999976E-3,4.018899918E0,6.662196138E0
7.075657820E0,4.853199959E0,2.570999861E-1,4.051199913E0,6.327074441E0
7.085657820E0,4.371799946E0,5.194999576E-1,3.976799965E0,5.932744132E0
7.095657820E0,3.858599901E0,6.714000106E-1,3.793099880E0,5.452263555E0
7.105657820E0,3.341199875E0,6.509000063E-1,3.627300024E0,4.974393720E0
7.115657820E0,2.789799929E0,4.069999754E-1,3.451799870E0,4.456854828E0
7.125657820E0,2.083299875E0,-2.477999926E-1,3.108899832E0,3.750573472E0
7.135657820E0,1.702799916E0,-7.276999950E-1,2.894999981E0,3.436582565E0
7.145657820E0,1.285200000E0,-1.377900004E0,2.580600023E0,3.195284642E0
7.155657820E0,9.888999462E-1,-2.111599922E0,2.354799986E0,3.313889001E0
7.165657820E0,7.373999953E-1,-2.838500023E0,2.062900066E0,3.585581936E0
7.175657820E0,5.123000145E-1,-3.527499914E0,1.737399936E0,3.965383397E0
7.185657820E0,2.750000060E-1,-4.138400078E0,1.420599937E0,4.384071668E0
7.195657820E0,7.509999722E-2,-4.757599831E0,1.194399953E0,4.905811595E0
7.205657820E0,-1.847999990E-1,-5.333699703E0,9.924999475E-1,5.428403053E0
7.215657820E0,-4.451999962E-1,-5.864099979E0,8.750999570E-1,5.945727167E0
7.225657820E0,-7.342999578E-1,-6.336199760E0,7.236999869E-1,6.419530006E0
7.235657820E0,-1.031399965E0,-6.668299675E0,6.439999938E-1,6.778255117E0
7.245657820E0,-1.237699986E0,-6.916100025E0,5.942999721E-1,7.051066109E0
7.255657820E0,-1.519799948E0,-7.048399925E0,5.235999823E-1,7.229376898E0
7.265657820E0,-1.740599990E0,-7.024499893E0,3.404999971E-1,7.244944950E0
7.275657820E0,-1.812099934E0,-6.941899776E0,4.169999808E-2,7.174637103E0
7.285657820E0,-1.931299925E0,-6.987999916E0,-3.254999816E-1,7.257273074E0
7.295657820E0,-2.109200001E0,-7.056399822E0,-7.229999900E-1,7.400285946E0
7.305657820E0,-2.336199999E0,-7.215799809E0,-1.123199940E0,7.667279532E0
7.315657820E0,-2.465499878E0,-7.534199715E0,-1.556999922E0,8.078805837E0
7.325657820E0,-2.674099922E0,-8.039799690E0,-1.839699984E0,8.670275975E0
7.335657820E0,-2.922099829E0,-8.660699844E0,-1.917799950E0,9.339397510E0
7.345657820E0,-3.159899950E0,-9.234899521E0,-1.826900005E0,9.930050377E0
7.355657820E0,-3.327999830E0,-9.491499901E0,-1.760599971E0,1.021096790E1
7.365657820E0,-3.455399990E0,-9.486599922E0,-1.980399966E0,1.028870017E1
7.375657820E0,-3.581199884E0,-9.220799446E0,-2.194900036E0,1.013240945E1
7.385657820E0,-3.774599791E0,-9.052199364E0,-2.331699848E0,1.008100893E1
7.395657820E0,-4.055399895E0,-9.024799347E0,-2.602299929E0,1.023060294E1
7.405657820E0,-4.357100010E0,-9.220699310E0,-2.760399818E0,1.056529334E1
7.415657820E0,-4.732599735E0,-9.699799538E0,-2.830999851E0,1.115787486E1
7.425659383E0,-5.313499928E0,-1.019449997E1,-2.921200037E0,1.186147212E1
7.435657820E0,-6.063699722E0,-1.038409996E1,-3.144199848E0,1.242915842E1
7.445657820E0,-6.799499989E0,-1.017179966E1,-3.557399988E0,1.274181318E1
7.455657820E0,-7.356599808E0,-9.727199554E0,-4.149399757E0,1.288237130E1
7.465657820E0,-7.513199806E0,-9.105099678E0,-4.472099781E0,1.262341823E1
7.475657820E0,-7.282999992E0,-8.431499481E0,-4.566800117E0,1.204109363E1
7.485657820E0,-6.540999889E0,-7.895899773E0,-4.298799992E0,1.111798517E1
7.495657820E0,-5.413899899E0,-7.590199947E0,-3.735499859E0,1.004367495E1
7.505657820E0,-4.143399715E0,-7.561599731E0,-3.134599924E0,9.174490089E0
7.515657820E0,-2.951400042E0,-7.757799625E0,-2.548399925E0,8.682658545E0
7.525657820E0,-1.833199978E0,-8.037799835E0,-2.041800022E0,8.493279442E0
7.535657820E0,-8.827999830E-1,-8.307499886E0,-1.473399997E0,8.483206806E0
7.545657820E0,-2.531000078E-1,-8.540599823E0,-8.791999817E-1,8.589464335E0
7.555657820E0,1.199999941E-3,-8.619999886E0,-4.053999782E-1,8.629527716E0
7.565657820E0,5.099999905E-2,-8.504499435E0,-1.288999915E-1,8.505629128E0
7.575657820E0,2.124999911E-1,-8.151999474E0,1.028999984E-1,8.155417836E0
7.585657820E0,4.769999981E-1,-7.611399651E0,3.276000023E-1,7.633364619E0
7.595657820E0,6.685000062E-1,-6.875699997E0,5.446999669E-1,6.929562812E0
7.605657820E0,7.971999645E-1,-6.134999752E0,6.530999541E-1,6.220955657E0
7.615700008E0,7.940999866E-1,-5.412699699E0,7.096999884E-1,5.516483200E0
7.625657820E0,6.696000099E-1,-4.583099842E0,7.218999863E-1,4.687676175E0
7.635657820E0,4.663999975E-1,-4.052499771E0,6.520000100E-1,4.131027398E0
7.645657820E0,3.581999838E-1,-3.424899817E0,6.898999810E-1,3.512009107E0
7.655657820E0,2.529000044E-1,-2.898200035E0,6.685999632E-1,2.985054064E0
7.665657820E0,2.671999931E-1,-2.472800016E0,6.602999568E-1,2.573350305E0
7.675657820E0,4.193999767E-1,-2.178400040E0,7.678999901E-1,2.347550525E0
7.685657820E0,6.495000124E-1,-1.907399893E0,9.176999927E-1,2.214090760E0
7.695657820E0,9.958999753E-1,-1.592000008E0,1.052600026E0,2.152730266E0
7.705657820E0,1.497099996E0,-1.291999936E0,1.094599962E0,2.260248064E0
7.715657820E0,1.945599914E0,-8.916999698E-1,1.153399944E0,2.431217656E0
7.725657820E0,2.446799994E0,-3.836999834E-1,1.112200022E0,2.714966809E0
7.735657820E0,2.841300011E0,3.339999914E-2,1.138100028E0,3.060943153E0
7.745657820E0,3.086199999E0,3.371999860E-1,1.282099962E0,3.358885913E0
7.755657820E0,3.317099810E0,4.879999757E-1,1.465600014E0,3.659136308E0
7.765657820E0,3.445199966E0,4.860000014E-1,1.745700002E0,3.892694094E0
7.775657820E0,3.471499920E0,4.312999845E-1,2.091099977E0,4.075540515E0
7.785657820E0,3.505800009E0,4.536999762E-1,2.489599943E0,4.323723540E0
7.795657820E0,3.648599863E0,5.558999777E-1,2.791100025E0,4.627261079E0
7.805657820E0,3.960299969E0,7.881000042E-1,2.962999821E0,5.008437421E0
7.815657820E0,4.155200005E0,1.002699971E0,3.034600019E0,5.242126628E0
7.825657820E0,4.261199951E0,1.189199924E0,3.173399925E0,5.444491580E0
7.835657820E0,4.326799870E0,1.426199913E0,3.428399801E0,5.701681199E0
7.845657820E0,4.529299736E0,1.587299943E0,3.750000000E0,6.090695954E0
7.855657820E0,4.957799911E0,1.751899958E0,4.116799831E0,6.678096606E0
7.865657820E0,5.435800076E0,1.989099979E0,4.368199825E0,7.251593680E0
7.875657820E0,6.041699886E0,2.240299940E0,4.353499889E0,7.776505811E0
7.885657820E0,6.430699825E0,2.436599970E0,4.119100094E0,8.016102871E0
7.895657820E0,6.737799644E0,2.655599833E0,3.655399799E0,8.112465853E0
7.905657820E0,6.960599899E0,2.739799976E0,3.261299849E0,8.160424718E0
7.915657820E0,7.236099720E0,2.758199930E0,3.079499960E0,8.333794215E0
7.925657820E0,7.604699612E0,2.868700027E0,3.153199911E0,8.718002392E0
7.935657820E0,8.057299614E0,3.062299967E0,3.296299934E0,9.228399179E0
7.945657820E0,8.514100075E0,3.456399918E0,3.458199978E0,9.818133609E0
7.955657820E0,8.697500229E0,3.991099834E0,3.598099947E0,1.022358603E1
7.965657820E0,8.672900200E0,4.557499886E0,3.725099802E0,1.048171606E1
7.975657820E0,8.514900208E0,5.075900078E0,3.760399818E0,1.060230607E1
7.985657820E0,8.495200157E0,5.398699760E0,3.715299845E0,1.072929810E1
7.995657820E0,8.571800232E0,5.387499809E0,3.798899889E0,1.081353567E1
8.005657820E0,8.615399361E0,5.080999851E0,4.238999844E0,1.086327691E1
8.015657820E0,8.410900116E0,4.578000069E0,4.944799900E0,1.077740096E1
8.025657820E0,7.943199635E0,4.351799965E0,5.476599693E0,1.058422069E1
8.035657820E0,7.366399765E0,4.582699776E0,5.639100075E0,1.034719442E1
8.045657820E0,7.018199921E0,4.969099998E0,5.544499874E0,1.023174295E1
8.055657820E0,6.879999638E0,5.207399845E0,5.183199883E0,1.006563307E1
8.065657820E0,7.098000050E0,5.316400051E0,4.773799896E0,1.007148845E1
8.075657820E0,7.541399956E0,5.185899734E0,4.645800114E0,1.026400156E1
8.085657820E0,8.086699486E0,4.753499985E0,4.745399952E0,1.051233996E1
8.095657820E0,8.573100090E0,4.026400089E0,4.935999870E0,1.068054482E1
8.105657820E0,8.872300148E0,3.130699873E0,5.109999657E0,1.070659087E1
8.115657820E0,8.885799408E0,2.349400043E0,5.131000042E0,1.052636087E1
8.125657820E0,8.584199905E0,1.541700006E0,5.116399765E0,1.011152182E1
8.135657820E0,8.276700020E0,7.500999570E-1,5.106499672E0,9.754114622E0
8.145657820E0,7.898299694E0,4.649999738E-2,5.171700001E0,9.440962938E0
8.155657820E0,7.481400013E0,-5.414999723E-1,5.307600021E0,9.188862082E0
8.165657820E0,6.979399681E0,-8.957999945E-1,5.503099918E0,8.933005443E0
8.175657820E0,6.414099693E0,-9.962999821E-1,5.657000065E0,8.610164822E0
8.185657820E0,5.747299671E0,-9.510999918E-1,5.627799988E0,8.099887493E0
8.195657820E0,5.009500027E0,-8.586999774E-1,5.334399700E0,7.368057840E0
8.205657820E0,4.367899895E0,-8.377999663E-1,4.883699894E0,6.605375306E0
8.215657820E0,3.784299850E0,-8.985999823E-1,4.336899757E0,5.825556350E0
8.225657820E0,3.259299994E0,-1.071099997E0,3.756099939E0,5.087099213E0
8.235657820E0,2.725600004E0,-1.257200003E0,3.251399994E0,4.425047926E0
8.245657820E0,2.155499935E0,-1.436499953E0,2.785699844E0,3.803923725E0
8.255657820E0,1.668299913E0,-1.666599989E0,2.351799965E0,3.330426879E0
8.265657820E0,1.206799984E0,-1.975399971E0,1.990999937E0,3.053301819E0
8.275657820E0,8.412999511E-1,-2.311899900E0,1.596699953E0,2.932936668E0
8.285657820E0,4.940999746E-1,-2.566699982E0,1.180699944E0,2.868124115E0
8.295657820E0,1.849000007E-1,-2.807099819E0,8.730999827E-1,2.945556142E0
8.305657820E0,-4.699999839E-2,-3.071300030E0,7.058999538E-1,3.151727719E0
8.315657820E0,-2.217999995E-1,-3.397799969E0,6.412000060E-1,3.464877677E0
8.325657820E0,-4.872999787E-1,-3.718299866E0,6.606999636E-1,3.807852361E0
8.335657820E0,-7.749999762E-1,-4.071499825E0,6.958999634E-1,4.202619724E0
8.345657820E0,-1.113699913E0,-4.475899696E0,7.752999663E-1,4.677081956E0
8.355657820E0,-1.453599930E0,-4.860499859E0,8.981999755E-1,5.152103923E0
8.365657820E0,-1.813099980E0,-5.173699856E0,1.002599955E0,5.573123757E0
8.375657820E0,-2.103100061E0,-5.452099800E0,9.578999877E-1,5.921654708E0
8.385657820E0,-2.342799902E0,-5.751599789E0,8.603999615E-1,6.269760729E0
8.395657820E0,-2.571799994E0,-5.962299824E0,8.574999571E-1,6.549693166E0
8.405657820E0,-2.564800024E0,-6.012499809E0,8.300999999E-1,6.589189565E0
8.415657820E0,-2.361500025E0,-6.097099781E0,6.681999564E-1,6.572503274E0
8.425657820E0,-2.032199860E0,-6.178999901E0,4.888999760E-1,6.522951727E0
8.435657820E0,-1.784199953E0,-6.231699944E0,3.407000005E-1,6.491034598E0
8.445657820E0,-1.667699933E0,-6.279099941E0,1.435000002E-1,6.498377597E0
8.455657820E0,-1.663800001E0,-6.481099606E0,-1.128999963E-1,6.692206583E0
8.465657820E0,-1.645699978E0,-6.937599659E0,-2.408999950E-1,7.134188829E0
8.475657820E0,-1.594200015E0,-7.589299679E0,-7.069999725E-2,7.755252529E0
8.485657820E0,-1.617200017E0,-8.198299408E0,3.106999993E-1,8.362056181E0
8.495657820E0,-1.684700012E0,-8.623700142E0,6.148999929E-1,8.808207551E0
8.505657820E0,-1.815799952E0,-8.812899590E0,6.779999733E-1,9.023525509E0
8.515657820E0,-2.078999996E0,-8.735699654E0,4.343999922E-1,8.990183134E0
8.525657820E0,-2.376399994E0,-8.470499992E0,-8.139999956E-2,8.797912992E0
8.535657820E0,-2.875499964E0,-8.285799980E0,-5.047000051E-1,8.785084146E0
8.545657820E0,-3.351599932E0,-8.311299324E0,-5.860999823E-1,8.980781244E0
8.555657820E0,-3.510799885E0,-8.683499336E0,-5.311999917E-1,9.381420467E0
8.565657820E0,-3.647599936E0,-9.331299782E0,-3.197999895E-1,1.002399187E1
8.575657820E0,-3.870399952E0,-9.690599442E0,-6.979999691E-2,1.043516101E1
8.585657820E0,-4.199399948E0,-9.744899750E0,-2.879999951E-2,1.061126102E1
8.595657820E0,-4.496699810E0,-9.519700050E0,-4.707999825E-1,1.053881639E1
8.605657820E0,-4.752099991E0,-9.102399826E0,-1.173099995E0,1.033500365E1
8.615657820E0,-5.093699932E0,-8.710599899E0,-1.765100002E0,1.024382290E1
8.625657820E0,-5.326399803E0,-8.344799995E0,-2.036099911E0,1.010702353E1
8.635657820E0,-5.518399715E0,-8.212299347E0,-1.890899897E0,1.007323674E1
8.645657820E0,-5.446899891E0,-8.321399689E0,-1.630399942E0,1.007832403E1
8.655657820E0,-5.140999794E0,-8.543700218E0,-1.334800005E0,1.006013834E1
8.665657820E0,-4.640500069E0,-8.701700211E0,-1.158200026E0,9.929514326E0
8.675657820E0,-3.964900017E0,-8.718099594E0,-1.069499969E0,9.636883462E0
8.685657820E0,-3.349399805E0,-8.684800148E0,-9.778999686E-1,9.359514999E0
8.695657820E0,-2.951499939E0,-8.616000175E0,-7.615999579E-1,9.139302239E0
8.705657820E0,-2.830399990E0,-8.446100235E0,-4.959999919E-1,8.921535141E0
8.715657820E0,-2.818799973E0,-8.096899986E0,-2.997999787E-1,8.578770466E0
8.725657820E0,-2.788499832E0,-7.576799870E0,-1.937000006E-1,8.075961074E0
8.735657820E0,-2.679299831E0,-7.013599873E0,-2.184000015E-1,7.511120377E0
8.745657820E0,-2.499399900E0,-6.438699722E0,-4.073999822E-1,6.918802550E0
8.755657820E0,-2.423300028E0,-5.913099766E0,-7.059999704E-1,6.429274284E0
8.765657820E0,-2.400699854E0,-5.400000095E0,-1.048599958E0,6.001909920E0
8.775657820E0,-2.420899868E0,-4.977900028E0,-1.397300005E0,5.709000978E0
8.785657820E0,-2.483000040E0,-4.568399906E0,-1.684299946E0,5.465567968E0
8.795657820E0,-2.487900019E0,-4.239099979E0,-1.811699986E0,5.238499020E0
8.805657820E0,-2.405599833E0,-3.920699835E0,-1.817999959E0,4.946101657E0
8.815657820E0,-2.156599998E0,-3.730000019E0,-1.603899956E0,4.597425232E0
8.825657820E0,-1.818300009E0,-3.579499960E0,-1.287500024E0,4.216241359E0
8.835657820E0,-1.311200023E0,-3.382299900E0,-9.589999914E-1,3.752183244E0
8.845657820E0,-8.399999738E-1,-3.110699892E0,-7.188000083E-1,3.301322042E0
8.855657820E0,-4.339999855E-1,-2.816900015E0,-6.275999546E-1,2.918417959E0
8.865657820E0,-3.480000049E-2,-2.591899872E0,-6.958000064E-1,2.683895235E0
8.875657820E0,5.126999617E-1,-2.555500031E0,-7.522999644E-1,2.712820837E0
8.885657820E0,9.023999572E-1,-2.582099915E0,-7.022999525E-1,2.823967223E0
8.895657820E0,1.319899917E0,-2.524699926E0,-5.138999820E-1,2.894881466E0
8.905657820E0,1.845099926E0,-2.539399862E0,-3.656999767E-1,3.160171177E0
8.915657820E0,2.342299938E0,-2.498100042E0,-3.393999934E-1,3.441230184E0
8.925657820E0,2.842399836E0,-2.390399933E0,-3.098999858E-1,3.726833329E0
8.935657820E0,3.316499949E0,-2.158099890E0,-2.773999870E-1,3.966549860E0
8.945657820E0,3.822599888E0,-1.910399914E0,-1.224999949E-1,4.275149586E0
8.955657820E0,4.339299679E0,-1.629799962E0,2.363999933E-1,4.641298803E0
8.965657820E0,4.806299686E0,-1.396799922E0,7.501999736E-1,5.061063791E0
8.975657820E0,5.350699902E0,-1.193099976E0,1.405499935E0,5.659408720E0
8.985657820E0,5.865799904E0,-7.737999558E-1,1.852299929E0,6.199789505E0
8.995657820E0,6.410799980E0,-2.278999984E-1,2.034600019E0,6.729776522E0
9.005657820E0,7.062399864E0,3.155999780E-1,2.017999887E0,7.351830978E0
9.015657820E0,7.580799580E0,8.251000047E-1,1.842999935E0,7.845123393E0
9.025657820E0,8.157699585E0,1.171299934E0,1.639400005E0,8.402835143E0
9.035657820E0,8.720699310E0,1.373499990E0,1.626999974E0,8.976871816E0
9.045657820E0,9.277199745E0,1.500699997E0,1.651399970E0,9.541784815E0
9.055657820E0,1.009200001E1,1.436699986E0,1.692799926E0,1.033335099E1
9.065657820E0,1.079269981E1,1.457599998E0,1.692399979E0,1.102139668E1
9.075657820E0,1.132959938E1,1.642599940E0,1.620399952E0,1.156216471E1
9.085657820E0,1.176959991E1,2.001999855E0,1.488699913E0,1.203111437E1
9.095657820E0,1.206960011E1,2.574800014E0,1.496699929E0,1.243161102E1
9.105657820E0,1.219589996E1,3.263000011E0,1.637599945E0,1.273062758E1
9.115657820E0,1.228240013E1,3.958899975E0,1.834599972E0,1.303441595E1
9.125657820E0,1.256719971E1,4.508100033E0,2.155599833E0,1.352420367E1
9.135657820E0,1.271509933E1,4.828599930E0,2.604300022E0,1.384815897E1
9.145657820E0,1.283159924E1,4.958600044E0,3.179100037E0,1.411893517E1
9.155657820E0,1.269539928E1,4.938999653E0,3.745899916E0,1.412793852E1
9.165657820E0,1.215909958E1,4.966499805E0,4.150599957E0,1.377451643E1
9.175657820E0,1.110059929E1,5.209799767E0,4.327099800E0,1.300342689E1
9.185657820E0,9.840399742E0,5.739599705E0,4.161499977E0,1.212825436E1
9.195657820E0,8.925399780E0,6.195299625E0,3.660499811E0,1.146489239E1
9.205657820E0,8.565699577E0,6.558300018E0,3.050799847E0,1.121115017E1
9.215657820E0,8.534199715E0,6.710299969E0,2.651399851E0,1.117544682E1
9.225657820E0,8.660200119E0,6.698499680E0,2.397300005E0,1.120785490E1
9.235657820E0,8.810099602E0,6.353499889E0,2.241600037E0,1.109096869E1
9.245657820E0,9.048500061E0,5.545000076E0,2.166699886E0,1.083129575E1
9.255657820E0,9.187199593E0,4.378600121E0,2.301699877E0,1.043429910E1
9.265657820E0,9.100999832E0,3.264699936E0,2.482499838E0,9.982448050E0
9.275657820E0,8.892399788E0,2.085099936E0,2.710099936E0,9.527174680E0
9.285657820E0,8.646299362E0,9.382999539E-1,2.955299854E0,9.185461158E0
9.295657820E0,8.271200180E0,-1.842999905E-1,3.189699888E0,8.866842972E0
9.305657820E0,7.851999760E0,-1.065299988E0,3.433300018E0,8.635757830E0
9.315657820E0,7.463399887E0,-1.663100004E0,3.695199966E0,8.492510953E0
9.325657820E0,7.118399620E0,-1.936899900E0,3.945899963E0,8.366201103E0
9.335657820E0,6.777999878E0,-1.935899973E0,4.056799889E0,8.133057014E0
9.345657820E0,6.401199818E0,-1.887199998E0,4.055500031E0,7.809222973E0
9.355657820E0,6.044799805E0,-1.851899981E0,3.902199984E0,7.429421440E0
9.365657820E0,5.579799652E0,-1.842299938E0,3.685400009E0,6.936166553E0
9.375657820E0,5.045399666E0,-1.938599944E0,3.316499949E0,6.341403586E0
9.385657820E0,4.540699959E0,-2.190599918E0,2.943199873E0,5.837731547E0
9.395657820E0,3.998999834E0,-2.529700041E0,2.654399872E0,5.425607860E0
9.405657820E0,3.472899914E0,-2.954200029E0,2.253700018E0,5.086009771E0
9.415657820E0,2.847899914E0,-3.432799816E0,1.935999990E0,4.862380534E0
9.425657820E0,2.333600044E0,-3.863799810E0,1.525399923E0,4.764607336E0
9.435657820E0,1.834699988E0,-4.174900055E0,1.140799999E0,4.700780696E0
9.445657820E0,1.410200000E0,-4.403500080E0,8.544999957E-1,4.702089667E0
9.455657820E0,1.079599977E0,-4.597499847E0,5.713999867E-1,4.756998939E0
9.465657820E0,8.806999922E-1,-4.874599934E0,3.939999938E-1,4.969164214E0
9.475657820E0,7.434999943E-1,-5.196000099E0,3.546999991E-1,5.260895490E0
9.485657820E0,5.194999576E-1,-5.591899872E0,3.488000035E-1,5.626800674E0
9.495657820E0,1.695999950E-1,-5.973700047E0,2.480999976E-1,5.981254886E0
9.505657820E0,-2.559999824E-1,-6.329499722E0,2.099999925E-3,6.334674982E0
9.515657820E0,-9.236999750E-1,-6.666499615E0,-1.838999987E-1,6.732700644E0
9.525657820E0,-1.655799985E0,-6.842399597E0,-2.719999850E-1,7.045146544E0
9.535657820E0,-2.274999857E0,-6.900899887E0,-3.228999972E-1,7.273397281E0
9.545657820E0,-2.850499868E0,-6.838999748E0,-3.781999946E-1,7.418915169E0
9.555657820E0,-3.275599957E0,-6.851500034E0,-4.289999902E-1,7.606355815E0
9.565657820E0,-3.629899979E0,-6.810299873E0,-3.795000017E-1,7.726602000E0
9.575657820E0,-3.894699812E0,-6.773099899E0,-4.183999896E-1,7.824233344E0
9.585657820E0,-3.973199844E0,-6.827899933E0,-5.857999921E-1,7.921470579E0
9.595657820E0,-4.013899803E0,-6.955299854E0,-8.813999891E-1,8.078641819E0
9.605657820E0,-3.989099979E0,-7.107699871E0,-1.245299935E0,8.245185749E0
9.615657820E0,-3.988399982E0,-7.345299721E0,-1.498600006E0,8.491558419E0
9.625657820E0,-4.068799973E0,-7.704899788E0,-1.695599914E0,8.876692685E0
9.635657820E0,-4.171400070E0,-7.953199863E0,-1.757799983E0,9.151165357E0
9.645657820E0,-4.337800026E0,-8.266599655E0,-1.713999987E0,9.491626566E0
9.655657820E0,-4.434299946E0,-8.621299744E0,-1.518999934E0,9.813112966E0
9.665657820E0,-4.560199738E0,-8.985499382E0,-1.261999965E0,1.015515951E1
9.675657820E0,-4.686500072E0,-9.277699471E0,-9.959999919E-1,1.044179134E1
9.685657820E0,-4.804199696E0,-9.287499428E0,-7.935000062E-1,1.048654484E1
9.695657820E0,-4.933399677E0,-8.924300194E0,-8.050000072E-1,1.022886071E1
9.705657820E0,-4.838999748E0,-8.434700012E0,-1.169499993E0,9.794274506E0
9.715657820E0,-4.589699745E0,-8.146399498E0,-1.580799937E0,9.483042601E0
9.725657820E0,-4.195499897E0,-8.007100105E0,-1.818099976E0,9.220702739E0
9.735657820E0,-4.009599686E0,-8.080499649E0,-1.847499967E0,9.207856447E0
9.745657820E0,-4.061100006E0,-8.348699570E0,-1.697499990E0,9.437945962E0
9.755657820E0,-4.231999874E0,-8.505100250E0,-1.499300003E0,9.617403688E0
9.765657820E0,-4.384599686E0,-8.455999374E0,-1.346099973E0,9.619803790E0
9.775657820E0,-4.586899757E0,-8.247200012E0,-1.310299993E0,9.527478339E0
9.785657820E0,-4.691400051E0,-7.857199669E0,-1.391199946E0,9.256363129E0
9.795657820E0,-4.609600067E0,-7.404399872E0,-1.506899953E0,8.851231423E0
9.805657820E0,-4.213900089E0,-7.057499886E0,-1.534799933E0,8.361869972E0
9.815657820E0,-3.700299978E0,-6.751499653E0,-1.390599966E0,7.823601201E0
9.825657820E0,-2.901899815E0,-6.677899837E0,-1.129499912E0,7.368252088E0
9.835657820E0,-2.151599884E0,-6.871999741E0,-6.998999715E-1,7.234889250E0
9.845657820E0,-1.537599921E0,-7.318099976E0,-2.976999879E-1,7.483810931E0
9.855657820E0,-1.049199939E0,-7.790599823E0,1.579999924E-2,7.860948782E0
9.865657820E0,-7.340999842E-1,-8.277999878E0,1.868999898E-1,8.312587826E0
9.875657820E0,-6.304999590E-1,-8.640299797E0,2.604999840E-1,8.667189338E0
9.885657820E0,-5.898000002E-1,-8.755399704E0,2.642999887E-1,8.779222204E0
9.895657820E0,-5.417999625E-1,-8.579599380E0,1.473999918E-1,8.597953215E0
9.905657820E0,-3.581999838E-1,-8.218400002E0,5.959999934E-2,8.226418296E0
9.915657820E0,-1.270999908E-1,-7.810899734E0,1.545999944E-1,7.813463395E0
9.925657820E0,-1.325999945E-1,-7.173899651E0,4.648000002E-1,7.190163976E0
9.935657820E0,-1.377999932E-1,-6.387599945E0,7.325999737E-1,6.430950522E0
9.945657820E0,-4.270000011E-2,-5.620299816E0,8.940999508E-1,5.691134161E0
9.955657820E0,1.244999990E-1,-4.806499958E0,8.770999908E-1,4.887458081E0
9.965657820E0,3.146999776E-1,-4.009200096E0,7.781999707E-1,4.096134358E0
9.975657820E0,6.056999564E-1,-3.222499847E0,7.057999969E-1,3.354032102E0
9.985657820E0,9.074999690E-1,-2.499199867E0,7.005000114E-1,2.749592049E0
9.995657820E0,1.159999967E0,-1.832999945E0,5.554000139E-1,2.239186883E0
1.000565782E1,1.410899997E0,-1.324499965E0,2.289000005E-1,1.948674977E0
1.001565782E1,1.648800015E0,-8.377999663E-1,-2.289999872E-1,1.863569497E0
1.002565782E1,1.813300014E0,-3.728999794E-1,-6.779999733E-1,1.971495701E0
1.003565782E1,1.941899896E0,4.059999809E-2,-1.025599957E0,2.196469630E0
1.004565782E1,2.111700058E0,3.640999794E-1,-1.327700019E0,2.520839795E0
1.005565782E1,2.360199928E0,5.780000091E-1,-1.452399969E0,2.830917410E0
1.006565782E1,2.813699961E0,5.551999807E-1,-1.416899920E0,3.198868530E0
1.007565782E1,3.354599953E0,2.967000008E-1,-1.132300019E0,3.552953007E0
1.008565782E1,3.748199940E0,1.909999922E-2,-8.280999660E-1,3.838634803E0
1.009565782E1,4.016200066E0,-2.070999891E-1,-5.680999756E-1,4.061464139E0
1.010565782E1,4.150300026E0,-3.508999944E-1,-3.543999791E-1,4.180157946E0
1.011565782E1,4.142099857E0,-3.419999778E-1,-1.999999949E-4,4.156194804E0
1.012565782E1,4.345200062E0,-1.160999984E-1,5.300999880E-1,4.378955216E0
1.013565782E1,4.587299824E0,1.004999951E-1,1.034399986E0,4.703552195E0
1.014565782E1,4.995800018E0,6.148999929E-1,1.505199909E0,5.253736441E0
1.015565782E1,5.500799656E0,1.292599916E0,1.805699944E0,5.932129777E0
1.016565782E1,5.931599617E0,2.002599955E0,1.973599911E0,6.564249934E0
1.017565782E1,6.253799915E0,2.633399963E0,1.978299975E0,7.068131262E0
1.018565782E1,6.364399910E0,3.133299828E0,1.929600000E0,7.351633164E0
1.019565782E1,6.407000065E0,3.393499851E0,1.928900003E0,7.502409366E0
1.020565782E1,6.488599777E0,3.473799944E0,2.017400026E0,7.631455692E0
1.021565782E1,6.648999691E0,3.542399883E0,2.126299858E0,7.828086925E0
1.022565782E1,6.997900009E0,3.532699823E0,2.225299835E0,8.148774873E0
1.023565782E1,7.408499718E0,3.524199963E0,2.273499966E0,8.513204775E0
1.024565782E1,7.831799984E0,3.566599846E0,2.318899870E0,8.912632723E0
1.025565782E1,8.248099327E0,3.719399929E0,2.341399908E0,9.345974100E0
1.026565782E1,8.764299393E0,3.874599934E0,2.301800013E0,9.855138344E0
1.027565782E1,9.250899315E0,4.012399673E0,2.377500057E0,1.036006736E1
1.028565782E1,9.498499870E0,4.170700073E0,2.560400009E0,1.068512457E1
1.029565782E1,9.466400146E0,4.408400059E0,2.781299829E0,1.080658834E1
1.030565782E1,9.291399956E0,4.657099724E0,2.832599878E0,1.077229377E1
1.031565782E1,9.110699654E0,4.829099655E0,2.940699816E0,1.072253548E1
1.032565782E1,9.032400131E0,4.934599876E0,3.136999846E0,1.075989294E1
1.033565782E1,9.075799942E0,4.973700047E0,3.471699953E0,1.091606785E1
1.034565782E1,9.063199997E0,4.975399971E0,3.952999830E0,1.106898400E1
1.035565782E1,8.797200203E0,4.978699684E0,4.340499878E0,1.100082366E1
1.036565782E1,8.367699623E0,5.013899803E0,4.431299686E0,1.071419643E1
1.037565782E1,7.846599579E0,5.102499962E0,4.250400066E0,1.027961729E1
1.038565782E1,7.413799763E0,5.255499840E0,3.954399824E0,9.910700452E0
1.039565782E1,7.228600025E0,5.434700012E0,3.691999912E0,9.768289814E0
1.040565782E1,7.330299854E0,5.502500057E0,3.554799795E0,9.830941177E0
1.041565782E1,7.628299713E0,5.378799915E0,3.486199856E0,9.963735970E0
1.042565782E1,7.961499691E0,5.002099991E0,3.536999941E0,1.004573791E1
1.043565782E1,8.434499741E0,4.448499680E0,3.688099861E0,1.022408998E1
1.044565782E1,8.927599907E0,3.676699877E0,3.930299997E0,1.042436665E1
1.045565782E1,9.135899544E0,2.881000042E0,4.117399693E0,1.042678291E1
1.046565782E1,9.275699615E0,2.138700008E0,4.209300041E0,1.040821060E1
1.047565782E1,9.289599419E0,1.291899920E0,4.206099987E0,1.027895617E1
1.048565782E1,9.219699860E0,4.775999784E-1,4.090099812E0,1.009751869E1
1.049565782E1,9.058199883E0,-1.966999918E-1,3.832899809E0,9.837723158E0
1.050565782E1,8.728699684E0,-8.492999673E-1,3.515599966E0,9.448330632E0
1.051565782E1,8.242899895E0,-1.323799968E0,3.180899858E0,8.933978338E0
1.052565782E1,7.622200012E0,-1.659599900E0,2.919999838E0,8.329381964E0
1.053565782E1,6.907999992E0,-1.905799985E0,2.695899963E0,7.656396939E0
1.054565782E1,6.102799892E0,-2.081399918E0,2.567899942E0,6.940497263E0
1.055565782E1,5.356299877E0,-2.244600058E0,2.476699829E0,6.313653446E0
1.056565782E1,4.622499943E0,-2.394199848E0,2.449199915E0,5.753110364E0
1.057565782E1,4.010999680E0,-2.627799988E0,2.482499838E0,5.399653382E0
1.058565782E1,3.435899973E0,-2.915599823E0,2.493899822E0,5.150307493E0
1.059565782E1,2.850199938E0,-3.177999973E0,2.352699995E0,4.874271308E0
1.060565782E1,2.285099983E0,-3.541999817E0,2.037400007E0,4.681713727E0
1.061565782E1,1.731999993E0,-3.937999964E0,1.784399986E0,4.657440392E0
1.062565782E1,1.160599947E0,-4.515199661E0,1.635699987E0,4.940600638E0
1.063565782E1,8.827999830E-1,-4.797499657E0,1.529799938E0,5.112301499E0
1.064565782E1,6.593999863E-1,-5.145599842E0,1.243399978E0,5.334608662E0
1.065565782E1,4.232999980E-1,-5.427000046E0,9.277999997E-1,5.521985623E0
1.066565782E1,1.835999936E-1,-5.719899654E0,6.542999744E-1,5.760127557E0
1.067565782E1,-1.097999960E-1,-6.014499664E0,4.936999977E-1,6.035727126E0
1.068565782E1,-3.886999786E-1,-6.398599625E0,3.484999835E-1,6.419861141E0
1.069565782E1,-7.608999610E-1,-6.763299942E0,1.984999925E-1,6.808861660E0
1.070565782E1,-1.197000027E0,-7.116199970E0,9.209999442E-2,7.216757824E0
1.071565782E1,-1.775399923E0,-7.395899773E0,-3.029999882E-2,7.606069709E0
1.072565782E1,-2.329599857E0,-7.588399887E0,-1.604999900E-1,7.939559723E0
1.073565782E1,-2.840699911E0,-7.659999847E0,-2.690999806E-1,8.174202618E0
1.074565782E1,-3.280699968E0,-7.676599979E0,-3.558000028E-1,8.355822710E0
1.075565782E1,-3.680499792E0,-7.596999645E0,-3.134999871E-1,8.447411708E0
1.076565782E1,-3.962899923E0,-7.449199677E0,-2.619999945E-1,8.441788651E0
1.077565782E1,-4.020800114E0,-7.330899715E0,-2.450999916E-1,8.364747348E0
1.078565782E1,-3.844699860E0,-7.191999912E0,-2.971999943E-1,8.160570298E0
1.079565782E1,-3.621399879E0,-7.043999672E0,-4.113999903E-1,7.931060359E0
1.080565782E1,-3.174799919E0,-6.997499943E0,-4.315999746E-1,7.696144393E0
1.081565782E1,-2.652199984E0,-7.132099628E0,-3.500000015E-2,7.609351803E0
1.082565782E1,-1.768599987E0,-7.152400017E0,6.268999577E-1,7.394442201E0
1.083565782E1,-7.080000043E-1,-7.105799675E0,1.408499956E0,7.278566147E0
1.084565782E1,2.098999918E-1,-7.140699863E0,2.378000021E0,7.529179015E0
1.085565782E1,1.266499996E0,-7.141099930E0,3.091499805E0,7.883952149E0
1.086565782E1,1.999499917E0,-6.970299721E0,3.076999903E0,7.877246125E0
1.087565782E1,2.387699842E0,-6.469199657E0,2.507099867E0,7.337384036E0
1.088565782E1,2.300699949E0,-5.951299667E0,1.260599971E0,6.503868101E0
1.089565782E1,2.069000006E0,-5.147099972E0,3.540000021E-1,5.558661273E0
1.090565782E1,2.308199883E0,-4.681099892E0,1.299999952E-1,5.220860359E0
1.091565782E1,2.631199837E0,-4.363699913E0,6.592000127E-1,5.138057431E0
1.092565782E1,2.440700054E0,-4.335000038E0,2.055099964E0,5.382627420E0
1.093566876E1,2.468600035E0,-4.798399925E0,7.784999609E-1,5.452035415E0
1.094565782E1,1.270499945E0,-5.252500057E0,-3.138999939E-1,5.413082317E0
1.095565782E1,2.991999984E-1,-5.175699711E0,-9.602999687E-1,5.272529200E0
1.096565782E1,-2.969000041E-1,-4.566499710E0,-1.409199953E0,4.788205689E0
1.097565782E1,-5.002999902E-1,-3.968699932E0,-1.222399950E0,4.182719315E0
1.098565782E1,-2.228999883E-1,-3.444099903E0,-1.139899969E0,3.634677494E0
1.099565782E1,2.168999910E-1,-2.651199818E0,-1.220799923E0,2.926817133E0
1.100565782E1,6.028999686E-1,-1.608599901E0,-8.761000037E-1,1.928375801E0
1.101565782E1,7.924999595E-1,-6.812999845E-1,-8.534999490E-1,1.349328728E0
1.102565782E1,1.038999915E0,-1.024999991E-1,-1.128600001E0,1.537454076E0
1.103565782E1,1.222999930E0,-5.119999871E-2,-1.569399953E0,1.990318186E0
1.104565782E1,1.242100000E0,-4.370999932E-1,-2.101899862E0,2.480292694E0
1.105565782E1,-1.430699944E0,-3.301599979E0,-1.565599918E0,3.924100898E0
1.106565782E1,-1.077799916E0,-4.521699905E0,-1.263700008E0,4.817090450E0
1.107565782E1,-1.348999977E0,-3.533499956E0,1.114099979E0,3.942922982E0
1.108565782E1,-2.159699917E0,-2.687999964E0,2.888299942E0,4.497991117E0
1.109565782E1,-1.892699957E0,-2.495300055E0,2.961299896E0,4.310235790E0
1.110565782E1,-1.325399995E0,-1.929299951E0,2.437399864E0,3.379319687E0
1.111565782E1,-8.718000054E-1,-1.210799932E0,1.800699949E0,2.338502092E0
1.112565782E1,2.428999990E-1,-7.234999537E-1,7.803999782E-1,1.091547854E0
1.113565782E1,8.833000064E-1,-3.355000019E-1,-6.912999749E-1,1.170758219E0
1.114565782E1,9.519000053E-1,4.415999949E-1,-2.342499971E0,2.566793777E0
1.115565782E1,8.952999711E-1,1.351699948E0,-3.522699833E0,3.877894906E0
1.116565782E1,9.759999514E-1,1.893199921E0,-3.873899937E0,4.420846363E0
1.117565782E1,7.660999894E-1,1.923900008E0,-3.430299997E0,4.006901360E0
1.118565782E1,3.984999955E-1,1.590199947E0,-2.537499905E0,3.021000477E0
1.119565782E1,-8.579999954E-2,1.148399949E0,-1.714699984E0,2.065521754E0
1.120565782E1,1.290999949E-1,8.829999566E-1,-1.528699994E0,1.770107173E0
1.121565782E1,4.187999964E-1,1.136799932E0,-1.535499930E0,1.955880251E0
1.122565782E1,1.000399947E0,1.806800008E0,-1.969999909E0,2.854159415E0
1.123565782E1,1.584899902E0,2.490399837E0,-2.762599945E0,4.043013419E0
1.124565782E1,1.839800000E0,2.985599995E0,-3.296199799E0,4.812858244E0
1.125565782E1,1.674499989E0,3.034899950E0,-3.326999903E0,4.804528725E0
1.126565782E1,1.286000013E0,2.707099915E0,-2.904000044E0,4.173176516E0
1.127565782E1,9.679999948E-1,2.389799833E0,-2.262300014E0,3.430184920E0
1.128565782E1,6.739000082E-1,2.311499834E0,-1.880499959E0,3.055070016E0
1.129565782E1,9.028999805E-1,2.605799913E0,-1.709399939E0,3.244606249E0
1.130565782E1,1.514299989E0,2.872499943E0,-1.848399997E0,3.736434520E0
1.131565782E1,2.184299946E0,3.056699991E0,-2.096400023E0,4.302263839E0
1.132565782E1,2.508999825E0,3.192099810E0,-2.077999830E0,4.560993818E0
1.133565782E1,1.776199937E0,3.312599897E0,-7.437999845E-1,3.831637080E0
1.134565782E1,1.464900017E0,2.879299879E0,-6.599999964E-2,3.231200373E0
1.135565782E1,5.859000087E-1,2.310199976E0,1.323899984E0,2.726355428E0
1.136565782E1,-2.026999891E-1,1.716499925E0,2.230700016E0,2.821964181E0
1.137565782E1,-5.794999599E-1,1.185799956E0,1.635499954E0,2.101618862E0
1.138565782E1,-6.771999598E-1,9.917999506E-1,5.120999813E-1,1.305570112E0
1.139565782E1,-7.759999484E-2,1.110800028E0,-5.921999812E-1,1.261189628E0
1.140565782E1,6.854000092E-1,1.533100009E0,-9.061999917E-1,1.908236682E0
1.141565782E1,1.188099980E0,1.970199943E0,-6.140999794E-1,2.381257685E0
1.142565782E1,1.504699945E0,2.119799852E0,1.178999990E-1,2.602224769E0
1.143565626E1,1.219299912E0,1.677999973E0,1.290399909E0,2.442848360E0
1.144565782E1,4.108999968E-1,5.917999744E-1,2.001199961E0,2.126938480E0
1.145565782E1,-2.669999897E-1,-6.143999696E-1,2.205800056E0,2.305283108E0
1.146565782E1,-1.002599955E0,-1.639099956E0,2.311899900E0,3.006116512E0
1.147565782E1,-1.399500012E0,-2.307299852E0,2.220599890E0,3.494752747E0
1.148565782E1,-8.292999864E-1,-2.177299976E0,2.036499977E0,3.094463736E0
1.149565782E1,-6.298999786E-1,-1.279299974E0,2.804399967E0,3.146115316E0
1.150565782E1,-2.216999978E-1,-2.554999888E-1,4.131700039E0,4.145524858E0
1.151565782E1,5.049999803E-2,4.052999914E-1,5.781399727E0,5.795808928E0
1.152565782E1,-1.513999999E-1,2.468999922E-1,6.433799744E0,6.440315265E0
1.153565782E1,-7.616999745E-1,-4.139999747E-1,5.741399765E0,5.806483798E0
1.154565782E1,-1.466099977E0,-1.217999935E0,4.352399826E0,4.751458432E0
1.155565782E1,-1.840499997E0,-1.820199966E0,2.954599857E0,3.928132950E0
1.156565782E1,1.323199987E0,-4.276700020E0,-4.786499977E0,6.553747271E0
1.157565782E1,3.894099951E0,-4.430200100E0,-5.245599747E0,7.893478578E0
1.158565782E1,-4.940999746E-1,-1.482800007E0,-7.021999955E-1,1.713451335E0
1.159565782E1,-5.850999951E-1,2.899999917E-1,6.532999873E-1,9.237114663E-1
1.160565782E1,2.128999978E-1,3.989999890E-1,1.364300013E0,1.437303700E0
1.161565782E1,6.523000002E-1,-3.816999793E-1,7.684999704E-1,1.077860088E0
1.162565782E1,7.349999994E-2,-1.135399938E0,-7.464999557E-1,1.360807647E0
1.163565782E1,-7.536000013E-1,-1.631399989E0,-2.282799959E0,2.905263248E0
1.164565782E1,-5.737999678E-1,-1.916499972E0,-2.620499849E0,3.296852743E0
1.165565782E1,-9.389999509E-2,-1.841199994E0,-4.116999805E-1,1.889002780E0
1.166565782E1,-1.701999903E-1,-1.555699944E0,1.214499950E0,1.980954438E0
1.167565782E1,-5.159999803E-2,-1.304199934E0,6.991999745E-1,1.480702749E0
1.168565782E1,-1.263999939E-1,-9.875999689E-1,-4.529999793E-1,1.093864543E0
1.169565782E1,1.818999946E-1,-7.508999705E-1,-1.524399996E0,1.709015424E0
1.170565782E1,8.241999745E-1,-7.843999863E-1,-2.307299852E0,2.572590435E0
1.171565782E1,1.224200010E0,-8.702999949E-1,-2.827999830E0,3.202135348E0
1.172565938E1,1.271700025E0,-7.775999904E-1,-2.976399899E0,3.328789428E0
1.173565782E1,1.341499925E0,-6.335999966E-1,-2.516599894E0,2.921360304E0
1.174565782E1,1.341799974E0,-4.132999778E-1,-1.537199974E0,2.081880833E0
1.175565782E1,1.225199938E0,-3.959999979E-2,-7.346000075E-1,1.429097694E0
1.176565782E1,1.256899953E0,2.425999939E-1,-3.315999806E-1,1.322350481E0
1.177565782E1,1.364399910E0,4.387999773E-1,-4.422999918E-1,1.499920604E0
1.178565782E1,1.207700014E0,6.107999682E-1,-1.230099916E0,1.828868976E0
1.179565782E1,8.983999491E-1,6.704999804E-1,-1.997499943E0,2.290567334E0
1.180565782E1,1.128000021E0,5.404999852E-1,-2.962499857E0,3.215731594E0
1.181565782E1,1.467800021E0,5.821999907E-1,-3.502699852E0,3.842173862E0
1.182565782E1,1.393000007E0,8.786000013E-1,-3.221699953E0,3.618250623E0
1.183565782E1,1.137199998E0,1.319299936E0,-2.220299959E0,2.821968828E0
1.184565782E1,1.048300028E0,1.640100002E0,-1.124799967E0,2.248118309E0
1.185565782E1,9.418999553E-1,1.735399961E0,-9.929999709E-2,1.977030359E0
1.186565782E1,8.096999526E-1,1.462599993E0,4.649999738E-2,1.672415918E0
1.187565782E1,6.069999933E-1,9.764999747E-1,-5.561000109E-1,1.277203357E0
1.188565782E1,3.280999959E-1,4.580999911E-1,-1.397699952E0,1.507007089E0
1.189565782E1,-4.900000058E-3,1.193000004E-1,-1.864199996E0,1.868019841E0
1.190565782E1,2.679999918E-2,2.229999937E-2,-1.949299932E0,1.949611693E0
1.191565782E1,6.189999729E-2,2.071999907E-1,-1.380499959E0,1.397334456E0
1.192565782E1,-1.899999976E-1,5.730000138E-1,-4.210999906E-1,7.360395486E-1
1.193565782E1,-2.784000039E-1,7.982999682E-1,-9.669999778E-2,8.509643301E-1
1.194565782E1,7.289999723E-2,9.479999542E-1,-1.609999985E-1,9.643336157E-1
1.195565782E1,5.131999850E-1,1.247599959E0,-2.333000004E-1,1.369053970E0
1.196565782E1,7.390999794E-1,1.600899935E0,-2.962999940E-1,1.787999739E0
1.197565782E1,9.168999791E-1,1.824000001E0,-2.231999934E-1,2.053655232E0
1.198565782E1,9.074999690E-1,1.851099968E0,2.202999890E-1,2.073320856E0
1.199565782E1,5.970999599E-1,1.525799990E0,8.077999949E-1,1.826782637E0
1.200565782E1,-3.215999901E-1,5.929999799E-2,2.010400057E0,2.036823859E0
1.201565782E1,-3.614999950E-1,-1.763999909E-1,1.371099949E0,1.428885675E0
1.202565782E1,1.557999998E-1,4.853999913E-1,7.226999998E-1,8.844105841E-1
1.203565782E1,3.210999966E-1,9.181999564E-1,1.562899947E0,1.840883650E0
1.204565782E1,-9.789999574E-2,3.872999847E-1,4.237699986E0,4.256487619E0
1.205565782E1,-9.839999676E-2,-5.260000005E-2,3.920699835E0,3.922287153E0
1.206565782E1,1.913999915E-1,-1.679999940E-2,4.802000046E0,4.805842344E0
1.207565782E1,6.777999997E-1,3.194999993E-1,4.017799854E0,4.087078267E0
1.208565782E1,9.821999669E-1,9.107999802E-1,2.496399879E0,2.833070020E0
1.209565782E1,1.503299952E0,1.398599982E0,1.593099952E0,2.598838223E0
1.210565782E1,1.723899961E0,1.507200003E0,1.683200002E0,2.841943907E0
1.211565782E1,1.638099909E0,1.353199959E0,1.825199962E0,2.801049150E0
1.212565782E1,1.211899996E0,1.147499919E0,1.584100008E0,2.301049869E0
1.213565782E1,4.169999957E-1,8.517999649E-1,2.078099966E0,2.284283618E0
1.214566095E1,1.136999950E-1,4.134999812E-1,2.533699989E0,2.569736477E0
1.215565782E1,-1.105000004E-1,-1.436000019E-1,2.560199976E0,2.566603812E0
1.216565782E1,-3.131999969E-1,-6.434000134E-1,1.935799956E0,2.063826370E0
1.217565782E1,1.279999968E-2,-8.201999664E-1,1.378299952E0,1.603933472E0
1.218565782E1,6.732999682E-1,-6.771000028E-1,7.407999635E-1,1.208545343E0
1.219565782E1,1.464800000E0,-5.730999708E-1,3.843999803E-1,1.619211525E0
1.220565782E1,1.843499899E0,-8.817999959E-1,2.842999995E-1,2.063223110E0
1.221565782E1,1.604799986E0,-1.358799934E0,-1.353999972E-1,2.107143426E0
1.222565782E1,1.584299922E0,-1.567499995E0,-1.028900027E0,2.454729668E0
1.223565782E1,1.391299963E0,-1.460999966E0,-1.115999937E0,2.305578527E0
1.224565782E1,1.824799895E0,-8.136999607E-1,-1.354499936E0,2.413850112E0
1.225565782E1,1.837299943E0,-5.078999996E-1,-3.930999935E-1,1.946319885E0
1.226565782E1,8.565999866E-1,-8.445999622E-1,1.255100012E0,1.738501847E0
1.227565782E1,-9.290000051E-2,-1.370399952E0,1.812799931E0,2.274394431E0
1.228565782E1,-8.010999560E-1,-1.761399984E0,1.331699967E0,2.348981875E0
1.229565782E1,-1.516899943E0,-2.183099985E0,4.382999837E-1,2.694256458E0
1.230565782E1,-4.854399681E0,-4.806499958E0,2.632200003E0,7.320936755E0
1.231565782E1,-4.253099918E0,-4.376800060E0,2.213399887E0,6.491870050E0
1.232565782E1,-3.216199875E0,-1.652699947E0,-2.083299875E0,4.173187885E0
1.233565782E1,-3.795000017E-1,7.989999652E-2,-1.766199946E0,1.808277222E0
1.234565782E1,1.382900000E0,4.443999827E-1,-2.195400000E0,2.632429469E0
1.235565782E1,2.739199877E0,-1.551000029E-1,-3.358099937E0,4.336370275E0
1.236565782E1,3.179299831E0,-5.518999696E-1,-3.913800001E0,5.072511355E0
1.237565782E1,3.171999931E0,-4.907999933E-1,-3.737499952E0,4.926598633E0
1.238565782E1,2.911599874E0,-1.764999926E-1,-3.425899982E0,4.499484056E0
1.239565782E1,2.132599831E0,2.630000003E-2,-2.938899994E0,3.631226639E0
1.240565782E1,1.473599911E0,1.128999963E-1,-2.012300014E0,2.496716735E0
1.241565782E1,1.128299952E0,2.824999988E-1,-1.095099926E0,1.597532747E0
1.242565782E1,1.013399959E0,6.457999945E-1,-9.053999782E-1,1.504588392E0
1.243565782E1,8.008999825E-1,6.262999773E-1,-1.490999937E0,1.804653223E0
1.244565938E1,7.874000072E-1,2.732999921E-1,-2.126100063E0,2.283635947E0
1.245565782E1,8.228999972E-1,7.620000094E-2,-2.155400038E0,2.308402081E0
1.246565782E1,8.476999998E-1,2.363999933E-1,-1.729200006E0,1.940261041E0
1.247565782E1,1.182600021E0,5.457999706E-1,-1.289199948E0,1.832614778E0
1.248565782E1,1.344099998E0,6.567999721E-1,-1.139099956E0,1.880303092E0
1.249565782E1,1.061699986E0,5.472999811E-1,-1.560400009E0,1.965093463E0
1.250565782E1,5.254999995E-1,3.450999856E-1,-2.365299940E0,2.447424781E0
1.251565782E1,1.234999970E-1,6.399999559E-2,-2.994499922E0,2.997728812E0
1.252565782E1,-4.570999742E-1,-1.723999977E-1,-3.813499928E0,3.844664334E0
1.253565782E1,-1.604999900E-1,2.412000000E-1,-3.052599907E0,3.066317641E0
1.254565782E1,6.899999827E-2,6.902999878E-1,-2.489899874E0,2.584739146E0
1.255565782E1,0.000000000E0,1.244599938E0,-1.932999969E0,2.299025421E0
1.256565782E1,-3.119999915E-2,1.659299970E0,-9.883999825E-1,1.931627385E0
1.257565782E1,-2.198999971E-1,1.483399987E0,-2.735999823E-1,1.524364944E0
1.258565782E1,-3.014000058E-1,9.526999593E-1,3.580999970E-1,1.061468221E0
1.259565782E1,-2.876999974E-1,5.205999613E-1,8.853999972E-1,1.066643691E0
1.260570157E1,-1.043300033E0,6.768999696E-1,7.236999869E-1,1.438892004E0
1.261565782E1,-9.967999458E-1,9.434999824E-1,5.124999881E-1,1.465079720E0
1.262565782E1,-1.066699982E0,8.059999943E-1,2.314999998E-1,1.356862960E0
1.263565782E1,-1.110499978E0,6.969999522E-2,-4.298999906E-1,1.192846299E0
1.264565782E1,-1.179299951E0,-3.565999866E-1,-1.231299996E0,1.741841441E0
1.265565782E1,-4.314000010E-1,-6.380999684E-1,-3.442699909E0,3.527812381E0
1.266565782E1,7.960000038E-1,-5.685999990E-1,-6.105299950E0,6.183171471E0
1.267565782E1,1.557599902E0,-1.084399939E0,-8.367099762E0,8.579650291E0
1.268565782E1,8.604999781E-1,-2.552000046E0,-5.528100014E0,6.149232001E0
1.269565782E1,-3.274999857E-1,-4.419799805E0,-1.832299948E0,4.795749123E0
1.270565782E1,-7.451999784E-1,-5.234799862E0,4.696199894E0,7.071969036E0
1.271565782E1,4.769999981E-1,-4.475500107E0,1.148769951E1,1.233794433E1
1.272565782E1,1.797399998E0,-2.802199841E0,1.445519924E1,1.483360225E1
1.273565782E1,2.940899849E0,-6.287999749E-1,1.485009956E1,1.515155894E1
1.274565782E1,3.079699993E0,3.790000081E-2,1.462509918E1,1.494588621E1
1.275565782E1,2.328799963E0,-1.108199954E0,1.319419956E1,1.344389521E1
1.276565782E1,1.719599962E0,-1.829899907E0,1.044999981E1,1.074746732E1
1.277565782E1,1.296000004E0,-1.653499961E0,7.080100060E0,7.385221390E0
1.278565782E1,3.228999972E-1,-2.112200022E0,4.131700039E0,4.651515726E0
1.279565782E1,-8.621000051E-1,-2.702600002E0,1.813300014E0,3.366796717E0
1.280565782E1,-2.174900055E0,-3.459499836E0,1.510999948E-1,4.089151571E0
1.281565782E1,-3.090999842E0,-3.587199926E0,-1.317999959E0,4.915221991E0
1.282565782E1,-2.109400034E0,-1.885199904E0,-2.783900023E0,3.969086358E0
1.283565782E1,-6.133999825E-1,-3.099999856E-3,-3.185099840E0,3.243629162E0
1.284565782E1,-1.110999957E-1,6.543999910E-1,-3.105700016E0,3.175839282E0
1.285565782E1,-4.065999985E-1,3.368999958E-1,-1.858699918E0,1.932250126E0
1.286565782E1,-5.697000027E-1,1.256999969E-1,-4.778999984E-1,7.541531613E-1
1.287565782E1,-8.621999621E-1,1.507999897E-1,1.586999893E-1,8.895589347E-1
1.288565782E1,-1.819000006E0,-4.472000003E-1,4.149999917E-1,1.918586421E0
1.289565782E1,-2.308899879E0,-6.371999979E-1,-1.467999965E-1,2.399706801E0
1.290565782E1,-1.926799893E0,-4.769999906E-2,-4.224999845E-1,1.973154671E0
1.291565782E1,-1.185899973E0,4.359000027E-1,-7.712999582E-1,1.480294290E0
1.292565782E1,-5.805999637E-1,2.347999960E-1,-1.507200003E0,1.632139456E0
1.293565782E1,-3.817999959E-1,-3.890999854E-1,-2.303200006E0,2.366833392E0
1.294565782E1,-3.537999988E-1,-6.887999773E-1,-2.674299955E0,2.784151594E0
1.295565782E1,-1.616999954E-1,-3.093000054E-1,-2.140599966E0,2.168866431E0
1.296565782E1,1.139999926E-2,3.000999987E-1,-1.789999962E0,1.815017860E0
1.297565782E1,1.881999969E-1,6.880999804E-1,-1.445299983E0,1.611767000E0
1.298565782E1,8.909999579E-2,7.630999684E-1,-1.090799928E0,1.334205701E0
1.299565782E1,1.079999935E-2,6.299999952E-1,-7.459999919E-1,9.764899497E-1
1.300565782E1,-2.369999886E-1,4.434999824E-1,-6.146000028E-1,7.940997370E-1
1.301565782E1,-5.665999651E-1,3.479000032E-1,-3.877999783E-1,7.697134245E-1
1.302565782E1,-7.907999754E-1,2.721999884E-1,-1.596999913E-1,8.514467229E-1
1.303565782E1,-7.483999729E-1,2.741999924E-1,-5.062000155E-1,9.442068688E-1
1.304565782E1,-3.392999768E-1,1.793999970E-1,-1.238999963E0,1.297085094E0
1.305565782E1,-2.479999885E-2,2.099999934E-1,-1.778800011E0,1.791324793E0
1.306565782E1,-7.599999662E-3,8.959999681E-2,-2.088399887E0,2.090334903E0
1.307565782E1,-4.569999874E-2,5.979999900E-2,-2.189699888E0,2.190992955E0
1.308565782E1,4.529999942E-2,2.525999844E-1,-2.026399851E0,2.042585420E0
1.309565782E1,1.963000000E-1,4.905999899E-1,-1.971899986E0,2.041472899E0
1.310565782E1,2.265999913E-1,7.418999672E-1,-1.888199925E0,2.041338305E0
1.311565782E1,8.839999884E-2,9.562000036E-1,-1.756199956E0,2.001592189E0
1.312565782E1,-8.749999851E-2,1.119599938E0,-1.603399992E0,1.957562721E0
1.313565782E1,-2.434999943E-1,1.249300003E0,-1.213699937E0,1.758724049E0
1.314565782E1,-2.836999893E-1,1.160699964E0,-6.417999864E-1,1.356324929E0
1.315565782E1,-8.909999579E-2,8.977999687E-1,1.013999954E-1,9.078907160E-1
1.316565782E1,-1.616999954E-1,6.931999922E-1,9.588999748E-1,1.194220365E0
1.317565782E1,6.250000000E-2,6.092000008E-1,1.862199903E0,1.960311039E0
1.318565782E1,1.202999949E-1,4.418999851E-1,2.549000025E0,2.589816366E0
1.319565782E1,2.314999998E-1,2.631999850E-1,2.866199970E0,2.887554112E0
1.320565782E1,5.034999847E-1,5.120999813E-1,2.687599897E0,2.781897165E0
1.321565782E1,5.483999848E-1,7.189999819E-1,2.275799990E0,2.448870987E0
1.322565782E1,5.051999688E-1,8.562999964E-1,1.545399904E0,1.837590149E0
1.323565938E1,3.507999778E-1,7.739999890E-1,6.064000130E-1,1.043962443E0
1.324565782E1,2.076999992E-1,5.314999819E-1,-1.300999969E-1,5.852841443E-1
1.325565782E1,1.407999992E-1,2.472999990E-1,-5.741999745E-1,6.408490774E-1
1.326565782E1,3.398999870E-1,-6.909999996E-2,-4.689999819E-1,5.833247759E-1
1.327565782E1,5.029000044E-1,-1.686999947E-1,-7.220000029E-2,5.353325533E-1
1.328565782E1,7.012999654E-1,-1.059999987E-1,4.904999733E-1,8.623501986E-1
1.329565782E1,8.613999486E-1,-2.859999985E-2,1.173900008E0,1.456320384E0
1.330565782E1,9.904999733E-1,-1.319999993E-1,1.618399978E0,1.902033828E0
1.331565782E1,1.015200019E0,-2.485999912E-1,1.689899921E0,1.987006487E0
1.332565782E1,1.093299985E0,-2.265999913E-1,1.537699938E0,1.900308794E0
1.333565782E1,1.059199929E0,-2.231999934E-1,1.279600024E0,1.676036679E0
1.334565782E1,8.310999870E-1,-3.551000059E-1,8.765999675E-1,1.259067395E0
1.335565782E1,5.690000057E-1,-6.207999587E-1,3.290999830E-1,9.041351636E-1
1.336565782E1,4.338999987E-1,-8.902999759E-1,-3.238999844E-1,1.042024211E0
1.337565782E1,2.849999964E-1,-9.529999495E-1,-9.274999499E-1,1.360033109E0
1.338565782E1,3.390000015E-2,-1.008499980E0,-1.347199917E0,1.683202019E0
1.339565782E1,-2.228000015E-1,-1.148599982E0,-1.683899999E0,2.050473352E0
1.340565782E1,-3.811999857E-1,-1.194000006E0,-1.879799962E0,2.259335597E0
1.341565782E1,-3.761999905E-1,-1.143199921E0,-1.847199917E0,2.204672317E0
1.342565782E1,-3.534999788E-1,-1.093599916E0,-1.586099982E0,1.958733306E0
1.343565782E1,-2.800999880E-1,-1.117200017E0,-1.183599949E0,1.651514675E0
1.344565782E1,-2.091999948E-1,-1.101699948E0,-9.412999749E-1,1.464087790E0
1.345565782E1,-1.959999949E-1,-9.752999544E-1,-8.564999700E-1,1.312714058E0
1.346565782E1,-2.354999930E-1,-8.657999635E-1,-7.874000072E-1,1.193762370E0
1.347565782E1,-2.219999880E-1,-7.412999868E-1,-8.191999793E-1,1.126897631E0
1.348565782E1,-1.030999944E-1,-5.767999887E-1,-1.146999955E0,1.287997179E0
1.349565782E1,1.153999940E-1,-3.919000030E-1,-1.702799916E0,1.751122590E0
1.350565782E1,1.913999915E-1,-1.929000020E-1,-2.213700056E0,2.230316638E0
1.351565782E1,1.764999926E-1,-8.209999651E-2,-2.613499880E0,2.620739262E0
1.352565782E1,1.196999997E-1,-3.359999880E-2,-2.875099897E0,2.877786731E0
1.353565782E1,6.629999727E-2,5.519999936E-2,-2.960999966E0,2.962256492E0
1.354565782E1,-2.609999850E-2,1.368999928E-1,-2.891000032E0,2.894357270E0
1.355565782E1,-1.995999962E-1,2.514999807E-1,-2.537799835E0,2.558030571E0
1.356565782E1,-4.220999777E-1,3.789999783E-1,-2.146499872E0,2.220196180E0
1.357565782E1,-6.909999847E-1,4.881999791E-1,-1.736400008E0,1.931555121E0
1.358565782E1,-9.768999815E-1,5.762000084E-1,-1.384599924E0,1.789820375E0
1.359565782E1,-1.191499949E0,6.216999888E-1,-1.129699945E0,1.755677923E0
1.360565782E1,-1.343599916E0,6.143999696E-1,-9.422000051E-1,1.752281058E0
1.361565782E1,-1.315199971E0,6.031999588E-1,-8.023999929E-1,1.654523165E0
1.362565782E1,-1.114599943E0,6.143000126E-1,-6.408999562E-1,1.424938698E0
1.363565782E1,-8.937999606E-1,6.571999788E-1,-5.575000048E-1,1.241610421E0
1.364565782E1,-7.531999946E-1,7.078999877E-1,-4.603999853E-1,1.131547953E0
1.365565782E1,-6.051999927E-1,7.894999981E-1,-4.677999914E-1,1.099278905E0
1.366565782E1,-4.499000013E-1,8.618999720E-1,-6.280999780E-1,1.157493480E0
1.367565782E1,-3.300999999E-1,8.867999911E-1,-9.314999580E-1,1.327807368E0
1.368565782E1,-2.883000076E-1,9.075999856E-1,-1.242200017E0,1.565220595E0
1.369565782E1,-3.069999814E-1,9.602999687E-1,-1.396199942E0,1.722149615E0
1.370565782E1,-4.175999761E-1,9.427999854E-1,-1.366799951E0,1.712134240E0
1.371565782E1,-5.927000046E-1,8.789999485E-1,-1.018599987E0,1.470197313E0
1.372565782E1,-7.920999527E-1,6.528999805E-1,-6.078000069E-1,1.192946591E0
1.373565938E1,-8.474999666E-1,3.815999925E-1,-2.421000004E-1,9.604619503E-1
1.374565782E1,-8.193999529E-1,1.134999990E-1,7.849999517E-2,8.309396981E-1
1.375565782E1,-7.698000073E-1,-6.520000100E-2,3.944999874E-1,8.674522070E-1
1.376565782E1,-6.437999606E-1,-1.199999941E-3,6.286999583E-1,8.998574703E-1
1.377565782E1,-4.029999971E-1,2.122999877E-1,6.753999591E-1,8.146443317E-1
1.378565782E1,-1.812999994E-1,3.863999844E-1,6.340999603E-1,7.643673184E-1
1.379565782E1,-8.829999715E-2,5.016999841E-1,8.280999660E-1,9.722393313E-1
1.380565782E1,-1.703999937E-1,5.009999871E-1,9.824000001E-1,1.115861508E0
1.381565782E1,-4.320999980E-1,3.851999938E-1,1.126099944E0,1.266171603E0
1.382565782E1,-7.486999631E-1,2.149000019E-1,1.434999943E0,1.632776311E0
1.383565782E1,-1.025300026E0,3.130000085E-2,1.682999969E0,1.970966445E0
1.384565782E1,-1.317399979E0,-1.939999908E-1,1.938399911E0,2.351717014E0
1.385565782E1,-1.750099897E0,-5.115000010E-1,2.280099869E0,2.919475520E0
1.386565782E1,-2.170399904E0,-8.233999610E-1,2.619999886E0,3.500431779E0
1.387565782E1,-2.530200005E0,-1.062600017E0,2.987999916E0,4.056990801E0
1.388565782E1,-2.711899996E0,-1.182799935E0,3.257699966E0,4.400684759E0
1.389565782E1,-2.648099899E0,-1.119400024E0,3.430599928E0,4.475992109E0
1.390565782E1,-2.387199879E0,-9.651999474E-1,3.341499805E0,4.218525234E0
1.391565782E1,-2.045799971E0,-8.811999559E-1,2.913300037E0,3.667305276E0
1.392565782E1,-1.640299916E0,-8.402999640E-1,2.136899948E0,2.821883986E0
1.393565782E1,-1.236500025E0,-7.719999552E-1,1.247099996E0,1.918378128E0
1.394565782E1,-8.817999959E-1,-6.814999580E-1,2.814999819E-1,1.149458858E0
1.395565782E1,-5.561999679E-1,-5.425999761E-1,-5.759999752E-1,9.672378765E-1
1.396565782E1,-3.199999928E-1,-4.277999997E-1,-1.121500015E0,1.242245998E0
1.397565782E1,-1.938999891E-1,-3.914999962E-1,-1.415599942E0,1.481483260E0
1.398565782E1,-1.685999930E-1,-4.212999940E-1,-1.517699957E0,1.584087372E0
1.399565782E1,-1.677999943E-1,-3.608999848E-1,-1.476699948E0,1.529394774E0
1.400565782E1,-2.137999982E-1,-2.536000013E-1,-1.388999939E0,1.428056102E0
1.401565782E1,-2.391999960E-1,-1.629000008E-1,-1.360899925E0,1.391330893E0
1.402565782E1,-2.414999902E-1,-8.349999785E-2,-1.429999948E0,1.452650799E0
1.403565782E1,-2.766000032E-1,-1.840000041E-2,-1.565799952E0,1.590149556E0
1.404565782E1,-2.631999850E-1,9.910000116E-2,-1.699199915E0,1.722316868E0
1.405565782E1,-1.596999913E-1,2.391999960E-1,-1.810299993E0,1.833004852E0
1.406565782E1,-2.249999903E-2,4.014999866E-1,-1.850299954E0,1.893493705E0
1.407565782E1,5.219999701E-2,4.290999770E-1,-1.976099968E0,2.022825428E0
1.408565782E1,1.728999913E-1,4.699999988E-1,-2.119499922E0,2.177860033E0
1.409565782E1,2.608000040E-1,5.655999780E-1,-2.281299829E0,2.364793625E0
1.410565782E1,2.069999874E-1,6.298999786E-1,-2.373800039E0,2.464660140E0
1.411565782E1,8.839999884E-2,7.038999796E-1,-2.387899876E0,2.491055109E0
1.412565626E1,-5.409999937E-2,7.815999985E-1,-2.415400028E0,2.539287826E0
1.413565782E1,-1.816999912E-1,8.465999961E-1,-2.387699842E0,2.539853732E0
1.414565782E1,-3.558000028E-1,8.321999907E-1,-2.276799917E0,2.450095576E0
1.415565782E1,-5.320999622E-1,8.532999754E-1,-2.088999987E0,2.318441753E0
1.416565782E1,-6.417999864E-1,8.608999848E-1,-1.853699923E0,2.142255683E0
1.417565782E1,-6.854000092E-1,8.542000055E-1,-1.462700009E0,1.827271775E0
1.418565782E1,-6.905999780E-1,8.310999870E-1,-1.082099915E0,1.529246789E0
1.419565782E1,-7.030999660E-1,8.082999587E-1,-6.915000081E-1,1.275096328E0
1.420565782E1,-7.289999723E-1,7.829999924E-1,-3.981999755E-1,1.141531063E0
1.421565782E1,-6.390999556E-1,7.824999690E-1,-1.527999938E-1,1.021813482E0
1.422565782E1,-5.029000044E-1,9.519999623E-1,1.569999941E-2,1.076781701E0
1.423565938E1,-3.127999902E-1,1.202600002E0,1.370999962E-1,1.250154794E0
1.424565782E1,-2.574000061E-1,1.425999999E0,2.013999969E-1,1.462973930E0
1.425565782E1,-2.515999973E-1,1.612100005E0,2.087999880E-1,1.644921402E0
1.426565782E1,-2.685000002E-1,1.820099950E0,1.296999902E-1,1.844363892E0
1.427565782E1,-3.771999776E-1,1.992999911E0,1.893000007E-1,2.037194875E0
1.428565782E1,-5.349999666E-1,2.133699894E0,3.084999919E-1,2.221277211E0
1.429565782E1,-6.312999725E-1,2.174900055E0,3.495000005E-1,2.291479905E0
1.430565782E1,-7.050999999E-1,2.098599911E0,4.296000004E-1,2.255181535E0
1.431565782E1,-8.024999499E-1,1.878799915E0,5.383999944E-1,2.112763556E0
1.432565782E1,-8.919999599E-1,1.528599977E0,7.633000016E-1,1.927409845E0
1.433565782E1,-9.766999483E-1,1.168900013E0,1.191799998E0,1.934077885E0
1.434565782E1,-8.653999567E-1,8.877999783E-1,1.657400012E0,2.069802089E0
1.435565782E1,-6.358000040E-1,7.619000077E-1,2.101599932E0,2.324103169E0
1.436565782E1,-1.691000015E-1,8.940999508E-1,2.427299976E0,2.592256682E0
1.437565782E1,4.117999971E-1,1.151399970E0,2.537699938E0,2.816952627E0
1.438565782E1,9.095999599E-1,1.430199981E0,2.355599880E0,2.902015656E0
1.439565782E1,1.264599919E0,1.463699937E0,2.009299994E0,2.789070979E0
1.440565782E1,1.314299941E0,1.225299954E0,1.625599980E0,2.423080603E0
1.441565782E1,1.168699980E0,8.666999936E-1,1.379899979E0,2.005281146E0
1.442565782E1,1.066799998E0,6.365000010E-1,1.339999914E0,1.827236782E0
1.443565782E1,1.024899960E0,5.153999925E-1,1.486099958E0,1.877378536E0
1.444565782E1,1.038399935E0,4.212999940E-1,1.711099982E0,2.045392691E0
1.445565782E1,1.094699979E0,3.579999804E-1,1.780999899E0,2.120965033E0
1.446565782E1,1.292999983E0,3.707000017E-1,1.598399997E0,2.089054809E0
1.447565782E1,1.530099988E0,3.506999910E-1,1.261699915E0,2.013971979E0
1.448565782E1,1.674999952E0,3.321000040E-1,9.265999794E-1,1.942807961E0
1.449565782E1,1.730699897E0,1.442999989E-1,6.115999818E-1,1.841249348E0
1.450565782E1,1.627099991E0,-1.876999885E-1,4.332999885E-1,1.694235682E0
1.451565782E1,1.359899998E0,-5.522999763E-1,3.911999762E-1,1.519013064E0
1.452565782E1,9.052000046E-1,-8.184999824E-1,4.255999923E-1,1.292464554E0
1.453565782E1,4.522999823E-1,-9.244999886E-1,5.654999614E-1,1.174336285E0
1.454565782E1,1.096000001E-1,-9.289999604E-1,7.221999764E-1,1.181789276E0
1.455565782E1,-1.914999932E-1,-9.423999786E-1,1.023499966E0,1.404400992E0
1.456565782E1,-3.186999857E-1,-1.027799964E0,1.342599988E0,1.720615348E0
1.457565782E1,-2.491999865E-1,-1.132799983E0,1.494599938E0,1.891868233E0
1.458565782E1,-1.370000001E-2,-1.195299983E0,1.353600025E0,1.805868979E0
1.459565782E1,2.390999943E-1,-1.228600025E0,9.598999619E-1,1.577350553E0
1.460565782E1,3.574000001E-1,-1.154299974E0,4.901999831E-1,1.304008901E0
1.461565782E1,4.203999937E-1,-1.060799956E0,1.310000010E-2,1.141141670E0
1.462565782E1,4.974999726E-1,-9.190999866E-1,-5.275999904E-1,1.170731719E0
1.463565782E1,5.866000056E-1,-6.829999685E-1,-1.052600026E0,1.385119251E0
1.464565782E1,6.358999610E-1,-5.076999664E-1,-1.631299973E0,1.822983164E0
1.465565782E1,6.617999673E-1,-3.279999793E-1,-2.198699951E0,2.319449214E0
1.466565782E1,6.647999883E-1,-1.803999990E-1,-2.706499815E0,2.792784351E0
1.467565782E1,6.366999745E-1,3.669999912E-2,-3.126099825E0,3.190491163E0
1.468565782E1,4.711999893E-1,2.193000019E-1,-3.370100021E0,3.409940773E0
1.469565782E1,2.576999962E-1,3.603999913E-1,-3.351099968E0,3.380261593E0
1.470565782E1,6.579999626E-2,5.011000037E-1,-3.236399889E0,3.275624382E0
1.471565782E1,-1.526999921E-1,5.631999969E-1,-2.947599888E0,3.004805588E0
1.472565782E1,-2.203999907E-1,5.356000066E-1,-2.592399836E0,2.656309551E0
1.473565938E1,-2.636999786E-1,4.653999805E-1,-2.170099974E0,2.235054522E0
1.474565782E1,-2.631999850E-1,3.696999848E-1,-1.837099910E0,1.892323542E0
1.475565782E1,-2.788999975E-1,2.753999829E-1,-1.572899938E0,1.621001102E0
1.476565782E1,-3.416000009E-1,1.712999940E-1,-1.357699990E0,1.410455073E0
1.477565782E1,-3.746999800E-1,4.889999703E-2,-1.182099938E0,1.241028424E0
1.478565782E1,-2.732999921E-1,1.669999957E-2,-8.696999550E-1,9.117838490E-1
1.479565782E1,-9.039999545E-2,7.389999926E-2,-5.382999778E-1,5.508177876E-1
1.480565782E1,8.399999887E-2,1.387999952E-1,-3.046000004E-1,3.451124436E-1
1.481565782E1,2.106999904E-1,2.669000030E-1,-1.481999904E-1,3.709357555E-1
1.482565782E1,2.063999921E-1,4.060999751E-1,-5.829999968E-2,4.592570484E-1
1.483565782E1,2.351000011E-1,5.845999718E-1,-1.518999934E-1,6.481533349E-1
1.484565782E1,1.865999997E-1,6.952999830E-1,-2.721000016E-1,7.696103151E-1
1.485565782E1,-3.249999881E-2,7.218999863E-1,-3.804000020E-1,8.166394563E-1
1.486565782E1,-3.608999848E-1,6.006999612E-1,-4.581999779E-1,8.372792020E-1
1.487565782E1,-6.326000094E-1,3.276999891E-1,-4.481999874E-1,8.416966695E-1
1.488565782E1,-7.343999743E-1,-5.139999837E-2,-3.130999804E-1,8.000105498E-1
1.489565782E1,-7.349999547E-1,-4.447000027E-1,-1.499999966E-2,8.591903315E-1
1.490565782E1,-5.976999998E-1,-7.522000074E-1,3.563999832E-1,1.024729764E0
1.491565782E1,-2.472999990E-1,-8.097999692E-1,8.599999547E-1,1.206869173E0
1.492565782E1,2.874000072E-1,-6.615999937E-1,1.388399959E0,1.564598275E0
1.493565782E1,7.595999837E-1,-3.743999898E-1,1.688799977E0,1.889236050E0
1.494565782E1,1.010999918E0,-1.136000007E-1,1.675999999E0,1.960612606E0
1.495565782E1,8.501999974E-1,-7.880000025E-2,1.587399960E0,1.802467228E0
1.496565782E1,4.151999950E-1,-1.518999934E-1,1.345499992E0,1.416274999E0
1.497565782E1,-1.331000030E-1,-2.518000007E-1,9.695000052E-1,1.010469748E0
1.498565782E1,-6.247000098E-1,-3.633999825E-1,6.638000011E-1,9.812951090E-1
1.499565782E1,-9.943999648E-1,-5.974999666E-1,4.362999797E-1,1.239433408E0
1.500565782E1,-1.036599994E0,-9.084999561E-1,4.517999887E-1,1.450529196E0
1.501565782E1,-9.509999752E-1,-1.224399924E0,6.599000096E-1,1.684940400E0
1.502565782E1,-7.781999707E-1,-1.505699992E0,9.814999700E-1,1.958588740E0
1.503565782E1,-6.013999581E-1,-1.666899920E0,1.417400002E0,2.269198100E0
1.504565782E1,-5.360000134E-1,-1.828999996E0,1.958799958E0,2.733026578E0
1.505565782E1,-5.457999706E-1,-1.937500000E0,2.420899868E0,3.148421831E0
1.506565782E1,-6.252999902E-1,-1.889299989E0,2.736500025E0,3.383620385E0
1.507565782E1,-7.231999636E-1,-1.747200012E0,2.847899914E0,3.418517221E0
1.508565782E1,-7.820999622E-1,-1.632299900E0,2.735800028E0,3.280348321E0
1.509565782E1,-7.462999821E-1,-1.537199974E0,2.410199881E0,2.954489954E0
1.510565782E1,-6.365000010E-1,-1.442600012E0,1.949399948E0,2.507266879E0
1.511565782E1,-4.597999752E-1,-1.317999959E0,1.353199959E0,1.944142494E0
1.512565626E1,-2.900999784E-1,-1.180699944E0,8.054999709E-1,1.458437712E0
1.513565782E1,-1.906999946E-1,-1.045799971E0,2.919999957E-1,1.102419187E0
1.514566251E1,-1.738999933E-1,-8.657999635E-1,-6.560000032E-2,8.855247848E-1
1.515565782E1,-1.274999976E-1,-6.484999657E-1,-3.346000016E-1,7.407871597E-1
1.516565782E1,-1.124999970E-1,-4.736000001E-1,-5.442999601E-1,7.302161708E-1
1.517565782E1,-1.111999974E-1,-2.847000062E-1,-7.922999859E-1,8.492106927E-1
1.518565782E1,-1.343999952E-1,-5.489999801E-2,-1.107599974E0,1.117074335E0
1.519565782E1,-2.008999884E-1,1.152999997E-1,-1.519299984E0,1.536856316E0
1.520565782E1,-2.588999867E-1,2.748999894E-1,-2.046799898E0,2.081343083E0
1.521565782E1,-3.436999917E-1,3.876000047E-1,-2.494199991E0,2.547429497E0
1.522565782E1,-4.425999820E-1,5.058999658E-1,-2.891700029E0,2.968797497E0
1.523565782E1,-5.145999789E-1,6.536999941E-1,-3.112299919E0,3.221575330E0
1.524565782E1,-5.593000054E-1,8.150999546E-1,-3.245100021E0,3.392326426E0
1.525565782E1,-6.071000099E-1,9.533999562E-1,-3.221999884E0,3.414502182E0
1.526565782E1,-7.098000050E-1,1.070400000E0,-3.141399860E0,3.393812795E0
1.527565782E1,-7.732999921E-1,1.176999927E0,-2.964599848E0,3.282099018E0
1.528565782E1,-7.529000044E-1,1.253899932E0,-2.701299906E0,3.071830828E0
1.529565782E1,-7.191999555E-1,1.262199998E0,-2.332200050E0,2.747645262E0
1.530565782E1,-6.815999746E-1,1.269299984E0,-1.964699984E0,2.436338852E0
1.531565782E1,-6.193999648E-1,1.234499931E0,-1.539699912E0,2.068410553E0
1.532565782E1,-6.003999710E-1,1.174499989E0,-1.076099992E0,1.702328271E0
1.533565782E1,-5.719000101E-1,1.135999918E0,-6.322999597E-1,1.420341042E0
1.534565782E1,-5.306000113E-1,1.057500005E0,-2.566999793E-1,1.210676469E0
1.535565782E1,-4.950999916E-1,1.043699980E0,6.079999730E-2,1.156775816E0
1.536565782E1,-4.737999737E-1,1.073099971E0,3.304999769E-1,1.218712516E0
1.537565782E1,-4.483999908E-1,1.153200030E0,4.741999805E-1,1.325065464E0
1.538565782E1,-4.131999910E-1,1.253499985E0,5.212999582E-1,1.419066627E0
1.539565782E1,-4.097999930E-1,1.333999991E0,5.012999773E-1,1.482832991E0
1.540565782E1,-4.089999795E-1,1.386799932E0,4.726999998E-1,1.521164134E0
1.541565782E1,-4.099999964E-1,1.442899942E0,4.549999833E-1,1.567509243E0
1.542565782E1,-3.527999818E-1,1.513000011E0,4.381999969E-1,1.614204479E0
1.543565782E1,-3.046999872E-1,1.597499967E0,3.831000030E-1,1.670812329E0
1.544565782E1,-2.917000055E-1,1.609899998E0,3.091000021E-1,1.665055467E0
1.545565782E1,-3.307999969E-1,1.523399949E0,2.744999826E-1,1.582885430E0
1.546565782E1,-3.525999784E-1,1.351400018E0,3.473999798E-1,1.439199604E0
1.547565782E1,-2.897000015E-1,1.146000028E0,4.978999794E-1,1.282632661E0
1.548565782E1,-1.949999928E-1,9.584999681E-1,7.353000045E-1,1.223688393E0
1.549565782E1,-1.212999970E-1,7.895999551E-1,9.612999558E-1,1.249911750E0
1.550565782E1,-1.005999967E-1,7.664999962E-1,1.195699930E0,1.423847227E0
1.551565782E1,-1.550000012E-1,7.620999813E-1,1.497099996E0,1.687047652E0
1.552565782E1,-2.940999866E-1,5.609999895E-1,1.796899915E0,1.905272971E0
1.553565782E1,-3.980000019E-1,3.594000041E-1,2.193199873E0,2.257808240E0
1.554565782E1,-4.431999922E-1,1.567000002E-1,2.676499844E0,2.717468038E0
1.555565782E1,-4.870999753E-1,-6.030000001E-2,3.198400021E0,3.235840720E0
1.556565782E1,-3.738999963E-1,-3.071999848E-1,3.632399797E0,3.664491960E0
1.557565782E1,-6.000000052E-3,-3.549000025E-1,3.920499802E0,3.936535114E0
1.558565782E1,4.790999889E-1,-2.498999983E-1,3.965600014E0,4.002245654E0
1.559565782E1,9.066999555E-1,-1.841000021E-1,3.699699879E0,3.813630398E0
1.560565782E1,1.135800004E0,-1.977999955E-1,3.132999897E0,3.338391056E0
1.561565782E1,1.115399957E0,-3.070999980E-1,2.402199984E0,2.666269347E0
1.562565782E1,9.984999895E-1,-5.198000073E-1,1.646399975E0,1.994449085E0
1.563565782E1,7.914999723E-1,-6.527999640E-1,9.740999937E-1,1.414740540E0
1.564565782E1,5.666999817E-1,-7.278999686E-1,5.590999722E-1,1.078693660E0
1.565565782E1,3.648999929E-1,-8.017999530E-1,3.975999951E-1,9.664993148E-1
1.566565782E1,2.479999959E-1,-8.430999517E-1,4.101999998E-1,9.698379073E-1
1.567565782E1,2.624999881E-1,-7.847999930E-1,5.676999688E-1,1.003543984E0
1.568565782E1,3.215000033E-1,-6.797999740E-1,7.626999617E-1,1.071074922E0
1.569565782E1,3.797999918E-1,-5.533999801E-1,8.491999507E-1,1.082423267E0
1.570565782E1,4.126999974E-1,-4.797999859E-1,7.694000006E-1,9.962457906E-1
1.571565782E1,4.149999917E-1,-4.923999906E-1,5.339999795E-1,8.365636389E-1
1.572565782E1,4.505999982E-1,-5.734999776E-1,1.140000001E-1,7.381995548E-1
1.573565782E1,5.230999589E-1,-5.550999641E-1,-3.533000052E-1,8.405893354E-1
1.574565782E1,5.541999936E-1,-4.351999760E-1,-7.899999619E-1,1.058601243E0
1.575565782E1,5.709999800E-1,-2.903999984E-1,-1.098199964E0,1.271383615E0
1.576565782E1,5.508999825E-1,-1.790999919E-1,-1.405499935E0,1.520196588E0
1.577565782E1,5.006999969E-1,-8.159999549E-2,-1.741299987E0,1.813693659E0
1.578565782E1,3.795000017E-1,4.199999943E-2,-2.086299896E0,2.120950614E0
1.579565782E1,2.649999857E-1,1.442999989E-1,-2.411200047E0,2.430006820E0
1.580565782E1,1.860999912E-1,2.175999880E-1,-2.647799969E0,2.663236309E0
1.581565782E1,1.244999990E-1,2.839999795E-1,-2.816200018E0,2.833220567E0
1.582565782E1,8.259999752E-2,3.258999884E-1,-2.808899879E0,2.828948938E0
1.583565782E1,4.419999942E-2,3.344999850E-1,-2.694700003E0,2.715741516E0
1.584565782E1,4.039999843E-2,3.784999847E-1,-2.444200039E0,2.473662917E0
1.585565782E1,1.200999990E-1,4.168999791E-1,-2.135499954E0,2.179125893E0
1.586565782E1,1.455999911E-1,4.378999770E-1,-1.797699928E0,1.855985124E0
1.587565782E1,2.041999996E-1,4.485999942E-1,-1.577299953E0,1.652517696E0
1.588565782E1,2.069999874E-1,4.186999798E-1,-1.395599961E0,1.471685401E0
1.589565782E1,1.535999924E-1,3.376999795E-1,-1.281899929E0,1.334504276E0
1.590565782E1,2.359999903E-2,2.162999958E-1,-1.197199941E0,1.216811549E0
1.591565782E1,-1.448999941E-1,1.240999997E-1,-1.102399945E0,1.118786154E0
1.592565782E1,-2.175000012E-1,4.189999774E-2,-9.684000015E-1,9.934084876E-1
1.593565782E1,-1.380999982E-1,1.070999950E-1,-7.953999639E-1,8.143728390E-1
1.594565782E1,8.289999515E-2,2.212999910E-1,-5.734999776E-1,6.202808392E-1
1.595565782E1,3.380999863E-1,3.432999849E-1,-3.316999972E-1,5.849712545E-1
1.596565782E1,5.331999660E-1,4.420000017E-1,-1.674999893E-1,7.125464557E-1
1.597565782E1,6.342999935E-1,5.354999900E-1,-1.488000005E-1,8.433493708E-1
1.598565782E1,5.963999629E-1,5.554999709E-1,-1.870999932E-1,8.362293590E-1
1.599565782E1,5.097000003E-1,5.340999961E-1,-2.435999960E-1,7.774302889E-1
1.600565782E1,3.055000007E-1,4.160999954E-1,-2.996000051E-1,5.968497463E-1
1.601565782E1,1.162000000E-1,1.856999993E-1,-2.680000067E-1,3.461371597E-1
1.602565782E1,-1.105999947E-1,-1.144999936E-1,-1.498999894E-1,2.186609571E-1
1.603565782E1,-2.803999782E-1,-4.025000036E-1,3.370000049E-2,4.916971534E-1
1.604565938E1,-3.403999805E-1,-5.493000150E-1,3.112999797E-1,7.172937547E-1
1.605565782E1,-1.507999897E-1,-5.077999830E-1,6.238999963E-1,8.184452731E-1
1.606565782E1,2.431999892E-1,-2.820000052E-1,9.817000031E-1,1.049954825E0
1.607565782E1,7.034999728E-1,-3.439999744E-2,1.189899921E0,1.382735475E0
1.608565782E1,9.338999987E-1,1.015999988E-1,1.260800004E0,1.572293998E0
1.609565782E1,9.664999843E-1,1.432999969E-1,1.176299930E0,1.529162723E0
1.610565782E1,7.263000011E-1,3.269999847E-2,1.005900025E0,1.241134901E0
1.611565782E1,3.181000054E-1,-1.585000008E-1,8.276999593E-1,9.007758247E-1
1.612565782E1,-1.105999947E-1,-3.449999988E-1,7.092999816E-1,7.964695988E-1
1.613565782E1,-6.590999961E-1,-6.739999652E-1,6.599000096E-1,1.150720114E0
1.614565782E1,-1.135299921E0,-1.105999947E0,7.754999995E-1,1.764523177E0
1.615565782E1,-1.466199994E0,-1.536899924E0,1.045199990E0,2.367329048E0
1.616565782E1,-1.628399968E0,-1.828199983E0,1.429199934E0,2.834892253E0
1.617565782E1,-1.646899939E0,-1.981199980E0,1.927399993E0,3.217499573E0
1.618565782E1,-1.524500012E0,-2.097399950E0,2.471799850E0,3.582315081E0
1.619565782E1,-1.280799985E0,-2.094199896E0,3.014899969E0,3.887897070E0
1.620565782E1,-8.721999526E-1,-1.987899899E0,3.489899874E0,4.109973223E0
1.621565782E1,-5.561000109E-1,-1.863799930E0,3.624199867E0,4.113128016E0
1.622565782E1,-3.764999807E-1,-1.776399970E0,3.389899969E0,3.845617101E0
1.623565782E1,-3.493999839E-1,-1.708400011E0,2.826799870E0,3.321371471E0
1.624565782E1,-3.928000033E-1,-1.569000006E0,2.061800003E0,2.620509896E0
1.625565782E1,-4.583999813E-1,-1.363099933E0,1.192099929E0,1.867959906E0
1.626565782E1,-5.009999871E-1,-1.232399940E0,4.219999909E-1,1.395669944E0
1.627565782E1,-5.530999899E-1,-1.131299973E0,-2.888999879E-1,1.291983912E0
1.628565782E1,-5.683999658E-1,-1.015299916E0,-8.637999892E-1,1.449159364E0
1.629565782E1,-5.798000097E-1,-8.414999843E-1,-1.254599929E0,1.618119667E0
1.630565782E1,-5.817999840E-1,-6.965000033E-1,-1.412899971E0,1.679252752E0
1.631565782E1,-5.371999741E-1,-5.322999954E-1,-1.406999946E0,1.597365313E0
1.632565782E1,-4.056999981E-1,-3.622999787E-1,-1.275200009E0,1.386358116E0
1.633565782E1,-2.320999950E-1,-2.215999961E-1,-1.163100004E0,1.206556499E0
1.634565782E1,-2.969999984E-2,-1.547999978E-1,-1.186599970E0,1.197023232E0
1.635565782E1,9.149999917E-2,-1.164999977E-1,-1.305799961E0,1.314175802E0
1.636565782E1,1.870999932E-1,-6.849999726E-2,-1.539799929E0,1.552637265E0
1.637565782E1,1.714999974E-1,1.989999972E-2,-1.840099931E0,1.848181813E0
1.638565782E1,2.359999903E-2,1.115999967E-1,-2.187700033E0,2.190671804E0
1.639565782E1,-2.219000012E-1,2.104000002E-1,-2.475399971E0,2.494215866E0
1.640565782E1,-4.350000024E-1,2.703999877E-1,-2.655299902E0,2.704248274E0
1.641565782E1,-5.824999809E-1,3.335999846E-1,-2.777099848E0,2.857075208E0
1.642565782E1,-5.798999667E-1,4.608999789E-1,-2.870699883E0,2.964731114E0
