"Time (s)","Linear Acceleration x (m/s^2)","Linear Acceleration y (m/s^2)","Linear Acceleration z (m/s^2)","Absolute acceleration (m/s^2)"
3.407977000E-3,4.477699757E0,-8.668600082E0,6.446999907E-1,9.778039710E0
1.340641500E-2,8.335999846E-1,-1.134500027E0,-2.964599848E0,3.281894499E0
2.340641500E-2,1.010200024E0,-1.516899943E0,-3.876599789E0,4.283633440E0
3.341110200E-2,8.836999536E-1,-1.908899903E0,-4.749300003E0,5.194292538E0
4.340797700E-2,6.017999649E-1,-2.261199951E0,-5.356899738E0,5.845644808E0
5.340797700E-2,5.855999589E-1,-2.318899870E0,-5.424999714E0,5.928814874E0
6.340797700E-2,9.801999927E-1,-2.288300037E0,-5.346299648E0,5.897459539E0
7.340641500E-2,1.559000015E0,-2.424199820E0,-5.562500000E0,6.264872869E0
8.340797700E-2,2.047199965E0,-2.676899910E0,-5.701299667E0,6.622811995E0
9.340641500E-2,2.531699896E0,-2.800699949E0,-5.449399948E0,6.629433186E0
1.034064150E-1,3.709899902E0,-2.542399883E0,-4.935999870E0,6.677667944E0
1.134064150E-1,5.678499699E0,-2.011899948E0,-3.913800001E0,7.184074796E0
1.234079770E-1,6.279599667E0,-1.890599966E0,-1.056599975E0,6.642600674E0
1.334111020E-1,6.868099689E0,-2.523200035E0,3.311299801E0,8.031316090E0
1.434079770E-1,9.197500229E0,-3.429099798E0,7.208899975E0,1.217870990E1
1.534079770E-1,1.323989964E1,-5.358599663E0,1.068900013E1,1.783996235E1
1.634079770E-1,1.670759964E1,-6.890599728E0,1.235489941E1,2.189218558E1
1.734079770E-1,1.752260017E1,-7.448400021E0,1.263869953E1,2.285294085E1
1.834189150E-1,1.628240013E1,-7.076900005E0,1.350729942E1,2.230798524E1
1.934079770E-1,1.537899971E1,-6.446799755E0,1.529220009E1,2.262578712E1
2.034079770E-1,1.630379868E1,-6.354300022E0,1.722379875E1,2.455300844E1
2.134079770E-1,1.856049919E1,-6.749599934E0,1.946229935E1,2.772778977E1
2.234079770E-1,1.972629929E1,-6.994699955E0,2.127820015E1,2.984651592E1
2.334079770E-1,1.987879944E1,-6.911699772E0,2.143980026E1,3.004335694E1
2.434079770E-1,1.985689926E1,-6.725199699E0,2.008129883E1,2.903073065E1
2.534079770E-1,1.993330002E1,-6.622299671E0,1.736540031E1,2.725341136E1
2.634079770E-1,2.001659966E1,-6.542399883E0,1.396070004E1,2.526595344E1
2.734142270E-1,1.979879951E1,-6.273599625E0,1.060809994E1,2.332128424E1
2.834079770E-1,1.896819878E1,-5.497799873E0,7.642699718E0,2.117614760E1
2.934079770E-1,1.743540001E1,-4.645899773E0,5.206699848E0,1.877997022E1
3.034079770E-1,1.547469997E1,-4.130799770E0,2.848700047E0,1.626791130E1
3.134079770E-1,1.257979965E1,-4.060100079E0,-1.047199965E0,1.326018098E1
3.234173520E-1,1.131559944E1,-3.679600000E0,-2.949100018E0,1.225885141E1
3.334079770E-1,1.066289997E1,-3.445999861E0,-4.561800003E0,1.209885821E1
3.434079770E-1,9.545000076E0,-3.187799931E0,-5.299799919E0,1.137352074E1
3.534079770E-1,8.289799690E0,-2.767799854E0,-5.792099953E0,1.048474686E1
3.634079770E-1,7.107999802E0,-2.138499975E0,-6.106699944E0,9.611900308E0
3.734236020E-1,6.673500061E0,-1.709800005E0,-5.963999748E0,9.111987276E0
3.834079770E-1,6.708999634E0,-1.766299963E0,-5.408199787E0,8.796540035E0
3.934079770E-1,6.558499813E0,-2.242300034E0,-4.515199661E0,8.272173670E0
4.034079770E-1,6.603299618E0,-2.806399822E0,-3.402799845E0,7.940937765E0
4.134079770E-1,6.937500000E0,-3.429699898E0,-2.622799873E0,8.171341800E0
4.234173520E-1,7.452299595E0,-4.153599739E0,-2.156599998E0,8.800004750E0
4.334079770E-1,8.141499519E0,-4.986299992E0,-2.540899992E0,9.879442029E0
4.434079770E-1,8.272500038E0,-5.898900032E0,-3.652999878E0,1.079702212E1
4.534079770E-1,7.654899597E0,-6.729899883E0,-5.230700016E0,1.145640707E1
4.634079770E-1,6.680799961E0,-7.415799618E0,-6.822099686E0,1.209000481E1
4.734126650E-1,5.572400093E0,-7.892999649E0,-8.261300087E0,1.271220537E1
4.834079770E-1,4.726299763E0,-8.148499489E0,-9.580499649E0,1.343584485E1
4.934079770E-1,4.243000031E0,-8.355199814E0,-1.092789936E1,1.439553395E1
5.034079770E-1,3.876199961E0,-8.286899567E0,-1.171729946E1,1.486582447E1
5.134079770E-1,4.026799679E0,-7.919299603E0,-1.167980003E1,1.467474534E1
5.234142270E-1,4.362299919E0,-7.636299610E0,-1.100209999E1,1.408506076E1
5.334079770E-1,4.630300045E0,-7.565799713E0,-1.008510017E1,1.343094372E1
5.434079770E-1,4.801099777E0,-7.639899731E0,-8.858900070E0,1.264510725E1
5.534079770E-1,5.157899857E0,-7.655699730E0,-7.368700027E0,1.181149480E1
5.634079770E-1,5.497600079E0,-7.559799671E0,-5.502699852E0,1.084683748E1
5.734220400E-1,4.829099655E0,-7.610599995E0,-4.163099766E0,9.928385338E0
5.834079770E-1,3.749799967E0,-7.528399944E0,-3.436100006E0,9.085405261E0
5.934079770E-1,3.081699848E0,-7.133299828E0,-2.860199928E0,8.280192269E0
6.034079770E-1,3.035699844E0,-5.799900055E0,-2.616400003E0,7.049812988E0
6.134079770E-1,4.037099838E0,-3.704199791E0,-2.206799984E0,5.906711214E0
6.234126650E-1,4.826499939E0,-1.862999916E0,1.794999987E-1,5.176687222E0
6.334079770E-1,5.270799637E0,-4.888999760E-1,4.189700127E0,6.750847291E0
6.434079770E-1,5.017299652E0,7.207999825E-1,8.421899796E0,9.829610602E0
6.534079770E-1,2.518800020E0,1.466300011E0,1.298909950E1,1.331206577E1
6.634079770E-1,-2.142199993E0,2.387099981E0,1.577539921E1,1.609815167E1
6.734126650E-1,-4.883500099E0,3.966399908E0,1.422690010E1,1.555588596E1
6.834079770E-1,-3.475999832E0,6.211400032E0,8.939000130E0,1.142671381E1
6.934079770E-1,-2.558999956E-1,9.040100098E0,3.461299896E0,9.683464853E0
7.034079770E-1,3.599499941E0,1.212699986E1,4.685999751E-1,1.265859831E1
7.134079770E-1,5.311399937E0,1.376309967E1,2.651999891E-1,1.475480304E1
7.234111020E-1,4.865799904E0,1.292499924E1,1.698300004E0,1.391459079E1
7.334079770E-1,4.064300060E0,1.032319927E1,3.569599867E0,1.165457084E1
7.434079770E-1,2.986699820E0,7.052700043E0,4.132100105E0,8.702597600E0
7.534079770E-1,1.696599960E0,3.462499857E0,4.375899792E0,5.832311349E0
7.634079770E-1,1.003000021E0,9.719999880E-2,5.776299953E0,5.863539719E0
7.734126650E-1,1.212399960E0,-2.430199862E0,6.678699970E0,7.209772418E0
7.834079770E-1,1.576999903E0,-4.308199883E0,5.365599632E0,7.059544910E0
7.934079770E-1,1.566100001E0,-6.024799824E0,3.220499992E0,7.008744704E0
8.034079770E-1,2.063199997E0,-6.410699844E0,1.569599986E0,6.915020668E0
8.134079770E-1,2.598799944E0,-5.973499775E0,-5.302999616E-1,6.535876281E0
8.234157900E-1,2.400799990E0,-5.867300034E0,-3.297399998E0,7.145760773E0
8.334079770E-1,1.462700009E0,-6.150300026E0,-5.873600006E0,8.629302333E0
8.434079770E-1,2.290000021E-2,-6.411799908E0,-8.077599525E0,1.031306533E1
8.534079770E-1,-7.245000005E-1,-6.474699974E0,-8.805299759E0,1.095353568E1
8.634079770E-1,-8.076999784E-1,-6.407299995E0,-8.347199440E0,1.055374867E1
8.734095400E-1,-6.840999722E-1,-6.284800053E0,-7.839099884E0,1.007065993E1
8.834079770E-1,1.146999970E-1,-5.819999695E0,-7.926599979E0,9.834456760E0
8.934079770E-1,9.962999821E-1,-5.343699932E0,-8.183099747E0,9.823994304E0
9.034079770E-1,1.145200014E0,-4.959499836E0,-8.698800087E0,1.007855370E1
9.134079770E-1,1.097599983E0,-4.660699844E0,-9.477499962E0,1.061837343E1
9.234079770E-1,1.159199953E0,-4.439899921E0,-9.491799355E0,1.054280375E1
9.334079770E-1,1.260999918E0,-4.219999790E0,-8.851900101E0,9.887095348E0
9.434079770E-1,1.344299912E0,-4.147999763E0,-7.436499596E0,8.620589918E0
9.534079770E-1,9.548999667E-1,-4.422299862E0,-5.811699867E0,7.365081491E0
9.634079770E-1,7.997999787E-1,-4.656699657E0,-4.759699821E0,6.706658937E0
9.734157900E-1,1.545199990E0,-4.594099998E0,-4.072700024E0,6.330899090E0
9.834079770E-1,2.823799849E0,-4.089499950E0,-3.508399963E0,6.083315357E0
9.934079770E-1,3.607399940E0,-3.628700018E0,-3.651099920E0,6.285803750E0
1.003407977E0,4.033999920E0,-3.680399895E0,-4.452600002E0,7.045860169E0
1.013407977E0,4.022799969E0,-4.057600021E0,-5.341300011E0,7.821542260E0
1.023411102E0,3.775599957E0,-4.522399902E0,-5.786599636E0,8.257844226E0
1.033407977E0,3.253799915E0,-4.969399929E0,-5.754799843E0,8.270421439E0
1.043407977E0,2.610100031E0,-5.064599991E0,-5.707299709E0,8.064494108E0
1.053407977E0,2.382599831E0,-4.665699959E0,-5.622200012E0,7.684703705E0
1.063407977E0,2.381399870E0,-3.845599890E0,-4.713799953E0,6.532963635E0
1.073407977E0,2.542399883E0,-2.598099947E0,-3.784399986E0,5.247437828E0
1.083407977E0,3.267599821E0,-1.337499976E0,-3.165899992E0,4.742260804E0
1.093407977E0,3.355899811E0,-4.499999806E-2,-1.572099924E0,3.706155247E0
1.103407977E0,2.280099869E0,1.564099908E0,1.646299958E0,3.218006757E0
1.113407977E0,1.191599965E0,3.510499954E0,5.430399895E0,6.575162616E0
1.123409540E0,-3.804999888E-1,6.035299778E0,9.147899628E0,1.096602440E1
1.133407977E0,-2.941999912E0,8.916199684E0,1.199240017E1,1.523061529E1
1.143407977E0,-4.676199913E0,1.134000015E1,1.291230011E1,1.780982715E1
1.153407977E0,-4.468299866E0,1.366919994E1,1.161859989E1,1.848795809E1
1.163407977E0,-3.320099831E0,1.550589943E1,1.033990002E1,1.893065008E1
1.173407977E0,-2.192399979E0,1.690219879E1,9.623999596E0,1.957325496E1
1.183407977E0,-4.109999835E-1,1.779119873E1,9.491600037E0,2.016894009E1
1.193407977E0,4.244000018E-1,1.785429955E1,1.020059967E1,2.056716707E1
1.203407977E0,1.393999904E-1,1.610019875E1,1.056349945E1,1.925677420E1
1.213422040E0,-5.579999685E-1,1.249819946E1,1.041729927E1,1.627994097E1
1.223407977E0,-6.006999612E-1,8.302399635E0,1.123390007E1,1.398181644E1
1.233407977E0,6.099999696E-2,4.848000050E0,1.345020008E1,1.429736716E1
1.243407977E0,9.070999622E-1,2.398200035E0,1.536489964E1,1.557736610E1
1.253407977E0,1.621799946E0,8.309999853E-2,1.359879971E1,1.369541873E1
1.263415790E0,1.726599932E0,-2.678599834E0,9.564700127E0,1.008164336E1
1.273407977E0,8.942999840E-1,-4.475800037E0,5.387000084E0,7.060618127E0
1.283407977E0,3.685999811E-1,-4.982599735E0,1.802099943E0,5.311283298E0
1.293407977E0,4.449999928E-1,-4.921199799E0,-1.766299963E0,5.247480158E0
1.303407977E0,4.800999761E-1,-4.795099735E0,-5.158999920E0,7.059657048E0
1.313407977E0,2.395000011E-1,-4.837199688E0,-8.263299942E0,9.577994936E0
1.323407977E0,-2.906999886E-1,-4.948400021E0,-1.062749958E1,1.172667543E1
1.333407977E0,-5.360999703E-1,-5.226200104E0,-1.190310001E1,1.301093235E1
1.343407977E0,-5.605999827E-1,-5.429399967E0,-1.175819969E1,1.296332968E1
1.353407977E0,-4.858999848E-1,-5.573699951E0,-1.088630009E1,1.223984312E1
1.363417352E0,-4.592999816E-1,-5.658899784E0,-9.918999672E0,1.142893948E1
1.373407977E0,-4.909999967E-1,-5.559299946E0,-9.584899902E0,1.109131205E1
1.383407977E0,-3.093999922E-1,-5.241899967E0,-9.664400101E0,1.099881234E1
1.393407977E0,2.536000013E-1,-4.740900040E0,-9.600999832E0,1.071072565E1
1.403407977E0,8.731999993E-1,-4.194299698E0,-9.349599838E0,1.028443704E1
1.413411102E0,1.298900008E0,-4.277899742E0,-8.709099770E0,9.789585601E0
1.423407977E0,1.301699996E0,-4.982500076E0,-7.880199909E0,9.413675186E0
1.433407977E0,8.409000039E-1,-5.818199635E0,-7.548799992E0,9.567807540E0
1.443407977E0,4.321999848E-1,-6.629799843E0,-6.988999844E0,9.642985098E0
1.453407977E0,4.157999754E-1,-6.932399750E0,-6.129899979E0,9.263192196E0
1.463420477E0,7.361999750E-1,-6.782599926E0,-5.212399960E0,8.585730342E0
1.473407977E0,1.248499990E0,-6.413899899E0,-4.888400078E0,8.160472992E0
1.483407977E0,1.712599993E0,-5.921299934E0,-5.624199867E0,8.344244471E0
1.493407977E0,1.854900002E0,-5.559199810E0,-6.792399883E0,8.971179004E0
1.503407977E0,1.701399922E0,-5.360899925E0,-7.877099991E0,9.678983106E0
1.513418915E0,1.680099964E0,-5.064499855E0,-8.715999603E0,1.021961564E1
1.523407977E0,1.976199985E0,-4.426799774E0,-9.000199318E0,1.022279367E1
1.533407977E0,2.226699829E0,-3.775799990E0,-8.399799347E0,9.474781621E0
1.543407977E0,2.389600039E0,-3.279599905E0,-7.325899601E0,8.374650371E0
1.553407977E0,2.391099930E0,-2.581199884E0,-5.961899757E0,6.922730707E0
1.563411102E0,2.319399834E0,-1.802099943E0,-3.639599800E0,4.676950555E0
1.573407977E0,2.647599936E0,-1.003499985E0,-1.015699983E0,3.008063180E0
1.583407977E0,2.629799843E0,1.493999958E-1,2.467599869E0,3.609323577E0
1.593407977E0,1.537099957E0,1.859899998E0,7.091799736E0,7.491029821E0
1.603407977E0,1.850999892E-1,3.584899902E0,1.266440010E1,1.316331262E1
1.613420477E0,-1.314700007E0,5.522399902E0,1.670629883E1,1.764442567E1
1.623407977E0,-3.053099871E0,8.435400009E0,1.695680046E1,1.918359909E1
1.633407977E0,-4.819799900E0,1.164409924E1,1.510389996E1,1.967087471E1
1.643407977E0,-5.304999828E0,1.422149944E1,1.200129986E1,1.935007152E1
1.653407977E0,-4.758100033E0,1.566019917E1,9.026999474E0,1.869139035E1
1.663420477E0,-4.899399757E0,1.604959869E1,8.788199425E0,1.894270797E1
1.673407977E0,-5.369400024E0,1.597019958E1,1.017920017E1,1.968486341E1
1.683407977E0,-5.655600071E0,1.557559967E1,1.148740005E1,2.016297293E1
1.693407977E0,-5.656699657E0,1.454729939E1,1.110569954E1,1.915616696E1
1.703407977E0,-4.399399757E0,1.232509995E1,1.007030010E1,1.651283595E1
1.713414227E0,-2.305500031E0,9.702799797E0,1.028230000E1,1.432429222E1
1.723407977E0,-2.178999931E-1,7.270499706E0,1.248589993E1,1.445009838E1
1.733407977E0,1.051599979E0,5.225999832E0,1.481479931E1,1.574468848E1
1.743407977E0,1.790699959E0,2.956899881E0,1.415660000E1,1.457254908E1
1.753407977E0,1.905599952E0,6.293999553E-1,1.101239967E1,1.119376621E1
1.763420477E0,1.411799908E0,-1.102599978E0,7.921799660E0,8.121811100E0
1.773407977E0,7.353000045E-1,-2.189599991E0,4.853799820E0,5.375349934E0
1.783407977E0,1.622999907E-1,-2.991699934E0,1.425300002E0,3.317844161E0
1.793407977E0,-1.497000009E-1,-3.724799871E0,-3.062999964E0,4.824781130E0
1.803407977E0,-1.923999935E-1,-4.294899940E0,-7.736399651E0,8.850709735E0
1.813415790E0,-4.499999806E-2,-4.855700016E0,-1.118410015E1,1.219278245E1
1.823407977E0,-1.193000004E-1,-5.411499977E0,-1.306919956E1,1.414576056E1
1.833407977E0,-1.225999966E-1,-6.027499676E0,-1.343619919E1,1.472675225E1
1.843407977E0,1.994999945E-1,-6.627699852E0,-1.220269966E1,1.388783945E1
1.853407977E0,8.684999943E-1,-7.114899635E0,-1.049979973E1,1.271305956E1
1.863411102E0,1.149600029E0,-7.122799873E0,-9.062399864E0,1.158373642E1
1.873407977E0,1.488399982E0,-7.046099663E0,-8.254499435E0,1.095443362E1
1.883407977E0,1.146499991E0,-7.165099621E0,-8.345899582E0,1.105925651E1
1.893407977E0,4.324999750E-1,-7.231499672E0,-9.641499519E0,1.205985724E1
1.903407977E0,2.874999940E-1,-7.339900017E0,-1.102219963E1,1.324559071E1
1.913407977E0,4.727999866E-1,-7.199399948E0,-1.160729980E1,1.366690558E1
1.923411102E0,6.401999593E-1,-6.955999851E0,-1.140479946E1,1.337405102E1
1.933407977E0,5.363999605E-1,-7.060499668E0,-1.139519978E1,1.341599636E1
1.943407977E0,-1.300000004E-3,-7.535299778E0,-1.167449951E1,1.389513164E1
1.953407977E0,-3.683999777E-1,-7.900300026E0,-1.173279953E1,1.414952451E1
1.963407977E0,-5.934999585E-1,-7.972399712E0,-1.149959946E1,1.400543420E1
1.973407977E0,-4.509999752E-1,-7.866699696E0,-1.106809998E1,1.358643449E1
1.983407977E0,1.411999911E-1,-7.641899586E0,-1.102029991E1,1.341139727E1
1.993407977E0,6.701999903E-1,-7.500999928E0,-1.103800011E1,1.336232069E1
2.003425165E0,9.587000012E-1,-7.595199585E0,-1.103020000E1,1.342652131E1
2.013407977E0,9.533999562E-1,-7.941099644E0,-1.112029934E1,1.369784992E1
2.023407977E0,6.046999693E-1,-8.497399330E0,-1.151919937E1,1.432701684E1
2.033407977E0,-7.484999895E-1,-8.840099335E0,-1.164319992E1,1.463802285E1
2.043407977E0,-2.628499985E0,-9.052599907E0,-1.250649929E1,1.566113348E1
2.053407977E0,-3.303999901E0,-9.266699791E0,-1.433329964E1,1.738481000E1
2.063407977E0,-2.187599897E0,-9.404899597E0,-1.612879944E1,1.879829516E1
2.073407977E0,3.449999914E-2,-9.047599792E0,-1.637139893E1,1.870515851E1
2.083407977E0,2.158099890E0,-8.047499657E0,-1.449109936E1,1.671560966E1
2.093407977E0,4.920199871E0,-7.001199722E0,-1.147340012E1,1.431307355E1
2.103422040E0,7.094399929E0,-6.546199799E0,-8.718500137E0,1.300751655E1
2.113407977E0,8.914400101E0,-6.946899891E0,-7.031199932E0,1.331028624E1
2.123407977E0,1.132419968E1,-7.444999695E0,-5.438299656E0,1.460276076E1
2.133407977E0,1.563259983E1,-7.833799839E0,-3.992100000E0,1.793553623E1
2.143407977E0,2.088649940E1,-8.333600044E0,-4.942999780E-1,2.249308960E1
2.153407977E0,2.696389961E1,-8.458399773E0,4.947899818E0,2.868933812E1
2.163407977E0,3.075549889E1,-8.270299911E0,8.698200226E0,3.301450075E1
2.173407977E0,3.030690002E1,-8.926799774E0,8.664799690E0,3.276087143E1
2.183407977E0,2.744449997E1,-1.080200005E1,6.547999859E0,3.021191960E1
2.193407977E0,2.400440025E1,-1.209379959E1,4.994100094E0,2.733884152E1
2.203412665E0,2.073270035E1,-1.281449986E1,3.983399868E0,2.469663428E1
2.213407977E0,1.808790016E1,-1.315289974E1,3.090799809E0,2.257706685E1
2.223407977E0,1.700860023E1,-1.305949974E1,1.240999937E0,2.147982999E1
2.233407977E0,1.779310036E1,-1.225139999E1,-1.471199989E0,2.165307487E1
2.243407977E0,1.606799889E1,-1.056499958E1,-4.196899891E0,1.968282940E1
2.253412665E0,1.188669968E1,-9.857399940E0,-4.059599876E0,1.596691310E1
2.263407977E0,7.457099915E0,-1.102190018E1,-2.043499947E0,1.346352534E1
2.273407977E0,4.065899849E0,-1.302369976E1,6.270999908E-1,1.365802150E1
2.283407977E0,1.818300009E0,-1.435809994E1,3.885499954E0,1.498527139E1
2.293407977E0,3.655000031E-1,-1.518409920E1,6.984299660E0,1.671738318E1
2.303417352E0,1.049799919E0,-1.563659954E1,9.186900139E0,1.816602486E1
2.313407977E0,2.345799923E0,-1.506029987E1,1.156009960E1,1.912985396E1
2.323407977E0,3.922799826E0,-1.458439922E1,1.326830006E1,2.010325460E1
2.333407977E0,7.787600040E0,-1.333579922E1,1.466549969E1,2.129711568E1
2.343407977E0,1.248829937E1,-1.080739975E1,1.567980003E1,2.277309025E1
2.353414227E0,1.400379944E1,-7.885999680E0,1.477600002E1,2.183175592E1
2.363407977E0,1.286719990E1,-5.961599827E0,1.185299969E1,1.848239993E1
2.373407977E0,1.111059952E1,-5.312900066E0,9.220999718E0,1.538503053E1
2.383407977E0,9.664199829E0,-4.982199669E0,7.151399612E0,1.301389981E1
2.393407977E0,9.047800064E0,-4.495599747E0,5.534899712E0,1.151990529E1
2.403417352E0,9.672499657E0,-3.471699953E0,4.487199783E0,1.121360388E1
2.413407977E0,1.011940002E1,-1.997399926E0,4.547399998E0,1.127256448E1
2.423407977E0,9.865499496E0,-6.473000050E-1,5.690299988E0,1.140730431E1
2.433407977E0,1.004930019E1,5.644999743E-1,7.328999996E0,1.245075642E1
2.443407977E0,1.244019985E1,1.726999998E0,8.267999649E0,1.503665254E1
2.453409540E0,1.551059914E1,3.618399858E0,8.925099373E0,1.825729722E1
2.463407977E0,1.702939987E1,6.127899647E0,8.754799843E0,2.010467941E1
2.473407977E0,1.701319885E1,8.420700073E0,7.857699871E0,2.054508633E1
2.483407977E0,1.595049953E1,9.320699692E0,7.394499779E0,1.989905790E1
2.493407977E0,1.463019943E1,8.900799751E0,7.659399986E0,1.875988752E1
2.503411102E0,1.293439960E1,7.909999847E0,8.409899712E0,1.733762394E1
2.513407977E0,1.124669933E1,6.561500072E0,9.186699867E0,1.593540033E1
2.523407977E0,9.560999870E0,5.421499729E0,1.006820011E1,1.490550339E1
2.533407977E0,8.100500107E0,3.881500006E0,1.110009956E1,1.427922808E1
2.543407977E0,6.814899921E0,2.252199888E0,1.198859978E1,1.397289483E1
2.553415790E0,6.115699768E0,1.674199939E0,1.247620010E1,1.399500976E1
2.563407977E0,6.899600029E0,2.570899963E0,1.202619934E1,1.410118710E1
2.573407977E0,1.090489960E1,3.928399801E0,1.052799988E1,1.565847827E1
2.583407977E0,1.639659882E1,4.719899654E0,8.349200249E0,1.899565872E1
2.593407977E0,2.112730026E1,3.211899996E0,5.675699711E0,2.211091778E1
2.603412665E0,2.497049904E1,2.690999806E-1,3.301699877E0,2.518927270E1
2.613407977E0,2.843579865E1,-3.693799973E0,3.938299894E0,2.894389416E1
2.623407977E0,3.312630081E1,-6.189300060E0,7.719099998E0,3.457229737E1
2.633407977E0,3.811709976E1,-7.118099689E0,1.325699997E1,4.097961305E1
2.643407977E0,4.226189804E1,-7.633899689E0,1.798999977E1,4.656162091E1
2.653409540E0,4.553139877E1,-1.092319965E1,2.060009956E1,5.115455666E1
2.663407977E0,4.574440002E1,-1.827999878E1,2.033869934E1,5.329513280E1
2.673407977E0,4.231179810E1,-2.701199913E1,1.770870018E1,5.323095356E1
2.683407977E0,3.672719955E1,-3.477600098E1,1.356509972E1,5.236668179E1
2.693407977E0,3.048909950E1,-3.831110001E1,8.499499321E0,4.969473876E1
2.703411102E0,2.378919983E1,-3.811969757E1,2.680099964E0,4.501355693E1
2.713407977E0,1.766219902E1,-3.462289810E1,-6.053999662E-1,3.887241768E1
2.723407977E0,1.249660015E1,-2.954249954E1,-6.793000102E-1,3.208404188E1
2.733407977E0,8.593500137E0,-2.450919914E1,6.595999599E-1,2.598045726E1
2.743407977E0,6.098299980E0,-2.074259949E1,2.449899912E0,2.175883052E1
2.753407977E0,4.266299725E0,-1.879949951E1,3.893999815E0,1.966686884E1
2.763407977E0,1.840399981E0,-1.782880020E1,4.058199883E0,1.837721891E1
2.773407977E0,-9.756999612E-1,-1.830539894E1,3.168799877E0,1.860325008E1
2.783407977E0,-2.403100014E0,-1.957999992E1,7.538999915E-1,1.974131839E1
2.793407977E0,-3.176800013E0,-2.043560028E1,-1.648099899E0,2.074661540E1
2.803407977E0,-3.892699957E0,-2.014389992E1,-3.102699995E0,2.074985697E1
2.813407977E0,-4.412499905E0,-1.931859970E1,-4.113500118E0,2.023856055E1
2.823407977E0,-4.775300026E0,-1.774499893E1,-4.500400066E0,1.891935724E1
2.833407977E0,-5.041899681E0,-1.621559906E1,-4.202199936E0,1.749356709E1
2.843407977E0,-5.100800037E0,-1.481499958E1,-3.320400000E0,1.601647370E1
2.853407977E0,-5.099099636E0,-1.394969940E1,-2.654199839E0,1.508773367E1
2.863407977E0,-5.202799797E0,-1.384209919E1,-2.381599903E0,1.497814587E1
2.873409540E0,-5.372200012E0,-1.400479984E1,-2.427000046E0,1.519490970E1
2.883407977E0,-5.667900085E0,-1.413169956E1,-2.550099850E0,1.543803851E1
2.893407977E0,-5.886199951E0,-1.420829964E1,-2.911399841E0,1.565245596E1
2.903407977E0,-5.892099857E0,-1.413029957E1,-3.320199966E0,1.566543758E1
2.913407977E0,-5.904599667E0,-1.387339973E1,-3.506699800E0,1.548006657E1
2.923407977E0,-6.101399899E0,-1.373889923E1,-3.655999899E0,1.547096532E1
2.933407977E0,-6.581299782E0,-1.388029957E1,-3.729099989E0,1.580766933E1
2.943423602E0,-7.011499882E0,-1.379959965E1,-3.898899794E0,1.596218972E1
2.953407977E0,-7.483199596E0,-1.355690002E1,-4.023699760E0,1.599931168E1
2.963407977E0,-7.587800026E0,-1.289059925E1,-4.248899937E0,1.554977199E1
2.973407977E0,-7.200299740E0,-1.199450016E1,-4.220999718E0,1.461263799E1
2.983407977E0,-6.763199806E0,-1.109669971E1,-3.797499895E0,1.353878213E1
2.993414227E0,-7.067899704E0,-1.002849960E1,-2.748699903E0,1.257304107E1
3.003407977E0,-8.395699501E0,-9.403999329E0,-6.667999625E-1,1.262408791E1
3.013407977E0,-1.029279995E1,-8.687999725E0,2.278699875E0,1.366072996E1
3.023407977E0,-1.332240009E1,-8.102799416E0,5.516599655E0,1.654008991E1
3.033407977E0,-1.556139946E1,-8.001299858E0,8.096699715E0,1.928041750E1
3.043420477E0,-1.575849915E1,-8.665499687E0,9.179200172E0,2.019105980E1
3.053407977E0,-1.344979954E1,-9.196299553E0,7.926799774E0,1.811913871E1
3.063407977E0,-9.126699448E0,-9.451999664E0,2.209399939E0,1.332360269E1
3.073407977E0,-4.991499901E0,-8.310099602E0,-8.429499626E0,1.284637266E1
3.083407977E0,-2.108500004E0,-7.631199837E0,-1.887150002E1,2.046495776E1
3.093418915E0,-4.786999822E-1,-7.192199707E0,-2.458729935E1,2.562210334E1
3.103407977E0,2.829999924E0,-6.174299717E0,-2.596349907E1,2.683717870E1
3.113407977E0,9.519800186E0,-5.829099655E0,-2.070520020E1,2.352254904E1
3.123407977E0,1.539029980E1,-5.383599758E0,-1.031349945E1,1.929281589E1
3.133407977E0,1.973329926E1,-4.740900040E0,3.109999895E-1,2.029719078E1
3.143412665E0,2.258589935E1,-4.811199665E0,7.991999626E0,2.443650036E1
3.153407977E0,2.430769920E1,-6.022500038E0,9.052299500E0,2.662853495E1
3.163407977E0,2.428059959E1,-8.965600014E0,3.819999993E-1,2.588581512E1
3.173407977E0,2.119109917E1,-1.241129971E1,-1.042459965E1,2.667911772E1
3.183407977E0,1.484929943E1,-1.455480003E1,-1.612030029E1,2.630984567E1
3.193420477E0,9.481800079E0,-1.555340004E1,-1.772539902E1,2.541658033E1
3.203407977E0,6.195199966E0,-1.694770050E1,-1.773760033E1,2.530271764E1
3.213407977E0,4.682300091E0,-1.950049973E1,-1.424529934E1,2.459922716E1
3.223407977E0,3.412199974E0,-2.219849968E1,-7.485699654E0,2.367387159E1
3.233407977E0,2.102799892E0,-2.457950020E1,-1.156499982E0,2.469637807E1
3.243412665E0,3.786000013E-1,-2.697569847E1,3.360299826E0,2.718682146E1
3.253407977E0,-1.781599998E0,-2.855830002E1,6.431200027E0,2.932764792E1
3.263407977E0,-3.762899876E0,-2.892869949E1,8.743199348E0,3.045443489E1
3.273407977E0,-4.749399662E0,-2.812739944E1,1.046500015E1,3.038459519E1
3.283407977E0,-4.568200111E0,-2.695649910E1,1.029650021E1,2.921539342E1
3.293417352E0,-3.317999840E0,-2.633519936E1,8.676199913E0,2.792540587E1
3.303407977E0,-2.336699963E0,-2.724440002E1,7.392699718E0,2.832612767E1
3.313407977E0,-2.527499914E0,-2.818589973E1,5.697199821E0,2.886678516E1
3.323407977E0,-2.199300051E0,-2.774799919E1,4.828899860E0,2.825078147E1
3.333407977E0,-1.389199972E0,-2.655929947E1,6.420799732E0,2.735969543E1
3.343412665E0,-1.202799916E0,-2.450049973E1,8.755299568E0,2.604566154E1
3.353407977E0,-4.997999966E-1,-2.252359962E1,9.370599747E0,2.440021475E1
3.363407977E0,-8.878999949E-1,-2.080469894E1,7.857999802E0,2.225695454E1
3.373407977E0,-1.221899986E0,-1.968610001E1,5.014100075E0,2.035133344E1
3.383407977E0,9.828999639E-1,-1.960019875E1,-4.740999937E-1,1.963055409E1
3.393414227E0,2.273499966E0,-2.155780029E1,-4.679299831E0,2.217664092E1
3.403407977E0,2.275699854E0,-2.593260002E1,-5.174799919E0,2.654161088E1
3.413407977E0,2.566400051E0,-2.853069878E1,-6.496999860E-1,2.865325971E1
3.423407977E0,1.606999993E0,-2.729969978E1,6.270299911E0,2.805659848E1
3.433407977E0,-3.910000026E-1,-2.315530014E1,1.442029953E1,2.728123612E1
3.443412665E0,-9.285999537E-1,-1.776210022E1,2.244449997E1,2.863756416E1
3.453407977E0,-2.366499901E0,-1.480949974E1,2.677059937E1,3.068528303E1
3.463407977E0,-5.510099888E0,-1.413429928E1,2.726019859E1,3.119708391E1
3.473407977E0,-7.927899837E0,-1.509519958E1,2.561689949E1,3.077242574E1
3.483407977E0,-6.789999962E0,-1.539239979E1,2.316029930E1,2.862567963E1
3.493418915E0,-5.578599930E0,-1.363599968E1,2.011829948E1,2.493606301E1
3.503407977E0,-2.690199852E0,-1.126629925E1,1.497299957E1,1.893032990E1
3.513407977E0,3.104399920E0,-9.469900131E0,7.143199921E0,1.226138705E1
3.523407977E0,9.256400108E0,-6.864699841E0,-3.306999803E-1,1.152885117E1
3.533407977E0,1.370370007E1,-3.815799952E0,-4.953700066E0,1.506289710E1
3.543407977E0,1.478399944E1,-3.366999924E-1,-8.354100227E0,1.698443396E1
3.553407977E0,1.305999947E1,3.490599871E0,-9.583499908E0,1.657079793E1
3.563407977E0,1.062889957E1,7.559499741E0,-9.127699852E0,1.591962459E1
3.573407977E0,7.482999802E0,1.041160011E1,-6.021499634E0,1.416528012E1
3.583407977E0,5.513599873E0,1.244239998E1,-5.133999586E-1,1.361898235E1
3.593407977E0,4.318599701E0,1.304780006E1,4.114799976E0,1.434667100E1
3.603407977E0,6.541499615E0,1.324769974E1,6.868999958E0,1.629343199E1
3.613407977E0,1.682359886E1,1.722939873E1,1.332999915E-1,2.408118411E1
3.623407977E0,2.887159920E1,2.413939857E1,-1.036819935E1,3.903561658E1
3.633407977E0,3.552880096E1,2.841139984E1,-1.337249947E1,4.741652751E1
3.643407977E0,3.574259949E1,2.878559875E1,-1.179259968E1,4.738364191E1
3.653407977E0,3.749060059E1,2.725070000E1,-5.481499672E0,4.667111121E1
3.663407977E0,3.653099823E1,2.623779869E1,2.355599880E0,4.503870294E1
3.673407977E0,2.848040009E1,2.542709923E1,8.752999306E0,3.916995738E1
3.683417352E0,2.238329887E1,2.507589912E1,1.118069935E1,3.542345019E1
3.693407977E0,2.240969849E1,2.455889893E1,8.387599945E0,3.428827694E1
3.703407977E0,2.440209961E1,2.268499947E1,3.465799809E0,3.349751385E1
3.713407977E0,2.420170021E1,1.821539879E1,2.364999950E-1,3.029156613E1
3.723407977E0,2.008589935E1,1.247419930E1,-7.174999714E-1,2.365510108E1
3.733415790E0,1.393069935E1,7.606499672E0,1.140000001E-1,1.587249878E1
3.743407977E0,7.948799610E0,3.591099977E0,1.525999904E0,8.854834273E0
3.753407977E0,4.319799900E0,6.100999713E-1,2.395699978E0,4.977175056E0
3.763407977E0,2.545599937E0,-2.056900024E0,2.410199881E0,4.064477853E0
3.773407977E0,1.160899997E0,-4.906499863E0,2.076299906E0,5.452747106E0
3.783418915E0,-3.867999911E-1,-7.513199806E0,1.575599909E0,7.686371097E0
3.793407977E0,-1.914299965E0,-9.735300064E0,9.327999949E-1,9.965476784E0
3.803407977E0,-3.039899826E0,-1.138709927E1,3.994999826E-1,1.179265114E1
3.813407977E0,-4.142499924E0,-1.251729965E1,2.996000051E-1,1.318836064E1
3.823407977E0,-5.343100071E0,-1.298939991E1,1.166999936E-1,1.404588364E1
3.833420477E0,-6.304299831E0,-1.340609932E1,3.215000033E-1,1.481793027E1
3.843407977E0,-7.126599789E0,-1.368569946E1,2.947999835E-1,1.543287729E1
3.853407977E0,-7.605899811E0,-1.381429958E1,9.619999677E-2,1.577002978E1
3.863407977E0,-8.212699890E0,-1.372359943E1,-2.358999997E-1,1.599503891E1
3.873407977E0,-8.878899574E0,-1.370009995E1,-4.482999742E-1,1.633182687E1
3.883422040E0,-9.773900032E0,-1.357689953E1,-7.332999706E-1,1.674512023E1
3.893407977E0,-1.066519928E1,-1.318529987E1,-1.277400017E0,1.700677392E1
3.903407977E0,-1.079979992E1,-1.293569946E1,-1.983699918E0,1.696770651E1
3.913407977E0,-9.205200195E0,-1.247410011E1,-2.965999842E0,1.578404382E1
3.923407977E0,-6.542899609E0,-1.144299984E1,-4.035699844E0,1.378545080E1
3.933409540E0,-5.783699989E0,-1.032829952E1,-4.532399654E0,1.267547250E1
3.943407977E0,-6.783199787E0,-1.003870010E1,-4.711100101E0,1.299929857E1
3.953407977E0,-7.723699570E0,-1.054949951E1,-4.570300102E0,1.385045552E1
3.963407977E0,-7.689099789E0,-1.066639996E1,-4.182799816E0,1.379819401E1
3.973407977E0,-5.652699947E0,-1.051749992E1,-4.008599758E0,1.259522502E1
3.983411102E0,-1.423099995E0,-1.050169945E1,-3.281100035E0,1.109398586E1
3.993407977E0,3.977099895E0,-9.699199677E0,-2.329699993E0,1.073868241E1
4.003407977E0,7.477499962E0,-8.559199333E0,-8.343999982E-1,1.139601344E1
4.013407977E0,9.362400055E0,-8.381999969E0,1.322000027E-1,1.256701775E1
4.023407977E0,1.415730000E1,-8.262899399E0,5.639999732E-2,1.639231011E1
4.033417352E0,2.321259880E1,-6.422699928E0,-9.369999915E-2,2.408494545E1
4.043407977E0,2.833139992E1,-3.356199980E0,1.148800015E0,2.855261881E1
4.053407977E0,2.748609924E1,-2.398499966E0,1.964199901E0,2.766037843E1
4.063407977E0,2.265139961E1,-5.443599701E0,2.079499960E0,2.338895043E1
4.073407977E0,1.613669968E1,-1.178549957E1,1.472399950E0,2.003644275E1
4.083420477E0,9.590000153E0,-1.880729866E1,5.601999760E-1,2.111862708E1
4.093407977E0,3.377099991E0,-2.497200012E1,-2.579999901E-2,2.519933055E1
4.103407977E0,-1.948799968E0,-2.886949921E1,-3.773999810E-1,2.893766121E1
4.113407977E0,-6.217199802E0,-3.023839951E1,-4.533999860E-1,3.087426031E1
4.123407977E0,-8.130800247E0,-3.007179832E1,-8.888999820E-1,3.116429223E1
4.133420477E0,-8.993999481E0,-3.014480019E1,-1.999000013E-1,3.145855949E1
4.143407977E0,-8.167599678E0,-2.988509941E1,1.486999989E0,3.101676998E1
4.153407977E0,-3.701099873E0,-2.906009865E1,3.283900023E0,2.947832209E1
4.163407977E0,3.506399870E0,-2.784280014E1,5.124000072E0,2.852668464E1
4.173407977E0,1.002129936E1,-2.702979851E1,8.231599808E0,2.997992134E1
4.183412665E0,1.308579922E1,-2.499930000E1,1.263019943E1,3.091480357E1
4.193407977E0,1.273759937E1,-2.220849991E1,1.644050026E1,3.042620507E1
4.203407977E0,9.343699455E0,-1.885070038E1,1.969079971E1,2.881633595E1
4.213407977E0,4.350999832E0,-1.543929958E1,2.314879990E1,2.816327587E1
4.223407977E0,-1.799499989E0,-1.331019974E1,2.495429993E1,2.833931372E1
4.233412665E0,-4.996500015E0,-1.287160015E1,2.242499924E1,2.633483802E1
4.243407977E0,-4.474100113E0,-1.207399940E1,1.851809883E1,2.255480033E1
4.253407977E0,-3.149499893E0,-1.031859970E1,1.502769947E1,1.849931352E1
4.263407977E0,-1.771899939E0,-8.272699356E0,1.257660007E1,1.515744218E1
4.273407977E0,-2.239999920E-1,-6.358099937E0,1.082999992E1,1.256043427E1
4.283418915E0,8.872999549E-1,-4.932399750E0,9.172299385E0,1.045212632E1
4.293407977E0,5.146999955E-1,-3.890100002E0,7.567599773E0,8.524456607E0
4.303407977E0,-1.543799996E0,-3.495999813E0,5.957399845E0,7.077848970E0
4.313407977E0,-4.698599815E0,-3.860099792E0,4.267600060E0,7.428971726E0
4.323407977E0,-7.535499573E0,-4.023900032E0,2.020299911E0,8.778219467E0
4.333415790E0,-8.781399727E0,-3.292699814E0,5.012999773E-1,9.391813185E0
4.343407977E0,-8.598999977E0,-1.533399940E0,-1.032999977E-1,8.735261122E0
4.353407977E0,-6.791299820E0,7.107999921E-1,5.289999768E-2,6.828600756E0
4.363407977E0,-2.997099876E0,3.010799885E0,1.112299919E0,4.391438799E0
4.373407977E0,2.162499905E0,5.326299667E0,1.426499963E0,5.922902678E0
4.383407977E0,7.111199856E0,8.142899513E0,1.718400002E0,1.094663759E1
4.393407977E0,9.493700027E0,1.039779949E1,2.729699850E0,1.434210012E1
4.403407977E0,9.867400169E0,1.233559990E1,4.224999905E0,1.635185724E1
4.413407977E0,9.308099747E0,1.349219990E1,5.257100105E0,1.721386884E1
4.423407977E0,1.032749939E1,1.363219929E1,6.011899948E0,1.812834913E1
4.433407977E0,1.230970001E1,1.243970013E1,6.678999901E0,1.873189508E1
4.443407977E0,1.304609966E1,1.041189957E1,6.492499828E0,1.790979964E1
4.453407977E0,1.250529957E1,8.586400032E0,5.968599796E0,1.630131793E1
4.463407977E0,1.320739937E1,6.407299995E0,4.686699867E0,1.540954402E1
4.473407977E0,1.979179955E1,3.899899960E0,3.123299837E0,2.041273012E1
4.483407977E0,3.083629990E1,3.263299942E0,3.726099968E0,3.123155998E1
4.493407977E0,3.745229721E1,3.802199841E0,4.806699753E0,3.795043679E1
4.503407977E0,3.652000046E1,3.297399998E0,4.462999821E0,3.693916144E1
4.513407977E0,3.005389977E1,1.219699979E0,3.107499838E0,3.023873533E1
4.523417352E0,2.155690002E1,-1.541199923E0,1.359899998E0,2.165466610E1
4.533407977E0,1.446269989E1,-3.716300011E0,-6.473999619E-1,1.494656150E1
4.543407977E0,9.081199646E0,-4.502699852E0,-2.360499859E0,1.040742295E1
4.553407977E0,5.470399857E0,-4.058799744E0,-3.811899900E0,7.805748574E0
4.563407977E0,2.926699877E0,-3.029299974E0,-5.312200069E0,6.779505888E0
4.573417352E0,1.491899967E0,-1.744899988E0,-6.584300041E0,6.973051593E0
4.583407977E0,5.776999593E-1,-1.595999897E-1,-6.832399845E0,6.858636675E0
4.593407977E0,-6.009999663E-2,1.730199933E0,-6.204499722E0,6.441507635E0
4.603407977E0,-7.346000075E-1,3.711699963E0,-5.055500031E0,6.314620681E0
4.613407977E0,-1.653199911E0,5.640799999E0,-3.620899916E0,6.903811323E0
4.623412665E0,-2.820600033E0,7.207399845E0,-1.848299980E0,7.957299158E0
4.633407977E0,-4.174499989E0,8.332099915E0,-2.175000012E-1,9.321890655E0
4.643407977E0,-5.190099716E0,8.815599442E0,6.445999742E-1,1.025024086E1
4.653407977E0,-5.595499992E0,8.619799614E0,6.310999990E-1,1.029606006E1
4.663407977E0,-5.461299896E0,7.990099907E0,-2.429999970E-2,9.678227295E0
4.673414227E0,-5.054699898E0,7.170699596E0,-9.871999621E-1,8.828560898E0
4.683407977E0,-4.928400040E0,6.199299812E0,-2.024299860E0,8.174242169E0
4.693407977E0,-5.054599762E0,5.300899982E0,-3.249699831E0,8.013056119E0
4.703407977E0,-5.422499657E0,4.530200005E0,-4.520699978E0,8.388262210E0
4.713407977E0,-5.991799831E0,4.002500057E0,-5.602499962E0,9.127413530E0
4.723415790E0,-6.631599903E0,3.561399937E0,-6.361599922E0,9.855538562E0
4.733407977E0,-7.220299721E0,3.031999826E0,-6.903199673E0,1.043934465E1
4.743407977E0,-7.675599575E0,2.678999901E0,-6.863899708E0,1.063978329E1
4.753407977E0,-8.132800102E0,2.617799997E0,-5.995499611E0,1.043749634E1
4.763407977E0,-8.463899612E0,2.811399937E0,-4.620299816E0,1.004433854E1
4.773423602E0,-8.578599930E0,2.896699905E0,-3.275300026E0,9.628646704E0
4.783407977E0,-8.611999512E0,2.822899818E0,-2.169299841E0,9.318860487E0
4.793407977E0,-8.640199661E0,2.628000021E0,-1.228099942E0,9.114146354E0
4.803407977E0,-8.769499779E0,2.634999990E0,-4.921999872E-1,9.170038830E0
4.813407977E0,-8.813499451E0,2.614099979E0,-9.629999846E-2,9.193506674E0
4.823414227E0,-8.785399437E0,2.542799950E0,8.199999481E-2,9.146354402E0
4.833407977E0,-8.857799530E0,2.610199928E0,1.498000026E-1,9.235593983E0
4.843407977E0,-8.603199959E0,2.856499910E0,1.639000028E-1,9.066504535E0
4.853407977E0,-7.846699715E0,3.163699865E0,1.533000022E-1,8.461867060E0
4.863407977E0,-6.992599964E0,3.302699804E0,-9.019999951E-2,7.733848738E0
4.873418915E0,-5.984299660E0,3.159199953E0,-4.857999980E-1,6.784422481E0
4.883407977E0,-4.350899696E0,2.300799847E0,-6.710999608E-1,4.967331604E0
4.893407977E0,-3.378299952E0,1.367999911E-1,-2.072999924E-1,3.387417613E0
4.903407977E0,-1.966799974E0,-2.708600044E0,1.294099927E0,3.588803556E0
4.913407977E0,2.843799829E0,-6.108200073E0,3.144599915E0,7.435443109E0
4.923415790E0,1.158389950E1,-9.325799942E0,6.397599697E0,1.618908750E1
4.933407977E0,2.296689987E1,-1.002299976E1,1.037160015E1,2.712027108E1
4.943407977E0,3.126329994E1,-8.128000259E0,1.109910011E1,3.415623420E1
4.953407977E0,3.487519836E1,-6.057799816E0,7.111299992E0,3.610466711E1
4.963407977E0,3.241859818E1,-6.421499729E0,7.552999854E-1,3.305709673E1
4.973415790E0,2.631879997E1,-9.396699905E0,-3.761399984E0,2.819796679E1
4.983407977E0,1.959580040E1,-1.215989971E1,-6.230599880E0,2.388888715E1
4.993407977E0,1.380389977E1,-1.225459957E1,-7.861999989E0,2.006324757E1
5.003407977E0,1.060339928E1,-1.021070004E1,-6.286099911E0,1.600642132E1
5.013407977E0,1.025819969E1,-7.983500004E0,-9.455999732E-1,1.303307686E1
5.023418915E0,1.075920010E1,-5.727699757E0,5.366600037E0,1.331793254E1
5.033407977E0,1.007819939E1,-3.015300035E0,9.295599937E0,1.403817351E1
5.043407977E0,7.973099709E0,-4.070999920E-1,9.914299965E0,1.272907668E1
5.053407977E0,5.223599911E0,1.562299967E0,8.285799980E0,9.918732708E0
5.063407977E0,2.671499968E0,2.844099998E0,5.686500072E0,6.896528109E0
5.073422040E0,3.069999814E-1,3.970999956E0,2.482499838E0,4.693175373E0
5.083407977E0,-1.771799922E0,4.934799671E0,-1.263999939E-1,5.244759262E0
5.093407977E0,-3.642299891E0,5.671499729E0,-2.295300007E0,7.120439579E0
5.103407977E0,-5.283400059E0,6.273200035E0,-4.011799812E0,9.130273413E0
5.113407977E0,-7.134999752E0,7.086099625E0,-5.500799656E0,1.146210392E1
5.123412665E0,-8.568099976E0,8.288999557E0,-7.266499996E0,1.396144237E1
5.133407977E0,-9.338799477E0,9.349599838E0,-8.782199860E0,1.586679637E1
5.143407977E0,-9.875000000E0,9.421400070E0,-9.337900162E0,1.653707301E1
5.153407977E0,-1.064359951E1,8.244400024E0,-9.177599907E0,1.629370070E1
5.163407977E0,-1.205709934E1,6.105399609E0,-8.800299644E0,1.612745556E1
5.173420477E0,-1.361979961E1,3.768800020E0,-7.995299816E0,1.623661339E1
5.183407977E0,-1.504920006E1,1.871999979E0,-6.824399948E0,1.662995012E1
5.193407977E0,-1.635630035E1,3.713999987E-1,-5.456899643E0,1.724657221E1
5.203407977E0,-1.731809998E1,-5.892999768E-1,-3.813899994E0,1.774287729E1
5.213407977E0,-1.744999886E1,-9.379999638E-1,-2.687099934E0,1.768057720E1
5.223415790E0,-1.728179932E1,-8.236999512E-1,-1.616099954E0,1.737673296E1
5.233407977E0,-1.612610054E1,-7.080000043E-1,-1.319599986E0,1.619548476E1
5.243407977E0,-1.454249954E1,-4.632000029E-1,-1.341599941E0,1.461159600E1
5.253407977E0,-1.268959999E1,-1.193000004E-1,-1.327899933E0,1.275944743E1
5.263407977E0,-1.060769939E1,4.589999914E-1,-1.311399937E0,1.069830534E1
5.273409540E0,-8.308899879E0,1.067499995E0,-1.266799927E0,8.472435040E0
5.283407977E0,-6.531799793E0,1.787099957E0,-1.169099927E0,6.872039685E0
5.293407977E0,-5.260799885E0,2.286399841E0,-1.262399912E0,5.873439640E0
5.303407977E0,-4.941599846E0,2.542399883E0,-1.046199918E0,5.654886424E0
5.313407977E0,-5.308899879E0,3.007599831E0,-5.044000149E-1,6.122458170E0
5.323407977E0,-6.170799732E0,3.435799837E0,1.991999894E-1,7.065633057E0
5.333407977E0,-7.042399883E0,3.775799990E0,1.074499965E0,8.062667788E0
5.343407977E0,-7.509399891E0,3.529699802E0,1.430899978E0,8.420055948E0
5.353407977E0,-6.653800011E0,2.928299904E0,9.839999676E-1,7.335956028E0
5.363407977E0,-3.646899939E0,2.989799976E0,-1.103999987E-1,4.717093514E0
5.373407977E0,-1.776999980E-1,3.037099838E0,-7.653999925E-1,3.137098957E0
5.383407977E0,3.049399853E0,2.324599981E0,-8.774999976E-1,3.933523965E0
5.393407977E0,7.194999695E0,3.493999839E-1,-6.938999891E-1,7.236822379E0
5.403407977E0,1.187179947E1,-3.238299847E0,7.809000015E-1,1.233028845E1
5.413418915E0,1.586979961E1,-8.245900154E0,3.770200014E0,1.827730334E1
5.423407977E0,1.895619965E1,-1.339979935E1,6.930799961E0,2.422659934E1
5.433407977E0,2.188789940E1,-1.764819908E1,8.378700256E0,2.933839956E1
5.443407977E0,2.659210014E1,-2.061619949E1,6.746699810E0,3.431742167E1
5.453407977E0,3.372620010E1,-2.459989929E1,4.273299694E0,4.196275383E1
5.463418915E0,4.071889877E1,-2.669349861E1,2.720199823E0,4.876444476E1
5.473407977E0,4.396120071E1,-2.254649925E1,1.694999933E0,4.943485432E1
5.483407977E0,4.434389877E1,-1.561089993E1,1.121699929E0,4.702488454E1
5.493407977E0,4.293519974E1,-1.133069992E1,1.397499919E0,4.442712171E1
5.503407977E0,3.827890015E1,-9.656899452E0,1.793599963E0,3.951894361E1
5.513418915E0,3.214559937E1,-9.203700066E0,1.460999966E0,3.346912270E1
5.523407977E0,2.527750015E1,-8.493000031E0,1.085799932E0,2.668823758E1
5.533407977E0,1.856110001E1,-7.247999668E0,8.439999819E-1,1.994392811E1
5.543407977E0,1.202299976E1,-5.770299911E0,3.788000047E-1,1.334137826E1
5.553407977E0,5.784199715E0,-4.120999813E0,4.799999762E-3,7.102086231E0
5.563414227E0,5.536999702E-1,-2.625399828E0,-4.291999936E-1,2.717263430E0
5.573418915E0,-3.998699903E0,-1.342399955E0,-1.688300014E0,4.543346288E0
5.583407977E0,-7.245899677E0,-5.235999823E-1,-3.723299980E0,8.163343789E0
5.593407977E0,-9.196999550E0,7.989999652E-2,-5.422899723E0,1.067703265E1
5.603407977E0,-1.029290009E1,4.653999805E-1,-6.104599953E0,1.197608158E1
5.613411102E0,-1.055259991E1,3.624999821E-1,-6.406899929E0,1.235059261E1
5.623407977E0,-1.056849957E1,-1.147999987E-1,-6.793200016E0,1.256399334E1
5.633407977E0,-1.030200005E1,-4.996999800E-1,-7.000699997E0,1.246558083E1
5.643407977E0,-9.938499451E0,-8.556999564E-1,-6.663300037E0,1.199606440E1
5.653407977E0,-9.868599892E0,-1.504199982E0,-6.093800068E0,1.169556671E1
5.663414227E0,-9.815299988E0,-1.725799918E0,-6.154699802E0,1.171319038E1
5.673407977E0,-9.341199875E0,-1.177299976E0,-6.783199787E0,1.160413072E1
5.683407977E0,-7.806299686E0,-8.949999511E-2,-7.071300030E0,1.053326204E1
5.693407977E0,-5.510799885E0,7.953000069E-1,-6.426899910E0,8.503320523E0
5.703407977E0,-2.855899811E0,1.293999910E0,-5.481899738E0,6.315205795E0
5.713415790E0,-6.168000102E-1,1.138700008E0,-4.703899860E0,4.878909085E0
5.723407977E0,6.608999968E-1,2.023999989E-1,-4.299999714E0,4.355198285E0
5.733407977E0,1.030699968E0,-1.341099977E0,-4.367000103E0,4.683116641E0
5.743407977E0,9.867999554E-1,-3.315799952E0,-4.772200108E0,5.894251211E0
5.753407977E0,5.530999899E-1,-5.918399811E0,-5.295899868E0,7.961151382E0
5.763414227E0,9.300000034E-3,-9.012899399E0,-5.898699760E0,1.077158767E1
5.773407977E0,-7.285000086E-1,-1.217299938E1,-6.700500011E0,1.391435685E1
5.783407977E0,-1.058200002E0,-1.522459984E1,-7.865999699E0,1.716922184E1
5.793407977E0,-1.708899975E0,-1.802070045E1,-8.802299500E0,2.012825031E1
5.803407977E0,-2.894099951E0,-2.085439873E1,-9.979399681E0,2.329957465E1
5.813412665E0,-3.982100010E0,-2.395569992E1,-1.056040001E1,2.648121462E1
5.823407977E0,-5.828099728E0,-2.591720009E1,-9.560099602E0,2.823231325E1
5.833407977E0,-8.309999466E0,-2.681779861E1,-7.022599697E0,2.894075535E1
5.843407977E0,-1.249319935E1,-2.641239929E1,-2.314300060E0,2.930956928E1
5.853407977E0,-1.596899986E1,-2.447329903E1,2.893800020E0,2.936537758E1
5.863417352E0,-1.676580048E1,-2.115579987E1,5.929199696E0,2.763720939E1
5.873407977E0,-1.489239979E1,-1.727569962E1,3.906699896E0,2.314077943E1
5.883407977E0,-1.149639988E1,-1.272889996E1,-1.537299991E0,1.722078382E1
5.893407977E0,-6.288300037E0,-6.329899788E0,-6.638099670E0,1.112091345E1
5.903407977E0,-2.172199965E0,2.836999893E-1,-5.932899952E0,6.324416195E0
5.913420477E0,8.646000028E-1,5.539799690E0,1.485499978E0,5.800312402E0
5.923407977E0,2.882599831E0,7.955799580E0,8.850099564E0,1.224452494E1
5.933407977E0,3.243299961E0,8.892600060E0,1.328279972E1,1.631042914E1
5.943407977E0,2.144199848E0,1.020109940E1,1.221539974E1,1.605851839E1
5.953407977E0,2.846599817E0,1.253969955E1,6.118899822E0,1.424036974E1
5.963417352E0,5.389999866E0,1.498009968E1,-4.210999906E-1,1.592585351E1
5.973407977E0,7.269599915E0,1.663730049E1,-4.368999958E0,1.867444808E1
5.983407977E0,8.164699554E0,1.716539955E1,-3.520999908E0,1.933159851E1
5.993407977E0,7.247299671E0,1.567089939E1,9.548999667E-1,1.729197138E1
6.003407977E0,4.878699780E0,1.243610001E1,3.883299828E0,1.391180479E1
6.013409540E0,2.249599934E0,8.579999924E0,4.210599899E0,9.818668447E0
6.023407977E0,3.730999827E-1,4.931799889E0,3.063299894E0,5.817702294E0
6.033407977E0,-5.582999587E-1,2.137899876E0,2.486899853E0,3.326707922E0
6.043407977E0,-9.519000053E-1,-7.699999958E-2,4.385999680E0,4.488767738E0
6.053407977E0,-7.390999794E-1,-1.605700016E0,8.020500183E0,8.212975375E0
6.063411102E0,3.766999841E-1,-1.982800007E0,1.018069935E1,1.037882643E1
6.073407977E0,1.790699959E0,-2.119899988E0,9.576700211E0,9.970645377E0
6.083407977E0,3.100600004E0,-2.336499929E0,6.462399960E0,7.538936632E0
6.093407977E0,3.510999918E0,-2.883100033E0,2.331099987E0,5.106213213E0
6.103407977E0,2.868700027E0,-3.733199835E0,-1.177999973E0,4.853236527E0
6.113407977E0,1.777399898E0,-4.954099655E0,-4.313999653E0,6.805354274E0
6.123407977E0,6.746000051E-1,-6.318099976E0,-6.534199715E0,9.114232737E0
6.133407977E0,-8.551999927E-1,-7.813699722E0,-8.049300194E0,1.125062238E1
6.143407977E0,-2.552500010E0,-9.412399292E0,-8.936200142E0,1.322740298E1
6.153407977E0,-3.657699823E0,-1.062799931E1,-9.158100128E0,1.449841147E1
6.163407977E0,-3.932499886E0,-1.145779991E1,-8.400599480E0,1.474163511E1
6.173407977E0,-3.546000004E0,-1.196029949E1,-7.053400040E0,1.433085245E1
6.183407977E0,-2.386699915E0,-1.249739933E1,-5.743199825E0,1.395942946E1
6.193407977E0,-1.110000014E0,-1.310519981E1,-4.980700016E0,1.406363164E1
6.203407977E0,1.649999917E-1,-1.348419952E1,-5.446399689E0,1.454352541E1
6.213407977E0,1.694099903E0,-1.383719921E1,-7.438799858E0,1.580106958E1
6.223407977E0,3.002300024E0,-1.378979969E1,-1.055449963E1,1.762299189E1
6.233407977E0,4.442199707E0,-1.350119972E1,-1.376359940E1,1.978515101E1
6.243407977E0,5.326399803E0,-1.329529953E1,-1.544339943E1,2.106262354E1
6.253407977E0,4.817699909E0,-1.317509937E1,-1.479949951E1,2.039163215E1
6.263407977E0,3.394099951E0,-1.298889923E1,-1.164750004E1,1.777345422E1
6.273407977E0,1.404099941E0,-1.265829945E1,-8.019100189E0,1.505024948E1
6.283407977E0,-1.082499981E0,-1.164120007E1,-4.702499866E0,1.260170029E1
6.293407977E0,-2.977499962E0,-9.534399986E0,-2.765300035E0,1.036422565E1
6.303418915E0,-3.807899952E0,-6.893199921E0,-1.404099941E0,7.999237703E0
6.313407977E0,-3.243000031E0,-3.849299908E0,-8.015999794E-1,5.096736358E0
6.323407977E0,-1.747699976E0,-8.471999764E-1,-2.812999785E-1,1.962481257E0
6.333407977E0,-1.383399963E0,1.743600011E0,8.633999825E-1,2.387340777E0
6.343407977E0,-1.814499974E0,4.164700031E0,3.247699976E0,5.584325531E0
6.353417352E0,-1.800999999E0,6.354399681E0,6.725899696E0,9.426543536E0
6.363407977E0,-2.199300051E0,8.753399849E0,1.051379967E1,1.385636724E1
6.373407977E0,-3.293900013E0,1.137419987E1,1.255179977E1,1.725600989E1
6.383407977E0,-2.537799835E0,1.321700001E1,1.104829979E1,1.741247959E1
6.393407977E0,-3.064999878E-1,1.513639927E1,7.239999771E0,1.678160069E1
6.403411102E0,2.416100025E0,1.813449860E1,3.596699953E0,1.864494112E1
6.413407977E0,4.103499889E0,2.121119881E1,2.609999850E-2,2.160449831E1
6.423407977E0,4.788599968E0,2.235159874E1,-2.102699995E0,2.295530447E1
6.433407977E0,4.892399788E0,2.087109947E1,-1.160499930E0,2.146823535E1
6.443407977E0,3.716199875E0,1.749519920E1,2.775399923E0,1.809958512E1
6.453417352E0,1.279099941E0,1.438079929E1,7.545199871E0,1.629028932E1
6.463407977E0,-1.134999990E0,1.169479942E1,1.039970016E1,1.569109053E1
6.473407977E0,-2.384999990E0,9.725999832E0,1.031659985E1,1.437760516E1
6.483407977E0,-2.521299839E0,8.466400146E0,8.175099373E0,1.203615944E1
6.493407977E0,-1.467999935E0,7.277899742E0,4.757999897E0,8.818243107E0
6.503412665E0,8.919999748E-2,5.698199749E0,1.476899981E0,5.887161504E0
6.513407977E0,1.600299954E0,4.107999802E0,-1.029500008E0,4.527305223E0
6.523407977E0,2.412499905E0,1.862100005E0,-1.613699913E0,3.448419874E0
6.533407977E0,2.080699921E0,-9.763000011E-1,-1.699999906E-3,2.298363927E0
6.543407977E0,1.216199994E0,-3.919799805E0,1.927199960E0,4.534101082E0
6.553418915E0,6.700000167E-2,-6.258199692E0,4.068799973E0,7.464896891E0
6.563407977E0,-6.850000024E-1,-7.530200005E0,5.604399681E0,9.411824100E0
6.573407977E0,-1.815999895E-1,-7.807199955E0,5.540999889E0,9.575386648E0
6.583407977E0,6.194999814E-1,-7.026999950E0,3.410699844E0,7.835520529E0
6.593407977E0,1.340899944E0,-5.929699898E0,-8.559999615E-2,6.080023100E0
6.603412665E0,1.550099969E0,-5.348799706E0,-3.622099876E0,6.643197703E0
6.613407977E0,1.308899999E0,-5.194900036E0,-6.734499931E0,8.605445655E0
6.623407977E0,7.092999816E-1,-5.210299969E0,-8.863100052E0,1.030557494E1
6.633407977E0,2.432999909E-1,-5.370899677E0,-9.657199860E0,1.105293026E1
6.643407977E0,9.209999442E-2,-5.583299637E0,-9.297699928E0,1.084568768E1
6.653418915E0,2.054999918E-1,-5.866600037E0,-8.756899834E0,1.054241533E1
6.663407977E0,3.637999892E-1,-6.446099758E0,-8.389900208E0,1.058654703E1
6.673407977E0,2.142999917E-1,-7.622900009E0,-8.808799744E0,1.165115797E1
6.683407977E0,-1.397999972E-1,-8.887100220E0,-9.826999664E0,1.325028365E1
6.693407977E0,-4.614999890E-1,-1.003929996E1,-1.059359932E1,1.460222149E1
6.703418915E0,-4.824999869E-1,-1.135199928E1,-1.091349983E1,1.575452864E1
6.713407977E0,-2.035999894E-1,-1.270869923E1,-1.153069973E1,1.716127983E1
6.723407977E0,-1.557999998E-1,-1.424979973E1,-1.310909939E1,1.936309770E1
6.733407977E0,-1.191999987E-1,-1.570109940E1,-1.502999973E1,2.173567627E1
6.743407977E0,-3.610000014E-1,-1.680500031E1,-1.617639923E1,2.332840004E1
6.753411102E0,-1.044700027E0,-1.824479866E1,-1.643099976E1,2.457522796E1
6.763407977E0,-2.477299929E0,-2.046369934E1,-1.559939957E1,2.585036310E1
6.773407977E0,-5.284899712E0,-2.233209991E1,-1.366069984E1,2.670706970E1
6.783407977E0,-7.810599804E0,-2.314669991E1,-1.181629944E1,2.713669321E1
6.793407977E0,-9.198999405E0,-2.403489876E1,-1.084669971E1,2.792756422E1
6.803415790E0,-1.010079956E1,-2.522739983E1,-1.101179981E1,2.932077060E1
6.813407977E0,-1.112699986E1,-2.623869896E1,-1.210629940E1,3.096517292E1
6.823407977E0,-1.100339985E1,-2.665799904E1,-1.364839935E1,3.190615185E1
6.833407977E0,-9.442999840E0,-2.605999947E1,-1.433949947E1,3.120761227E1
6.843407977E0,-5.570299625E0,-2.436739922E1,-1.479629993E1,2.904701145E1
6.853407977E0,-5.799999833E-2,-2.264079857E1,-1.493059921E1,2.712069167E1
6.863407977E0,6.481099606E0,-2.119839859E1,-1.418169975E1,2.631534463E1
6.873407977E0,1.499510002E1,-1.924989891E1,-1.001620007E1,2.637680603E1
6.883407977E0,2.309910011E1,-1.704699898E1,-9.950999618E-1,2.872557787E1
6.893407977E0,3.019789886E1,-1.482919979E1,1.092579937E1,3.537218334E1
6.903420477E0,3.547620010E1,-1.335699940E1,2.244169998E1,4.405224290E1
6.913407977E0,3.848899841E1,-1.153319931E1,3.087189865E1,5.067042344E1
6.923407977E0,4.121049881E1,-9.034500122E0,3.214339828E1,5.303890513E1
6.933407977E0,4.477140045E1,-6.867300034E0,2.474510002E1,5.161354554E1
6.943407977E0,4.642329788E1,-3.819299936E0,1.051679993E1,4.775262002E1
6.953407977E0,4.602249908E1,-1.159999967E-1,-9.260999560E-1,4.603196215E1
6.963407977E0,4.353559875E1,2.298699856E0,-4.412799835E0,4.381900481E1
6.973407977E0,3.828559875E1,2.875499964E0,-2.841199875E0,3.849841541E1
6.983407977E0,3.163959885E1,1.973299980E0,-2.144999951E-1,3.170180024E1
6.993407977E0,2.592420006E1,9.465000033E-1,1.784699917E0,2.600279148E1
7.003407977E0,2.004870033E1,1.300999999E0,2.760999918E0,2.027969691E1
7.013407977E0,1.468769932E1,1.978799939E0,3.188899994E0,1.515959246E1
7.023407977E0,9.990900040E0,3.023699999E0,4.369800091E0,1.131618302E1
7.033407977E0,6.486399651E0,4.573199749E0,6.388999939E0,1.018856499E1
7.043407977E0,3.892699957E0,6.721999645E0,8.392999649E0,1.143594488E1
7.053407977E0,1.759299994E0,8.520199776E0,9.042699814E0,1.254828118E1
7.063407977E0,5.079999939E-2,9.413799286E0,8.364099503E0,1.259286934E1
7.073407977E0,-1.503000021E0,9.672399521E0,6.920599937E0,1.198786991E1
7.083407977E0,-2.810400009E0,9.814399719E0,5.014299870E0,1.137382931E1
7.093411102E0,-3.544399977E0,9.836999893E0,2.983399868E0,1.087336254E1
7.103407977E0,-3.841699839E0,9.558300018E0,1.509099960E0,1.041139470E1
7.113407977E0,-4.114399910E0,8.970899582E0,3.565999866E-1,9.875853861E0
7.123407977E0,-4.236099720E0,8.123899460E0,-1.053999960E-1,9.162608386E0
7.133407977E0,-4.611399651E0,7.536399841E0,4.619999826E-1,8.847359679E0
7.143418915E0,-4.799399853E0,6.994799614E0,1.327199936E0,8.586205230E0
7.153409540E0,-4.385299683E0,6.649600029E0,1.922999978E0,8.194264016E0
7.163407977E0,-3.533900023E0,6.501699924E0,2.381000042E0,7.773655027E0
7.173407977E0,-2.598399878E0,6.666699886E0,2.612200022E0,7.617096445E0
7.183407977E0,-1.954599977E0,7.169600010E0,2.469199896E0,7.830745399E0
7.193418915E0,-1.645599961E0,7.799399853E0,1.674299955E0,8.145054796E0
7.203407977E0,-1.302199960E0,8.151399612E0,4.584999979E-1,8.267482242E0
7.213407977E0,-1.074599981E0,7.998699665E0,-8.280999660E-1,8.112934796E0
7.223407977E0,-8.539999723E-1,7.961799622E0,-1.988999963E0,8.250799356E0
7.233407977E0,-6.098999977E-1,8.131899834E0,-2.827699900E0,8.631086817E0
7.243418915E0,-4.134999812E-1,8.753799438E0,-3.050799847E0,9.279405506E0
7.253415790E0,-3.490999937E-1,9.667900085E0,-2.552500010E0,1.000526957E1
7.263407977E0,-4.738999903E-1,1.034899998E1,-1.872099996E0,1.052763697E1
7.273407977E0,-9.125999808E-1,1.047789955E1,-1.598299980E0,1.063831662E1
7.283407977E0,-1.658999920E0,9.894199371E0,-1.847399950E0,1.020099743E1
7.293409540E0,-2.476799965E0,8.294199944E0,-2.752300024E0,9.083140767E0
7.303407977E0,-3.569899797E0,6.219099998E0,-3.679499865E0,8.059783410E0
7.313407977E0,-4.167500019E0,3.836899996E0,-4.147799969E0,7.020975898E0
7.323407977E0,-4.036900043E0,4.588999748E-1,-4.020599842E0,5.715975353E0
7.333407977E0,-3.303699970E0,-4.039099693E0,-4.106800079E0,6.640373989E0
7.343420477E0,-6.674000025E-1,-1.094810009E1,-4.499599934E0,1.185549315E1
7.353407977E0,4.747799873E0,-2.039319992E1,-2.882699966E0,2.113608681E1
7.363407977E0,1.075739956E1,-2.814949989E1,1.846499920E0,3.019148144E1
7.373407977E0,1.333099937E1,-2.838389969E1,5.820099831E0,3.189411964E1
7.383407977E0,1.768330002E1,-2.380819893E1,8.987599373E0,3.098881053E1
7.393414227E0,2.279489899E1,-1.811470032E1,1.095580006E1,3.110915207E1
7.403407977E0,2.449609947E1,-1.371789932E1,1.107679939E1,3.018170201E1
7.413407977E0,2.373340034E1,-1.186049938E1,9.932999611E0,2.833037626E1
7.423407977E0,2.237669945E1,-1.262080002E1,8.579899788E0,2.708534570E1
7.433407977E0,2.082849884E1,-1.417789936E1,6.840799809E0,2.610815459E1
7.443411102E0,1.887570000E1,-1.372639942E1,3.921399832E0,2.366608265E1
7.453407977E0,1.707719994E1,-1.055299950E1,6.351000071E-1,2.008481785E1
7.463407977E0,1.586549950E1,-6.191299915E0,-2.222899914E0,1.717520169E1
7.473407977E0,1.508339977E1,-2.097800016E0,-4.144799709E0,1.578255614E1
7.483407977E0,1.367859936E1,1.754999995E0,-4.655099869E0,1.455520732E1
7.493417352E0,1.117149925E1,4.660500050E0,-3.933699846E0,1.272779049E1
7.503407977E0,7.743599892E0,6.613599777E0,-2.974699974E0,1.060904714E1
7.513407977E0,4.134399891E0,7.780200005E0,-1.681299925E0,8.969478469E0
7.523407977E0,5.439000130E-1,8.469200134E0,-1.169999968E-2,8.486655114E0
7.533407977E0,-2.442899942E0,8.864799500E0,1.368299961E0,9.296487244E0
7.543415790E0,-4.518599987E0,9.249699593E0,2.296799898E0,1.054751052E1
7.553407977E0,-6.138299942E0,9.932000160E0,3.790799856E0,1.227572877E1
7.563407977E0,-7.673899651E0,1.048129940E1,5.481400013E0,1.409936591E1
7.573407977E0,-8.493700027E0,1.069479942E1,6.530399799E0,1.513828908E1
7.583407977E0,-8.143499374E0,1.026159954E1,6.283599854E0,1.452930261E1
7.593418915E0,-7.263700008E0,9.443200111E0,5.036999702E0,1.293471036E1
7.603407977E0,-6.276399612E0,8.099699974E0,2.987699986E0,1.067355063E1
7.613407977E0,-5.838199615E0,6.375699997E0,7.782999873E-1,8.679854611E0
7.623407977E0,-5.921499729E0,4.100899696E0,-1.515200019E0,7.360527730E0
7.633407977E0,-6.225299835E0,2.116999865E0,-3.848399878E0,7.618807524E0
7.643415790E0,-6.496799946E0,7.019999623E-1,-5.389299870E0,8.470287278E0
7.653407977E0,-6.965799809E0,-2.239999920E-2,-5.762300014E0,9.040297019E0
7.663407977E0,-7.451299667E0,3.339999914E-2,-5.434599876E0,9.222681720E0
7.673407977E0,-7.775699615E0,8.824999928E-1,-4.631099701E0,9.093260977E0
7.683407977E0,-7.823299885E0,1.420099974E0,-3.761899948E0,8.796169407E0
7.693412665E0,-7.793599606E0,1.203699946E0,-2.854199886E0,8.386628963E0
7.703407977E0,-8.012100220E0,6.491000056E-1,-2.091899872E0,8.306089683E0
7.713407977E0,-8.300899506E0,-9.449999779E-2,-1.136099935E0,8.378817692E0
7.723407977E0,-8.559800148E0,-6.010999680E-1,-1.594000012E-1,8.582360288E0
7.733407977E0,-8.806900024E0,-1.023100019E0,6.141999960E-1,8.887376628E0
7.743411102E0,-8.520899773E0,-1.244799972E0,1.035200000E0,8.673344162E0
7.753407977E0,-7.191999912E0,-1.288999915E0,1.599900007E0,7.479710125E0
7.763407977E0,-5.381700039E0,-1.655099988E0,2.829399824E0,6.301393072E0
7.773407977E0,-2.906699896E0,-2.093600035E0,4.394199848E0,5.669308397E0
7.783407977E0,3.777000010E-1,-2.849299908E0,6.391099930E0,7.007661919E0
7.793415790E0,3.597899914E0,-3.979899883E0,7.926799774E0,9.571762718E0
7.803407977E0,6.359999657E0,-6.109799862E0,8.845299721E0,1.249073966E1
7.813407977E0,8.201199532E0,-8.824600220E0,8.323699951E0,1.464299231E1
7.823407977E0,9.607999802E0,-1.194199944E1,6.082399845E0,1.649001512E1
7.833407977E0,1.027470016E1,-1.654290009E1,3.152899981E0,1.972758944E1
7.843411102E0,8.829099655E0,-2.119279861E1,-3.797000051E-1,2.296153057E1
7.853407977E0,5.856499672E0,-2.359319878E1,-5.019799709E0,2.482208706E1
7.863407977E0,3.048599958E0,-2.395529938E1,-9.948699951E0,2.611756039E1
7.873407977E0,3.811999857E-1,-2.251439857E1,-1.419749928E1,2.661977540E1
7.883407977E0,-1.800699949E0,-2.038229942E1,-1.605760002E1,2.601013588E1
7.893411102E0,-2.393199921E0,-1.857900047E1,-1.382109928E1,2.327937821E1
7.903407977E0,-1.368600011E0,-1.822789955E1,-9.063099861E0,2.040267549E1
7.913407977E0,-1.519999932E-2,-1.862800026E1,-4.739200115E0,1.922141104E1
7.923407977E0,7.378000021E-1,-1.842210007E1,-1.790799975E0,1.852363583E1
7.933412665E0,2.021299839E0,-1.747019958E1,-3.276000023E-1,1.758979387E1
7.943407977E0,4.264400005E0,-1.597749996E1,-2.793999910E-1,1.653915587E1
7.953407977E0,6.701299667E0,-1.434839916E1,-1.703899980E0,1.592756262E1
7.963407977E0,8.767000198E0,-1.213630009E1,-3.287899971E0,1.532841670E1
7.973407977E0,9.958899498E0,-9.138599396E0,-4.213699818E0,1.415799930E1
7.983417352E0,1.227009964E1,-5.158999920E0,-4.119800091E0,1.393353430E1
7.993407977E0,1.432439995E1,-6.035999656E-1,-2.519700050E0,1.455684221E1
8.003407977E0,1.436579990E1,3.818499804E0,-5.205000043E-1,1.487373752E1
8.013407977E0,1.251079941E1,7.535699844E0,1.328999996E0,1.466537129E1
8.023407977E0,9.130599976E0,1.023369980E1,2.779799938E0,1.399370413E1
8.033418915E0,4.573800087E0,1.178369999E1,3.401899815E0,1.309000210E1
8.043407977E0,9.259999543E-2,1.250169945E1,3.472499847E0,1.297533503E1
8.053407977E0,-3.476899862E0,1.246079922E1,3.703899860E0,1.345656806E1
8.063407977E0,-5.600800037E0,1.207539940E1,3.810099840E0,1.384561636E1
8.073407977E0,-5.804100037E0,1.134509945E1,3.609299898E0,1.324484445E1
8.083422040E0,-4.766499996E0,1.104209995E1,4.097300053E0,1.270572160E1
8.093407977E0,-3.763299942E0,1.117299938E1,4.682499886E0,1.268558815E1
8.103407977E0,-2.893899918E0,1.139050007E1,4.759200096E0,1.267943745E1
8.113407977E0,-2.011699915E0,1.137939930E1,4.247399807E0,1.231170460E1
8.123407977E0,-1.117499948E0,1.136320019E1,3.531699896E0,1.195173748E1
8.133409540E0,8.929999918E-2,1.168179989E1,3.074699879E0,1.207999182E1
8.143407977E0,1.778999925E0,1.227059937E1,2.751699924E0,1.270056306E1
8.153407977E0,2.761099815E0,1.285400009E1,2.554600000E0,1.339309418E1
8.163407977E0,2.559999943E0,1.323469925E1,2.108399868E0,1.364390758E1
8.173407977E0,1.530299902E0,1.338869953E1,1.384999990E0,1.354685638E1
8.183411102E0,6.161000133E-1,1.309379959E1,5.695999861E-1,1.312065589E1
8.193407977E0,-2.950000018E-2,1.270689964E1,1.012699962E0,1.274722440E1
8.203407977E0,-5.472999811E-1,1.239960003E1,2.076699972E0,1.258420839E1
8.213407977E0,-3.328999877E-1,1.196189976E1,2.973399878E0,1.233040855E1
8.223407977E0,4.971999824E-1,1.136660004E1,3.645499945E0,1.194723709E1
8.233411102E0,1.335099936E0,1.085909939E1,4.217599869E0,1.172564199E1
8.243407977E0,2.392799854E0,1.036829948E1,4.429500103E0,1.152595317E1
8.253407977E0,4.577600002E0,1.008640003E1,4.786299706E0,1.206642251E1
8.263407977E0,6.132499695E0,9.502499580E0,5.433300018E0,1.254694385E1
8.273407977E0,6.066799641E0,7.987099648E0,6.211599827E0,1.179761803E1
8.283420477E0,5.239199638E0,5.238499641E0,6.731400013E0,1.001013674E1
8.293407977E0,5.194600105E0,2.365799904E0,6.736199856E0,8.829341308E0
8.303407977E0,6.458799839E0,-4.491999745E-1,6.683499813E0,9.305216050E0
8.313407977E0,9.733900070E0,-2.224799871E0,6.968099594E0,1.217591709E1
8.323407977E0,1.534079933E1,-2.250399828E0,8.418499947E0,1.764300328E1
8.333412665E0,1.963599968E1,-2.330800056E0,9.918899536E0,2.212215361E1
8.343407977E0,2.260359955E1,-3.835500002E0,1.022229958E1,2.510237402E1
8.353407977E0,2.318459892E1,-6.330699921E0,9.796799660E0,2.595343276E1
8.363407977E0,2.233629990E1,-7.588099957E0,8.591599464E0,2.510587850E1
8.373407977E0,2.222620010E1,-7.535699844E0,7.274600029E0,2.457052195E1
8.383414227E0,2.342149925E1,-7.004399776E0,6.798699856E0,2.537421059E1
8.393407977E0,2.510659981E1,-6.437299728E0,7.214699745E0,2.690412745E1
8.403407977E0,2.617469978E1,-6.222099781E0,8.062099457E0,2.808606206E1
8.413407977E0,2.444169998E1,-5.966899872E0,8.674099922E0,2.661279019E1
8.423407977E0,2.039990044E1,-5.493499756E0,8.049900055E0,2.260830308E1
8.433417352E0,1.637399864E1,-5.205199718E0,6.727200031E0,1.845148113E1
8.443407977E0,1.288379955E1,-4.997399807E0,5.208399773E0,1.476799661E1
8.453407977E0,1.028709984E1,-4.558399677E0,3.596999884E0,1.181278286E1
8.463407977E0,8.435500145E0,-3.916999817E0,2.572000027E0,9.649649444E0
8.473407977E0,6.500000000E0,-3.130599976E0,2.689399958E0,7.699579751E0
8.483411102E0,4.645800114E0,-2.267499924E0,3.127799988E0,6.042197230E0
8.493407977E0,3.236599922E0,-1.946599960E0,3.196300030E0,4.947844414E0
8.503407977E0,1.900599957E0,-2.184099913E0,3.100600004E0,4.242203792E0
8.513407977E0,4.715999961E-1,-2.780599833E0,3.085799932E0,4.180466865E0
8.523407977E0,-1.009799957E0,-3.707499981E0,3.235599995E0,5.023381270E0
8.533418915E0,-2.121199846E0,-4.735300064E0,3.476199865E0,6.245520074E0
8.543407977E0,-2.872599840E0,-5.644299984E0,4.399300098E0,7.711277035E0
8.553407977E0,-3.499499798E0,-6.806399822E0,5.466799736E0,9.405289827E0
8.563407977E0,-3.756399870E0,-8.141900063E0,5.818399906E0,1.068900623E1
8.573407977E0,-3.585199833E0,-9.138199806E0,6.032899857E0,1.152198916E1
8.583411102E0,-3.446300030E0,-9.945599556E0,5.649799824E0,1.194622001E1
8.593407977E0,-3.848899841E0,-1.073839951E1,4.607500076E0,1.230269527E1
8.603407977E0,-4.198599815E0,-1.163819981E1,3.908299923E0,1.297500456E1
8.613407977E0,-4.343400002E0,-1.189019966E1,4.193399906E0,1.333516308E1
8.623407977E0,-4.334499836E0,-1.166510010E1,5.511799812E0,1.361037789E1
8.633407977E0,-3.435099840E0,-1.137099934E1,6.831599712E0,1.370293003E1
8.643407977E0,-1.779199958E0,-1.130219936E1,7.612799644E0,1.374263371E1
8.653407977E0,-6.464999914E-1,-1.139629936E1,7.786799908E0,1.381766457E1
8.663407977E0,3.379999846E-2,-1.137189960E1,7.161299706E0,1.343895296E1
8.673407977E0,4.165000021E-1,-1.152339935E1,5.674099922E0,1.285136626E1
8.683407977E0,6.917999983E-1,-1.179019928E1,3.880100012E0,1.243151489E1
8.693407977E0,1.215799928E0,-1.189529991E1,2.419299841E0,1.219956315E1
8.703407977E0,1.804199934E0,-1.190339947E1,1.890399933E0,1.218686458E1
8.713407977E0,2.929299831E0,-1.152670002E1,1.771299958E0,1.202427189E1
8.723407977E0,4.754199982E0,-1.107989979E1,1.768199921E0,1.218577563E1
8.733407977E0,6.440799713E0,-1.055949974E1,2.247799873E0,1.257137781E1
8.743407977E0,7.887599945E0,-9.910399437E0,2.693199873E0,1.294926930E1
8.753407977E0,9.025599480E0,-9.304499626E0,2.884599924E0,1.327991250E1
8.763407977E0,9.004599571E0,-9.446000099E0,2.910499811E0,1.337089154E1
8.773407977E0,7.677499771E0,-1.017309952E1,2.838500023E0,1.305729830E1
8.783407977E0,5.560400009E0,-1.105809975E1,1.587700009E0,1.247879840E1
8.793407977E0,3.772399902E0,-1.216469955E1,2.854000032E-1,1.273940224E1
8.803407977E0,1.986400008E0,-1.284179974E1,-6.189999580E-1,1.300925695E1
8.813407977E0,2.509000003E-1,-1.219519997E1,-1.270299911E0,1.226374800E1
8.823423602E0,-1.266699910E0,-1.024879932E1,-2.556999922E0,1.063864018E1
8.833407977E0,-1.655999899E0,-8.261199951E0,-4.995599747E0,9.795191531E0
8.843407977E0,-5.658000112E-1,-6.284599781E0,-9.028999329E0,1.101540526E1
8.853407977E0,1.058099985E0,-4.272500038E0,-1.274609947E1,1.348469072E1
8.863407977E0,1.553799987E0,-2.511600018E0,-1.434209919E1,1.464302695E1
8.873420477E0,1.083500028E0,-1.087399960E0,-1.445689964E1,1.453816901E1
8.883407977E0,4.425999820E-1,-2.192000002E-1,-1.416619968E1,1.417480712E1
8.893407977E0,-1.046999991E-1,-2.369999886E-2,-1.381849957E1,1.381891653E1
8.903407977E0,-1.308599949E0,-6.004999876E-1,-1.200809956E1,1.209410968E1
8.913407977E0,-2.974999905E0,-1.235099912E0,-7.573299885E0,8.229882585E0
8.923412665E0,-3.865499973E0,-1.198799968E0,-1.113799930E0,4.197589986E0
8.933407977E0,-3.508099794E0,-5.015000105E-1,4.968800068E0,6.103051740E0
8.943407977E0,-2.422899961E0,7.860999703E-1,1.080289936E1,1.109914555E1
8.953407977E0,-7.350999713E-1,1.540699959E0,1.438679981E1,1.448772367E1
8.963407977E0,1.348999977E0,1.232699990E0,1.477049923E1,1.488311116E1
8.973418915E0,3.029899836E0,3.991999924E-1,1.278139973E1,1.314168302E1
8.983407977E0,3.695299864E0,-6.029999852E-1,9.586500168E0,1.029173627E1
8.993407977E0,3.279199839E0,-1.534600019E0,6.109799862E0,7.101957699E0
9.003407977E0,2.151200056E0,-2.452899933E0,2.654199839E0,4.205847899E0
9.013407977E0,7.929999828E-1,-3.539899826E0,-3.015999794E-1,3.640151412E0
9.023407977E0,-4.553999901E-1,-4.459799767E0,-1.874899983E0,4.859264662E0
9.033414227E0,-1.499799967E0,-5.331999779E0,-2.370300055E0,6.024777500E0
9.043407977E0,-2.054399967E0,-6.041299820E0,-2.174099922E0,6.741259023E0
9.053407977E0,-2.510099888E0,-6.640399933E0,-1.928900003E0,7.356369209E0
9.063407977E0,-3.001299858E0,-7.134399891E0,-2.145999908E0,8.031984702E0
9.073407977E0,-3.612699986E0,-7.410799980E0,-2.568799973E0,8.635409129E0
9.083411102E0,-4.406799793E0,-7.474199772E0,-2.936699867E0,9.160117508E0
9.093407977E0,-5.159899712E0,-7.542500019E0,-3.367499828E0,9.739298058E0
9.103407977E0,-5.666100025E0,-7.703899860E0,-3.975899935E0,1.035676315E1
9.113407977E0,-5.821799755E0,-8.094200134E0,-3.926800013E0,1.071583812E1
9.123407977E0,-5.718699932E0,-8.702099800E0,-3.131999969E0,1.087379849E1
9.133420477E0,-5.352600098E0,-9.562199593E0,-1.735799909E0,1.109499843E1
9.143407977E0,-5.025899887E0,-1.030379963E1,-1.140999943E-1,1.146477105E1
9.153407977E0,-4.807499886E0,-1.064499950E1,1.416700006E0,1.176584500E1
9.163407977E0,-5.250799656E0,-1.056820011E1,2.577299833E0,1.207891655E1
9.173407977E0,-5.854399681E0,-1.049899960E1,2.585999966E0,1.229594990E1
9.183415790E0,-5.895599842E0,-1.030340004E1,1.683799982E0,1.198971777E1
9.193407977E0,-4.558300018E0,-9.704199791E0,5.787000060E-1,1.073706135E1
9.203407977E0,-3.060099840E0,-8.825599670E0,4.278999865E-1,9.350856590E0
9.213407977E0,-1.190699935E0,-7.685099602E0,9.499999881E-1,7.834604151E0
9.223407977E0,1.420699954E0,-6.394299984E0,1.769199967E0,6.784948723E0
9.233411102E0,3.722999811E0,-5.096699715E0,2.967599869E0,6.974505327E0
9.243407977E0,4.529399872E0,-3.958899975E0,3.403499842E0,6.911740981E0
9.253407977E0,4.222199917E0,-3.073400021E0,3.047499895E0,6.046487859E0
9.263407977E0,4.314499855E0,-1.746199965E0,2.455899954E0,5.262657874E0
9.273407977E0,4.476399899E0,7.180000097E-2,2.041100025E0,4.920304930E0
9.283417352E0,4.350500107E0,2.294399977E0,1.619899988E0,5.178339348E0
9.293407977E0,4.502500057E0,4.640399933E0,1.645499945E0,6.671842952E0
9.303407977E0,6.063699722E0,7.944199562E0,2.261100054E0,1.024652792E1
9.313406415E0,9.412099838E0,1.156269932E1,2.855299950E0,1.518013098E1
9.323407977E0,1.302040005E1,1.482809925E1,2.994799852E0,1.995926279E1
9.333418915E0,1.528179932E1,1.739609909E1,2.413499832E0,2.328052051E1
9.343407977E0,1.498989964E1,1.871179962E1,1.128499985E0,2.400212591E1
9.353407977E0,1.299469948E1,1.810499954E1,-5.424000025E-1,2.229231753E1
9.363407977E0,1.125749969E1,1.586829948E1,-1.097299933E0,1.948687494E1
9.373407977E0,1.030589962E1,1.281029987E1,-5.065000057E-1,1.644906964E1
9.383414227E0,9.660299301E0,1.011639977E1,-4.100000020E-3,1.398795709E1
9.393407977E0,9.003600121E0,7.683699608E0,5.022999644E-1,1.184720896E1
9.403407977E0,8.002300262E0,6.131799698E0,7.708999515E-1,1.011088838E1
9.413407977E0,7.152400017E0,4.672299862E0,2.497999966E-1,8.546906577E0
9.423407977E0,5.895799637E0,2.745999813E0,-3.285000026E-1,6.512210115E0
9.433411102E0,4.024199963E0,6.748999953E-1,-7.110999823E-1,4.141900352E0
9.443407977E0,1.567299962E0,-1.487800002E0,-5.349000096E-1,2.226229107E0
9.453407977E0,-6.876999736E-1,-3.474399805E0,1.534999907E-1,3.545130111E0
9.463407977E0,-2.462699890E0,-5.119599819E0,9.570999742E-1,5.761183335E0
9.473407977E0,-3.768399954E0,-6.211400032E0,2.150899887E0,7.576852836E0
9.483411102E0,-4.356899738E0,-7.050199986E0,3.487399817E0,8.991654611E0
9.493407977E0,-4.586299896E0,-7.713899612E0,4.182899952E0,9.901264868E0
9.503407977E0,-4.795300007E0,-8.212399483E0,4.051799774E0,1.033709286E1
9.513407977E0,-4.942100048E0,-8.692299843E0,3.064599991E0,1.045811659E1
9.523407977E0,-5.446799755E0,-9.232500076E0,1.659399986E0,1.084713296E1
9.533407977E0,-6.065199852E0,-9.605899811E0,3.497000039E-1,1.136583699E1
9.543407977E0,-6.555199623E0,-9.612899780E0,-8.427000046E-1,1.166570305E1
9.553407977E0,-6.948099613E0,-9.466499329E0,-1.974499941E0,1.190753324E1
9.563407977E0,-6.986299992E0,-9.647600174E0,-2.604099989E0,1.219286322E1
9.573414227E0,-6.980399609E0,-9.971399307E0,-2.463999987E0,1.241877928E1
9.583407977E0,-7.019099712E0,-1.030099964E1,-1.983099937E0,1.262184772E1
9.593407977E0,-6.945699692E0,-1.061740017E1,-1.332599998E0,1.275726277E1
9.603407977E0,-5.940700054E0,-1.041199970E1,3.754999936E-1,1.199344217E1
9.613407977E0,-5.309099674E0,-1.054360008E1,8.337000012E-1,1.183423414E1
9.623415790E0,-5.312099934E0,-1.050059986E1,1.052799940E0,1.181479542E1
9.633411102E0,-4.809899807E0,-1.096599960E1,1.648699999E0,1.208745197E1
9.643407977E0,-4.360899925E0,-1.177499962E1,2.414599895E0,1.278664760E1
9.653407977E0,-4.362699986E0,-1.253749943E1,3.119299889E0,1.363642456E1
9.663407977E0,-5.433099747E0,-1.302509975E1,4.269400120E0,1.474447605E1
9.673414227E0,-7.175499916E0,-1.236439991E1,4.947099686E0,1.512745780E1
9.683407977E0,-8.551400185E0,-1.063259983E1,4.387000084E0,1.433263388E1
9.693407977E0,-9.118999481E0,-8.439499855E0,3.633699894E0,1.294546578E1
9.703407977E0,-8.809700012E0,-6.256299973E0,2.938799858E0,1.119770728E1
9.713407977E0,-6.918499947E0,-3.603600025E0,2.129600048E0,8.086208692E0
9.723411102E0,-3.247499943E0,-7.504000068E-1,1.327199936E0,3.587591911E0
9.733407977E0,1.884400010E0,2.230700016E0,2.504000068E-1,2.930816631E0
9.743407977E0,7.934799671E0,4.818299770E0,-1.669399977E0,9.432070546E0
9.753407977E0,1.298359966E1,7.328299999E0,-3.146299839E0,1.523735685E1
9.763407977E0,1.760479927E1,1.030369949E1,-2.889400005E0,2.060203420E1
9.773414227E0,2.196509933E1,1.215320015E1,-1.437600017E0,2.514423505E1
9.783407977E0,2.344999886E1,1.252680016E1,5.655999780E-1,2.659216185E1
9.793407977E0,2.184059906E1,1.241689968E1,2.088500023E0,2.521017646E1
9.803407977E0,1.840270042E1,1.226659966E1,2.442699909E0,2.225074455E1
9.813406415E0,1.563279915E1,1.174289989E1,3.139499903E0,1.980243841E1
9.823412665E0,1.544519997E1,1.115499973E1,3.508199930E0,1.937254985E1
9.833407977E0,1.658950043E1,1.052849960E1,2.988299847E0,1.987437456E1
9.843407977E0,1.932409859E1,1.088429928E1,3.129199982E0,2.239822871E1
9.853407977E0,2.339219856E1,1.201239967E1,2.112699986E0,2.638098180E1
9.863407977E0,2.644999886E1,1.286349964E1,-4.642999768E-1,2.941577191E1
9.873407977E0,2.622779846E1,1.295679951E1,-3.641099930E0,2.947937710E1
9.883407977E0,2.357769966E1,1.220799923E1,-6.041100025E0,2.722936018E1
9.893407977E0,1.954059982E1,1.088630009E1,-7.691099644E0,2.365374357E1
9.903407977E0,1.597779942E1,9.210199356E0,-8.968500137E0,2.050736066E1
9.913407977E0,1.310949993E1,7.531599998E0,-9.958299637E0,1.810391446E1
9.923417352E0,1.076189995E1,5.655099869E0,-1.049759960E1,1.606232369E1
9.933407977E0,8.615399361E0,3.972299814E0,-1.059949970E1,1.422510689E1
9.943407977E0,6.098399639E0,2.116600037E0,-1.035699940E1,1.220401206E1
9.953407977E0,3.575999975E0,1.767999977E-1,-9.618399620E0,1.026316936E1
9.963407977E0,1.402899981E0,-1.396299958E0,-8.588600159E0,8.813729892E0
9.973411102E0,1.061999947E-1,-2.396299839E0,-7.241099834E0,7.628044190E0
9.983407977E0,-8.916999698E-1,-3.181200027E0,-5.888999939E0,6.752442723E0
9.993407977E0,-7.746999860E-1,-3.551699877E0,-4.537399769E0,5.814011416E0
1.000340798E1,-4.649999738E-2,-3.762699842E0,-2.708400011E0,4.636324296E0
1.001340798E1,4.997999966E-1,-4.253699780E0,-9.978999496E-1,4.397677360E0
1.002342048E1,8.601999879E-1,-5.170599937E0,2.381999940E-1,5.247074134E0
1.003340798E1,7.507999539E-1,-6.320799828E0,1.111400008E0,6.461533952E0
1.004340798E1,-9.910000116E-2,-7.486399651E0,1.371899962E0,7.611708747E0
1.005340798E1,-5.586000085E-1,-8.432199478E0,1.679199934E0,8.615900094E0
1.006340798E1,-5.896999836E-1,-9.285299301E0,2.244699955E0,9.570956434E0
1.007341892E1,-9.989999980E-2,-1.003109932E1,2.947799921E0,1.045573804E1
1.008340798E1,7.677999735E-1,-1.065129948E1,4.246699810E0,1.149235209E1
1.009340798E1,1.613999963E0,-1.156139946E1,5.010699749E0,1.270346667E1
1.010340798E1,1.875699997E0,-1.273449993E1,4.983399868E0,1.380289873E1
1.011340798E1,1.502099991E0,-1.399069977E1,5.003699780E0,1.493428927E1
1.012341266E1,6.083999872E-1,-1.531899929E1,5.842799664E0,1.640671197E1
1.013340798E1,-3.862999976E-1,-1.606169891E1,7.922699928E0,1.791358629E1
1.014340798E1,-6.692000031E-1,-1.690959930E1,9.465499878E0,1.939015382E1
1.015340798E1,-1.359699965E0,-1.743129921E1,1.130659962E1,2.082157946E1
1.016340798E1,-1.664499998E0,-1.678829956E1,1.267980003E1,2.110438085E1
1.017340798E1,-1.495399952E0,-1.550019932E1,1.308430004E1,2.033940283E1
1.018340798E1,-1.466099977E0,-1.416539955E1,1.313829994E1,1.937583337E1
1.019340798E1,-1.112399936E0,-1.273139954E1,1.298709965E1,1.822061264E1
1.020340798E1,-1.864999980E-1,-1.171029949E1,1.220879936E1,1.691805776E1
1.021340798E1,3.099999949E-2,-1.098349953E1,1.052369976E1,1.521139308E1
1.022341110E1,-8.851999640E-1,-9.772799492E0,9.101699829E0,1.338402513E1
1.023340798E1,-3.104499817E0,-7.615399837E0,7.649399757E0,1.123145362E1
1.024340798E1,-5.647899628E0,-5.071000099E0,4.892499924E0,9.030524221E0
1.025340798E1,-7.510900021E0,-2.876699924E0,1.569800019E0,8.194711323E0
1.026340798E1,-8.800499916E0,-1.349699974E0,-1.547899961E0,9.036950984E0
1.027340798E1,-9.968699455E0,1.534999907E-1,-4.267399788E0,1.084477902E1
1.028340798E1,-1.050640011E1,2.426100016E0,-7.294699669E0,1.301856550E1
1.029340798E1,-9.868199348E0,5.694399834E0,-9.670299530E0,1.494397005E1
1.030340798E1,-9.329999924E0,9.374499321E0,-1.034639931E1,1.679220399E1
1.031340642E1,-8.014499664E0,1.281909943E1,-9.297100067E0,1.774817130E1
1.032340798E1,-5.727099895E0,1.457949924E1,-8.675799370E0,1.790617117E1
1.033340798E1,-4.113100052E0,1.444839954E1,-8.908299446E0,1.746515504E1
1.034340798E1,-4.110199928E0,1.339769936E1,-9.446299553E0,1.690043392E1
1.035340798E1,-4.799299717E0,1.133399963E1,-1.048719978E1,1.617016341E1
1.036340798E1,-5.561699867E0,8.624400139E0,-1.001159954E1,1.433683747E1
1.037340798E1,-5.605000019E0,6.697799683E0,-7.534899712E0,1.153478476E1
1.038340798E1,-4.235399723E0,5.879799843E0,-4.063099861E0,8.307793780E0
1.039340798E1,-2.008899927E0,5.343999863E0,-9.002999663E-1,5.779667246E0
1.040340798E1,1.051699996E0,4.667099953E0,9.484999776E-1,4.877247898E0
1.041340798E1,4.493400097E0,3.864799976E0,1.564700007E0,6.129894730E0
1.042340798E1,7.156199932E0,2.871599913E0,1.147400022E0,7.795755918E0
1.043340798E1,8.489899635E0,1.714800000E0,2.008999884E-1,8.663676798E0
1.044340798E1,8.708999634E0,1.727000028E-1,-8.831999898E-1,8.755372187E0
1.045340798E1,7.851999760E0,-1.743600011E0,-1.645299911E0,8.209814433E0
1.046342360E1,6.688799858E0,-3.845999956E0,-1.695799947E0,7.899841559E0
1.047340798E1,5.857999802E0,-5.835499763E0,-1.108299971E0,8.342514488E0
1.048340798E1,5.339999676E0,-8.055099487E0,-5.959999934E-2,9.664562921E0
1.049340798E1,5.021699905E0,-1.020650005E1,1.222700000E0,1.144050299E1
1.050340798E1,4.711999893E0,-1.222449970E1,2.407399893E0,1.332054467E1
1.051341266E1,4.610599995E0,-1.394539928E1,3.500599861E0,1.509920504E1
1.052340798E1,4.800799847E0,-1.520699978E1,4.741699696E0,1.663683376E1
1.053340798E1,5.728899956E0,-1.610309982E1,5.783400059E0,1.804377552E1
1.054340798E1,7.642699718E0,-1.715919876E1,6.248899937E0,1.979640653E1
1.055340798E1,1.042689991E1,-1.887999916E1,5.932899952E0,2.236903914E1
1.056341579E1,1.277750015E1,-2.179699898E1,5.330899715E0,2.582231915E1
1.057340798E1,1.336299992E1,-2.495979881E1,4.769999981E0,2.871087291E1
1.058340798E1,1.151169968E1,-2.682229996E1,4.029299736E0,2.946506848E1
1.059340798E1,7.653399944E0,-2.694750023E1,2.748499870E0,2.814776280E1
1.060340798E1,3.655599833E0,-2.579519844E1,1.035200000E0,2.607349826E1
1.061342516E1,8.544999957E-1,-2.355749893E1,-4.731999934E-1,2.357774044E1
1.062340798E1,-1.378799915E0,-2.016499901E1,-1.649199963E0,2.027925380E1
1.063340798E1,-3.135299921E0,-1.720050049E1,-1.341199994E0,1.753528272E1
1.064340798E1,-4.607100010E0,-1.530349922E1,1.300000004E-3,1.598194170E1
1.065340798E1,-5.645999908E0,-1.388599968E1,6.058999896E-1,1.500218040E1
1.066341892E1,-5.250699997E0,-1.212290001E1,-1.307999939E-1,1.321180017E1
1.067340798E1,-4.176399708E0,-8.827099800E0,-1.058399916E0,9.822434310E0
1.068340798E1,-3.973899841E0,-3.765399933E0,-1.565499902E0,5.693935945E0
1.069340798E1,-2.860999823E0,2.066299915E0,-2.713599920E0,4.451801866E0
1.070340798E1,-4.869599819E0,7.702399731E0,-1.799799919E0,9.288662108E0
1.071342048E1,-1.005959988E1,1.355819988E1,3.158099890E0,1.717538729E1
1.072340798E1,-1.498589993E1,1.653689957E1,8.761499405E0,2.397519793E1
1.073340798E1,-1.679509926E1,1.715119934E1,1.083899975E1,2.633862019E1
1.074340798E1,-1.822239876E1,1.880889893E1,1.095819950E1,2.838860038E1
1.075340798E1,-1.952739906E1,2.036400032E1,1.028230000E1,3.002894464E1
1.076341266E1,-1.922710037E1,2.039439964E1,7.880799770E0,2.911563035E1
1.077340798E1,-1.804509926E1,1.981789970E1,4.838999748E0,2.723583438E1
1.078340798E1,-1.446149921E1,1.934059906E1,1.734499931E0,2.421161336E1
1.079340798E1,-7.576900005E0,1.995329857E1,-1.465299964E0,2.139370565E1
1.080340798E1,-7.117999792E-1,2.004229927E1,-3.845799923E0,2.042034761E1
1.081341110E1,2.789299965E0,1.827000046E1,-4.020400047E0,1.891392946E1
1.082340798E1,1.280099988E0,1.639749908E1,3.838000000E-1,1.645186721E1
1.083340798E1,-2.221899986E0,1.428599930E1,6.691999912E0,1.593139913E1
1.084340798E1,-4.461699963E0,1.050109959E1,1.018729973E1,1.529578160E1
1.085340798E1,-6.088999748E0,5.385900021E0,1.124949932E1,1.387930373E1
1.086341735E1,-7.323499680E0,8.789999485E-1,9.276199341E0,1.185133590E1
1.087340798E1,-6.800299644E0,-2.303699970E0,5.194799900E0,8.862113450E0
1.088340798E1,-3.981099844E0,-2.476199865E0,9.969999641E-2,4.689420202E0
1.089340798E1,-1.647000015E-1,-4.547999799E-1,-6.057399750E0,6.076681729E0
1.090340798E1,3.017199993E0,8.058999777E-1,-8.092999458E0,8.674653354E0
1.091341110E1,5.285299778E0,6.317999959E-1,-3.946699858E0,6.626462461E0
1.092340798E1,6.938799858E0,-6.333999634E-1,3.460799932E0,7.779799172E0
1.093340798E1,7.369899750E0,-2.216199875E0,1.039499950E1,1.293379213E1
1.094340798E1,6.432699680E0,-4.571599960E0,1.596309948E1,1.780729335E1
1.095340798E1,7.028599739E0,-6.407899857E0,1.846559906E1,2.077115171E1
1.096342048E1,9.204899788E0,-7.190399647E0,1.758889961E1,2.111400996E1
1.097340798E1,1.088439941E1,-7.663399696E0,1.377509975E1,1.915597084E1
1.098340798E1,1.111439991E1,-7.965299606E0,9.314099312E0,1.654473720E1
1.099340798E1,1.063079929E1,-8.171199799E0,5.737400055E0,1.458424352E1
1.100340798E1,1.020300007E1,-8.165699959E0,2.982800007E0,1.340436355E1
1.101341266E1,9.019800186E0,-8.458000183E0,5.009999871E-1,1.237519953E1
1.102340798E1,7.346599579E0,-9.153399467E0,-7.888000011E-1,1.176347961E1
1.103340798E1,5.904799938E0,-9.934899330E0,-1.013499975E0,1.160155460E1
1.104340798E1,4.934299946E0,-1.064019966E1,-5.069999769E-2,1.172875677E1
1.105340798E1,4.598799706E0,-1.037650013E1,5.528999567E-1,1.136338031E1
1.106341110E1,4.620699883E0,-9.447400093E0,9.763999581E-1,1.056208279E1
1.107340798E1,4.743899822E0,-8.722700119E0,1.332700014E0,1.001829188E1
1.108340798E1,4.744599819E0,-8.519399643E0,9.337999821E-1,9.796090043E0
1.109340798E1,4.980799675E0,-8.194399834E0,1.771999896E-1,9.591035078E0
1.110340798E1,5.077799797E0,-8.904099464E0,1.111999974E-1,1.025082453E1
1.111340798E1,4.884900093E0,-1.027209949E1,8.089999855E-2,1.137474491E1
1.112340798E1,4.174200058E0,-1.206479931E1,-1.532000005E-1,1.276741159E1
1.113340798E1,2.562700033E0,-1.353090000E1,-5.399000049E-1,1.378202374E1
1.114340798E1,4.360999763E-1,-1.398939991E1,-2.069700003E0,1.414839748E1
1.115340798E1,-1.643799901E0,-1.279999924E1,-5.726099968E0,1.411843757E1
1.116340798E1,-3.718400002E0,-1.089809990E1,-9.361800194E0,1.484043068E1
1.117340798E1,-4.755399704E0,-8.986599922E0,-1.263420010E1,1.621714576E1
1.118340798E1,-3.711999893E0,-7.239699841E0,-1.604129982E1,1.798653655E1
1.119340798E1,-1.913800001E0,-5.177399635E0,-1.839690018E1,1.920713496E1
1.120340798E1,-5.273999572E-1,-3.750099897E0,-1.841079903E1,1.879624752E1
1.121340798E1,2.893999815E-1,-2.889400005E0,-1.671409988E1,1.696447817E1
1.122340798E1,8.129000068E-1,-2.268300056E0,-1.380299950E1,1.401173746E1
1.123340798E1,1.333699942E0,-2.104699850E0,-1.078629971E1,1.107035584E1
1.124340798E1,1.123700023E0,-2.324899912E0,-8.429299355E0,8.815948556E0
1.125340798E1,5.978999734E-1,-2.506700039E0,-7.263799667E0,7.707387046E0
1.126340798E1,6.214999557E-1,-2.764499903E0,-6.476399899E0,7.069121413E0
1.127340798E1,9.734999537E-1,-3.286499977E0,-5.933499813E0,6.852386759E0
1.128340798E1,1.232499957E0,-4.187099934E0,-5.354899883E0,6.908387276E0
1.129340798E1,1.378000021E0,-5.406699657E0,-4.517199993E0,7.178884386E0
1.130341423E1,1.482800007E0,-7.052700043E0,-2.917899847E0,7.775179308E0
1.131340798E1,1.263999939E0,-8.601599693E0,-1.195999980E0,8.775854892E0
1.132340798E1,1.168099999E0,-9.586999893E0,3.296000063E-1,9.663522170E0
1.133340798E1,1.100099921E0,-9.965999603E0,1.457499981E0,1.013191365E1
1.134340798E1,1.268199921E0,-9.784099579E0,2.416800022E0,1.015765022E1
1.135341892E1,1.622399926E0,-9.454400063E0,3.194000006E0,1.011036587E1
1.136340798E1,1.965299964E0,-9.421199799E0,3.704799891E0,1.031246585E1
1.137340798E1,1.951599956E0,-9.788799286E0,3.949199915E0,1.073431478E1
1.138340798E1,1.470099926E0,-1.026089954E1,4.177499771E0,1.117581127E1
1.139340798E1,8.037999868E-1,-1.079850006E1,4.513099670E0,1.173123040E1
1.140342048E1,-4.088999927E-1,-1.141479969E1,4.458099842E0,1.226130113E1
1.141340798E1,-1.530099988E0,-1.180989933E1,3.622099876E0,1.244727021E1
1.142340798E1,-1.514299989E0,-1.169149971E1,2.550099850E0,1.206181077E1
1.143340798E1,-6.069999933E-1,-1.153399944E1,1.105799913E0,1.160277491E1
1.144340798E1,8.920999765E-1,-1.194709969E1,6.250000000E-2,1.198052334E1
1.145341735E1,2.059299946E0,-1.319299984E1,3.149999976E-1,1.335646608E1
1.146340798E1,2.849200010E0,-1.532859993E1,1.475099921E0,1.566077381E1
1.147340798E1,3.624899864E0,-1.818350029E1,3.411799908E0,1.885258498E1
1.148340798E1,4.203700066E0,-2.078949928E1,5.354499817E0,2.187567240E1
1.149340798E1,3.941799879E0,-2.214869881E1,7.842399597E0,2.382448061E1
1.150341735E1,2.462299824E0,-2.149149895E1,1.038889980E1,2.399743083E1
1.151340798E1,4.323999882E-1,-1.963069916E1,1.271939945E1,2.339517988E1
1.152340798E1,-2.366299868E0,-1.767919922E1,1.422480011E1,2.281443399E1
1.153340798E1,-4.939799786E0,-1.560649967E1,1.442779922E1,2.182030807E1
1.154340798E1,-6.472499847E0,-1.435979939E1,1.270629978E1,2.023727123E1
1.155342048E1,-8.513699532E0,-1.476620007E1,9.614699364E0,1.956952191E1
1.156340798E1,-1.033599949E1,-1.496169949E1,6.299799919E0,1.924507251E1
1.157340798E1,-1.170739937E1,-1.387889957E1,3.929600000E0,1.857764273E1
1.158340798E1,-1.156229973E1,-1.190880013E1,2.155599833E0,1.673776885E1
1.159340798E1,-6.003699780E0,-9.101399422E0,1.776699901E0,1.104701521E1
1.160341579E1,4.005599976E0,-4.495699883E0,5.410299778E0,8.094905329E0
1.161340798E1,1.085459995E1,-3.845999837E-1,1.004699993E1,1.479569075E1
1.162340798E1,1.035639954E1,2.717999816E-1,1.150369930E1,1.548108472E1
1.163340798E1,-1.310299993E0,-1.298299909E0,9.897299767E0,1.006772126E1
1.164340798E1,-1.667700005E1,4.986999929E-1,9.102099419E0,1.900576876E1
1.165341267E1,-2.324600029E1,5.331799984E0,1.189359951E1,2.665074727E1
1.166340798E1,-1.170689964E1,1.048989964E1,1.445069981E1,2.135210103E1
1.167340798E1,1.063819981E1,1.624440002E1,1.756459999E1,2.618333440E1
1.168340798E1,2.800079918E1,2.074819946E1,2.190789986E1,4.116416660E1
1.169340798E1,3.430849838E1,2.315729904E1,2.810519981E1,5.003234770E1
1.170340954E1,3.014239883E1,2.187199974E1,3.331979752E1,4.997156678E1
1.171340798E1,1.889609909E1,1.714970016E1,3.416930008E1,4.264640482E1
1.172340798E1,8.827099800E0,1.334459972E1,3.004729843E1,3.404168292E1
1.173340798E1,4.115999699E0,9.678799629E0,2.286349869E1,2.516664833E1
1.174340798E1,2.350499868E0,6.094500065E0,1.331110001E1,1.482744631E1
1.175341579E1,1.977699995E0,3.253399849E0,4.438799858E0,5.847978456E0
1.176340798E1,3.491400003E0,1.888299942E0,-2.663800001E0,4.780311820E0
1.177340798E1,5.586799622E0,2.157099962E0,-7.247799873E0,9.401915404E0
1.178340798E1,5.286900043E0,2.636499882E0,-1.067920017E1,1.220441560E1
1.179340798E1,4.529799938E0,2.732899904E0,-1.222469997E1,1.332032728E1
1.180341110E1,3.696599960E0,3.027299881E0,-1.252299976E1,1.340354128E1
1.181340798E1,2.651599884E0,3.266700029E0,-1.163350010E1,1.237095936E1
1.182340798E1,4.109999835E-1,3.133599997E0,-9.953199387E0,1.044291856E1
1.183340798E1,-1.847899914E0,2.232800007E0,-8.048199654E0,8.554159668E0
1.184340798E1,-3.208199978E0,1.143700004E0,-7.080499649E0,7.857103288E0
1.185341110E1,-4.299799919E0,2.144999951E-1,-6.121500015E0,7.483785942E0
1.186340798E1,-4.940299988E0,3.517999947E-1,-5.388299942E0,7.318750130E0
1.187340798E1,-4.650599957E0,6.574999690E-1,-5.629600048E0,7.331628937E0
1.188340798E1,-4.515399933E0,5.929999948E-1,-5.964099884E0,7.504063764E0
1.189340798E1,-4.797299862E0,5.599999800E-3,-6.131700039E0,7.785362078E0
1.190342048E1,-5.301300049E0,-9.977999926E-1,-5.294899940E0,7.558793053E0
1.191340798E1,-6.235300064E0,-2.120499849E0,-3.807699919E0,7.607500586E0
1.192340798E1,-7.611899853E0,-3.162699938E0,-2.132299900E0,8.514129029E0
1.193340798E1,-8.815799713E0,-4.100100040E0,-9.674999714E-1,9.770629515E0
1.194340798E1,-9.469799995E0,-4.689499855E0,-6.384999752E-1,1.058660489E1
1.195340798E1,-9.244599342E0,-4.758800030E0,-6.148999929E-1,1.041570433E1
1.196340798E1,-8.220600128E0,-4.445099831E0,-9.980999827E-1,9.398584071E0
1.197340798E1,-7.113299847E0,-4.186399937E0,-1.470899940E0,8.383825247E0
1.198340798E1,-6.214499950E0,-3.966499805E0,-2.078399897E0,7.659822222E0
1.199340798E1,-5.803199768E0,-3.859499931E0,-2.445099831E0,7.385890633E0
1.200340798E1,-5.948299885E0,-3.907599926E0,-2.509699821E0,7.546535755E0
1.201340798E1,-6.241299629E0,-4.062200069E0,-2.316900015E0,7.798930449E0
1.202340798E1,-6.795399666E0,-4.167699814E0,-2.257699966E0,8.285190854E0
1.203340798E1,-6.867799759E0,-4.430500031E0,-2.324599981E0,8.497044729E0
1.204340798E1,-6.236299992E0,-4.497299671E0,-2.325500011E0,8.032751224E0
1.205341110E1,-4.278100014E0,-3.969999790E0,-2.721699953E0,6.439773963E0
1.206340798E1,-1.581499934E0,-2.837499857E0,-2.900899887E0,4.355200068E0
1.207340798E1,3.280999959E-1,-1.780299902E0,-2.888999939E0,3.409316353E0
1.208340798E1,1.757099986E0,-4.657000005E-1,-2.309999943E0,2.939451749E0
1.209341110E1,3.933300018E0,1.980899930E0,-1.889999956E-2,4.403994866E0
1.210340798E1,6.782999992E0,4.009099960E0,2.962499857E0,8.417741787E0
1.211340798E1,9.857999802E0,4.612400055E0,5.800899982E0,1.233307889E1
1.212340798E1,1.266749954E1,4.570300102E0,8.284199715E0,1.581079228E1
1.213340798E1,1.470919991E1,4.766999722E0,1.013659954E1,1.848879386E1
1.214341267E1,1.699209976E1,5.522299767E0,1.134599972E1,2.116504095E1
1.215340798E1,1.847959900E1,7.145999908E0,1.236849976E1,2.335681228E1
1.216340798E1,1.962039948E1,9.007599831E0,1.307839966E1,2.524166135E1
1.217340798E1,2.010350037E1,1.009000015E1,1.238809967E1,2.567924928E1
1.218340798E1,1.884709930E1,9.525599480E0,9.766099930E0,2.326643302E1
1.219341266E1,1.537989998E1,8.585499763E0,6.610399723E0,1.881354603E1
1.220340798E1,1.074609947E1,7.826099873E0,4.269499779E0,1.396263304E1
1.221340798E1,5.936699867E0,7.328099728E0,2.407699823E0,9.733574337E0
1.222340798E1,2.366799831E0,7.080599785E0,1.291899920E0,7.576650986E0
1.223340798E1,3.432999849E0,7.290599823E0,1.325199962E0,8.166669375E0
1.224341735E1,9.895799637E0,8.776599884E0,3.148399830E0,1.359661640E1
1.225340798E1,1.375220013E1,1.023320007E1,5.139400005E0,1.789566496E1
1.226340798E1,1.366099930E1,1.033769989E1,5.763899803E0,1.807521734E1
1.227340798E1,1.003100014E1,8.774099350E0,5.264400005E0,1.432898079E1
1.228340798E1,5.029099941E0,6.614899635E0,4.068799973E0,9.252236304E0
1.229342048E1,6.761999726E-1,4.813399792E0,2.129400015E0,5.306638143E0
1.230340798E1,-2.684299946E0,3.117699862E0,9.799999744E-2,4.115230568E0
1.231340798E1,-4.072099686E0,1.259299994E0,-9.332000017E-1,4.363335257E0
1.232340798E1,-4.596399784E0,-1.750999987E-1,-1.050999999E0,4.718278498E0
1.233340798E1,-4.645999908E0,-1.487299919E0,-6.326000094E-1,4.919101439E0
1.234342048E1,-4.500199795E0,-2.688299894E0,-1.316999942E-1,5.243672320E0
1.235340798E1,-4.009900093E0,-3.742599964E0,3.653999865E-1,5.497260263E0
1.236340798E1,-3.261499882E0,-4.654699802E0,8.458999991E-1,5.746229941E0
1.237340798E1,-2.507099867E0,-5.646599770E0,1.065699935E0,6.269398301E0
1.238340798E1,-1.900699973E0,-6.939300060E0,8.533999920E-1,7.245332101E0
1.239341110E1,-1.518399954E0,-8.453100204E0,3.838000000E-1,8.596961319E0
1.240340798E1,-1.250100017E0,-1.010359955E1,-2.538000047E-1,1.018380520E1
1.241340798E1,-1.348500013E0,-1.150929928E1,-7.443999648E-1,1.161191429E1
1.242340798E1,-1.430299997E0,-1.239579964E1,-1.150799990E0,1.253099945E1
1.243340798E1,-1.729900002E0,-1.304119968E1,-1.369599938E0,1.322653572E1
1.244342048E1,-2.150899887E0,-1.365599918E1,-1.408299923E0,1.389589841E1
1.245340798E1,-2.562000036E0,-1.395160007E1,-1.578899980E0,1.427248801E1
1.246340798E1,-2.638099909E0,-1.382779980E1,-1.996099949E0,1.421801791E1
1.247340798E1,-2.583899975E0,-1.376709938E1,-2.581399918E0,1.424335599E1
1.248340798E1,-2.347899914E0,-1.388319969E1,-3.228600025E0,1.444575113E1
1.249341110E1,-1.779099941E0,-1.402670002E1,-3.909699917E0,1.466967155E1
1.250340798E1,-1.202399969E0,-1.394009972E1,-4.426399708E0,1.467532487E1
1.251340798E1,-6.225000024E-1,-1.344159985E1,-4.963399887E0,1.434222616E1
1.252340798E1,-2.782000005E-1,-1.276839924E1,-5.472599983E0,1.389455882E1
1.253340798E1,2.597000003E-1,-1.200949955E1,-5.694999695E0,1.329392888E1
1.254342048E1,1.809499979E0,-1.153450012E1,-4.719399929E0,1.259332041E1
1.255340798E1,3.509399891E0,-1.077799988E1,-3.442499876E0,1.184617974E1
1.256340798E1,4.146399975E0,-9.635299683E0,-2.771199942E0,1.084947841E1
1.257340798E1,4.283899784E0,-8.211899757E0,-2.142499924E0,9.506702946E0
1.258340798E1,4.215699673E0,-6.223599911E0,-4.219999909E-2,7.517120487E0
1.259340954E1,2.715699911E0,-3.673299789E0,2.828899860E0,5.373158454E0
1.260340798E1,-1.374000013E-1,-7.807999849E-1,5.488299847E0,5.545264879E0
1.261340798E1,-2.797099829E0,2.503099918E0,5.861899853E0,6.960685781E0
1.262340798E1,-3.162799835E0,6.025099754E0,1.540099978E0,6.976893133E0
1.263340798E1,-3.835999966E-1,8.692399979E0,-4.872299671E0,9.972174810E0
1.264340798E1,2.742899895E0,1.183409977E1,-8.578199387E0,1.487127842E1
1.265340798E1,4.218100071E0,1.549829960E1,-7.911499977E0,1.790478960E1
1.266340798E1,5.177799702E0,1.689780045E1,-5.166999817E0,1.841312458E1
1.267340798E1,5.493700027E0,1.493820000E1,-2.222199917E0,1.607074148E1
1.268340798E1,4.860300064E0,1.169489956E1,-4.196999967E-1,1.267159581E1
1.269340798E1,3.653999805E0,8.818499565E0,2.549999952E-1,9.548961941E0
1.270340798E1,2.764600039E0,6.415799618E0,7.505999804E-1,7.026300480E0
1.271340798E1,2.470599890E0,4.213900089E0,1.478199959E0,5.103517698E0
1.272340798E1,2.564100027E0,2.225699902E0,2.397099972E0,4.156252793E0
1.273340798E1,2.279999971E0,1.288999915E-1,2.862599850E0,3.661897456E0
1.274340798E1,1.437099934E0,-1.894299984E0,2.460000038E0,3.421290522E0
1.275340798E1,4.725999832E-1,-3.541599989E0,1.139199972E0,3.750207701E0
1.276340798E1,-9.919999540E-2,-4.934199810E0,-2.924999893E-1,4.943857264E0
1.277340798E1,-6.391999722E-1,-5.717999935E0,-1.141499996E0,5.865758442E0
1.278341579E1,-1.456499934E0,-6.385299683E0,-1.064199924E0,6.635206521E0
1.279340798E1,-2.708400011E0,-7.084399700E0,-3.553999960E-1,7.592789928E0
1.280340798E1,-3.734099865E0,-7.713399887E0,-2.188999951E-1,8.572511699E0
1.281340798E1,-4.507100105E0,-8.225099564E0,-1.012400031E0,9.433513026E0
1.282340798E1,-4.935400009E0,-8.500199318E0,-2.077299833E0,1.004622995E1
1.283342360E1,-5.032099724E0,-8.366499901E0,-2.949699879E0,1.019907239E1
1.284340798E1,-4.667399883E0,-8.143300056E0,-3.664399862E0,1.007600039E1
1.285340798E1,-4.184099674E0,-7.785199642E0,-4.608099937E0,9.967477544E0
1.286340798E1,-3.223899841E0,-7.487099648E0,-5.652400017E0,9.919668204E0
1.287340798E1,-2.407500029E0,-7.176300049E0,-6.289999962E0,9.841719276E0
1.288341735E1,-1.678399920E0,-6.843099594E0,-6.806200027E0,9.796397152E0
1.289340798E1,-1.294499993E0,-6.646599770E0,-7.094899654E0,9.807681675E0
1.290340798E1,-1.253399968E0,-6.660899639E0,-7.341799736E0,9.992027765E0
1.291340798E1,-1.443699956E0,-6.912600040E0,-7.513999939E0,1.031157136E1
1.292340954E1,-1.711300015E0,-7.274299622E0,-7.485299587E0,1.057703610E1
1.293342048E1,-1.982399940E0,-7.657599926E0,-7.137799740E0,1.065443247E1
1.294340798E1,-2.255800009E0,-8.124599457E0,-6.524999619E0,1.066177143E1
1.295340798E1,-2.780900002E0,-8.121099472E0,-6.150699615E0,1.056014996E1
1.296340798E1,-3.263000011E0,-7.728299618E0,-6.433799744E0,1.057201793E1
1.297340798E1,-3.061300039E0,-7.343299866E0,-6.820499897E0,1.047925712E1
1.298341110E1,-2.381500006E0,-6.889799595E0,-7.160500050E0,1.021829935E1
1.299340798E1,-9.952999949E-1,-5.918999672E0,-7.606400013E0,9.689298238E0
1.300340798E1,5.673999786E-1,-4.266999722E0,-7.376899719E0,8.540953040E0
1.301340798E1,1.925599933E0,-2.210099936E0,-5.650799751E0,6.365847521E0
1.302340798E1,2.862999916E0,2.989999950E-2,-3.809700012E0,4.765655958E0
1.303341110E1,3.391099930E0,2.424299955E0,-1.916899920E0,4.588168949E0
1.304340798E1,4.446499825E0,3.986299992E0,1.377499938E0,6.128576865E0
1.305340798E1,4.439699650E0,4.917599678E0,5.676499844E0,8.724469614E0
1.306340798E1,2.657500029E0,4.407499790E0,8.399899483E0,9.851226935E0
1.307340798E1,-2.522999942E-1,3.074399948E0,1.145059967E1,1.185882891E1
1.308341110E1,-4.536099911E0,1.869599938E0,1.576779938E1,1.651348248E1
1.309340798E1,-7.750499725E0,2.685899973E0,1.853820038E1,2.027188146E1
1.310340798E1,-7.546700001E0,4.039799690E0,1.812649918E1,2.004601294E1
1.311340798E1,-5.586599827E0,5.240399837E0,1.601389885E1,1.775153076E1
1.312340798E1,-2.648699999E0,5.807699680E0,1.431499958E1,1.567367858E1
1.313340798E1,-1.300499916E0,5.624499798E0,1.251119995E1,1.377883965E1
1.314340798E1,-1.518199921E0,4.773399830E0,1.116029930E1,1.223284748E1
1.315340798E1,-8.017999530E-1,3.800099850E0,1.439309978E1,1.490788259E1
1.316340798E1,1.050199986E0,3.497499943E0,1.872430038E1,1.907707658E1
1.317340798E1,4.733299732E0,4.243799686E0,2.186809921E1,2.277339951E1
1.318342204E1,7.941399574E0,5.251199722E0,2.095719910E1,2.301836484E1
1.319340798E1,8.041899681E0,5.210199833E0,1.627089882E1,1.888280914E1
1.320340798E1,6.057799816E0,4.648200035E0,1.083399963E1,1.325436721E1
1.321340798E1,3.936999798E0,4.084300041E0,5.787699699E0,8.104254564E0
1.322340798E1,3.155400038E0,3.440299988E0,2.097800016E0,5.117907611E0
1.323340954E1,2.985299826E0,3.062899828E0,-7.599999756E-2,4.277750157E0
1.324340798E1,3.055899858E0,2.943699837E0,-1.254699945E0,4.424721983E0
1.325340798E1,2.779700041E0,2.659999847E0,-1.910399914E0,4.295574390E0
1.326340798E1,1.939799905E0,1.911899924E0,-1.972299933E0,3.362759584E0
1.327340798E1,5.019999743E-1,1.019799948E0,-1.200299978E0,1.653092842E0
1.328341892E1,-9.697999954E-1,-4.699999839E-2,-6.291999817E-1,1.156984722E0
1.329340798E1,-2.114099979E0,-1.058799982E0,-1.748499990E0,2.940702015E0
1.330340798E1,-2.840999842E0,-1.552999973E0,-3.185299873E0,4.541940588E0
1.331340798E1,-2.756500006E0,-2.106600046E0,-5.335999966E0,6.364664301E0
1.332340798E1,-2.550199986E0,-2.331500053E0,-7.710499763E0,8.449332463E0
1.333341110E1,-2.207200050E0,-2.405799866E0,-9.558400154E0,1.010062466E1
1.334340798E1,-1.840799928E0,-2.291399956E0,-1.061339951E1,1.101287007E1
1.335340798E1,-1.225999951E0,-2.256799936E0,-1.091659927E1,1.121464942E1
1.336340798E1,-6.504999995E-1,-2.400099993E0,-1.058850002E1,1.087657864E1
1.337340798E1,-4.919999838E-1,-2.599799871E0,-9.905799866E0,1.025309194E1
1.338341267E1,-5.917999744E-1,-2.740200043E0,-9.497300148E0,9.902405444E0
1.339340798E1,-7.224000096E-1,-2.866499901E0,-9.185599327E0,9.649555350E0
1.340340798E1,-7.787999511E-1,-3.053400040E0,-8.880899429E0,9.423383460E0
1.341340798E1,-1.035899997E0,-3.519699812E0,-9.278499603E0,9.977571371E0
1.342340798E1,-1.455199957E0,-3.792699814E0,-1.011380005E1,1.089913438E1
1.343340798E1,-1.235199928E0,-3.767899990E0,-1.077019978E1,1.147693306E1
1.344340798E1,-3.828999996E-1,-3.720399857E0,-1.112300014E1,1.173495291E1
1.345340798E1,2.651999891E-1,-3.415499926E0,-1.054839993E1,1.109074893E1
1.346340798E1,6.678000093E-1,-2.963999987E0,-8.823900223E0,9.332334537E0
1.347340798E1,1.144400001E0,-2.855899811E0,-5.823299885E0,6.586094187E0
1.348340798E1,9.304999709E-1,-2.933300018E0,-2.623299837E0,4.043733575E0
1.349340798E1,-2.080000006E-2,-2.849400043E0,5.163999796E-1,2.895890569E0
1.350340798E1,-1.547199965E0,-2.927099943E0,2.651000023E0,4.241408130E0
1.351340798E1,-3.068499804E0,-2.508599997E0,5.264999866E0,6.590067419E0
1.352340798E1,-4.106599808E0,-1.401499987E0,8.007999420E0,9.108041442E0
1.353340798E1,-4.015100002E0,2.459999919E-2,1.037409973E1,1.112400910E1
1.354340798E1,-3.383999825E0,1.615700006E0,1.239809990E1,1.295279207E1
1.355340798E1,-1.590699911E0,3.505299807E0,1.320249939E1,1.375221593E1
1.356340798E1,6.013000011E-1,5.386600018E0,1.225739956E1,1.340227090E1
1.357340798E1,1.525099993E0,7.152400017E0,1.022189999E1,1.256861151E1
1.358340798E1,1.597299933E0,8.489399910E0,8.768199921E0,1.230863956E1
1.359340798E1,9.388999939E-1,9.015399933E0,8.653900146E0,1.253191753E1
1.360340798E1,3.163000047E-1,8.829099655E0,9.509300232E0,1.297997832E1
1.361340798E1,-2.301999927E-1,8.440599442E0,1.069449997E1,1.362604273E1
1.362341266E1,-8.244999647E-1,7.979099751E0,1.102269936E1,1.363252486E1
1.363340798E1,-7.558000088E-1,7.209499836E0,1.042640018E1,1.269873783E1
1.364340954E1,3.360999823E-1,5.681399822E0,8.821000099E0,1.049768117E1
1.365340798E1,1.540599942E0,4.363599777E0,7.187699795E0,8.548536690E0
1.366340798E1,1.867100000E0,3.474499941E0,6.425600052E0,7.539664998E0
1.367340798E1,2.254899979E0,2.349400043E0,5.813600063E0,6.663497593E0
1.368340798E1,2.222100019E0,5.884999633E-1,4.726399899E0,5.255750822E0
1.369340798E1,1.523399949E0,-1.004500031E0,3.338899851E0,3.804999334E0
1.370340798E1,3.901000023E-1,-2.123499870E0,1.855299950E0,2.846676591E0
1.371340798E1,-4.661999941E-1,-2.768100023E0,4.820999801E-1,2.848181975E0
1.372342204E1,-6.579999924E-1,-2.960899830E0,-1.092000008E0,3.223717700E0
1.373340798E1,-4.126999974E-1,-2.687000036E0,-3.001299858E0,4.049455682E0
1.374340798E1,-1.414999962E-1,-2.437999964E0,-5.480000019E0,5.999522171E0
1.375340798E1,2.070000023E-2,-2.388700008E0,-7.773099899E0,8.131875446E0
1.376340798E1,8.579999954E-2,-2.544299841E0,-9.372599602E0,9.712180322E0
1.377341892E1,-7.710000128E-2,-2.820999861E0,-1.005639935E1,1.044486249E1
1.378340798E1,-5.803999901E-1,-3.313999891E0,-1.020949936E1,1.074957379E1
1.379340798E1,-9.020999670E-1,-4.042799950E0,-1.004829979E1,1.086859441E1
1.380340798E1,-9.452999830E-1,-4.527499676E0,-9.239699364E0,1.033266131E1
1.381340798E1,-8.356999755E-1,-4.811500072E0,-8.550399780E0,9.846738739E0
1.382341110E1,-7.102999687E-1,-4.920000076E0,-8.332799911E0,9.702910963E0
1.383340798E1,-3.448999822E-1,-4.921700001E0,-8.426899910E0,9.764974603E0
1.384340798E1,1.808999926E-1,-5.017099857E0,-8.752599716E0,1.009019413E1
1.385340798E1,9.278999567E-1,-5.174299717E0,-9.321299553E0,1.070144856E1
1.386340798E1,1.510699987E0,-5.213900089E0,-9.810899734E0,1.121252524E1
1.387341579E1,1.761099935E0,-5.289599895E0,-1.002719975E1,1.147284075E1
1.388340798E1,1.698499918E0,-5.438499928E0,-9.902999878E0,1.142504223E1
1.389340798E1,1.450399995E0,-5.630499840E0,-9.576199532E0,1.120311502E1
1.390340798E1,1.166199923E0,-5.934099674E0,-9.144700050E0,1.096353502E1
1.391340798E1,1.276600003E0,-6.290999889E0,-8.657499313E0,1.077769370E1
1.392341266E1,1.303099990E0,-6.536399841E0,-8.299399376E0,1.064437046E1
1.393341110E1,1.403199911E0,-6.721099854E0,-7.863499641E0,1.043919441E1
1.394340798E1,1.524299979E0,-7.012300014E0,-7.320199966E0,1.025091067E1
1.395340798E1,1.849999905E0,-7.006399632E0,-6.484499931E0,9.724241606E0
1.396340798E1,2.299900055E0,-6.249399662E0,-4.574500084E0,8.079021439E0
1.397342048E1,2.853099823E0,-4.800399780E0,-1.660099983E0,5.825800254E0
1.398340798E1,3.376999855E0,-3.096599817E0,1.684199929E0,4.881555884E0
1.399340798E1,3.650799990E0,-1.056699991E0,5.738800049E0,6.883224639E0
1.400340798E1,3.187899828E0,9.605999589E-1,9.812099457E0,1.036159994E1
1.401340798E1,7.498999834E-1,2.233899832E0,1.229119968E1,1.251504088E1
1.402342048E1,-3.224999905E0,2.728999853E0,1.308229923E1,1.374753133E1
1.403340798E1,-7.385299683E0,3.919600010E0,1.305569935E1,1.550345771E1
1.404340798E1,-9.321800232E0,6.740499973E0,1.213929939E1,1.672402132E1
1.405340798E1,-8.715899467E0,1.022209930E1,1.037169933E1,1.697145736E1
1.406340798E1,-5.939099789E0,1.388429928E1,7.726799965E0,1.696319871E1
1.407341892E1,-3.492899895E0,1.732769966E1,5.756700039E0,1.859002745E1
1.408340798E1,-2.884599924E0,1.970769882E1,5.761899948E0,2.073436280E1
1.409340798E1,-3.433300018E0,1.915639877E1,7.376499653E0,2.081268628E1
1.410340798E1,-3.971199989E0,1.630099869E1,9.138699532E0,1.910520392E1
1.411340798E1,-3.632499933E0,1.285719967E1,9.741799355E0,1.653497184E1
1.412341735E1,-2.409100056E0,9.680600166E0,9.630899429E0,1.386621817E1
1.413340798E1,-1.169000030E0,6.345499992E0,9.760899544E0,1.170073037E1
1.414340798E1,-4.244000018E-1,3.633099794E0,1.033020020E1,1.095867536E1
1.415340798E1,2.256999910E-1,1.171100020E0,1.017980003E1,1.024942654E1
1.416340798E1,8.048999906E-1,-1.113600016E0,8.574899673E0,8.684288883E0
1.417341423E1,1.134999990E0,-3.267499924E0,5.881700039E0,6.823428469E0
1.418340798E1,9.057999849E-1,-4.618700027E0,2.752399921E0,5.452391116E0
1.419340798E1,3.270999789E-1,-5.392399788E0,1.013999954E-1,5.403263072E0
1.420340798E1,-4.109999910E-2,-5.954299927E0,-1.928799987E0,6.259045152E0
1.421340798E1,-1.188999936E-1,-6.260999680E0,-3.370499849E0,7.111576719E0
1.422340954E1,8.349999785E-2,-6.499399662E0,-4.497799873E0,7.904389408E0
1.423340798E1,2.635999918E-1,-6.653199673E0,-5.475100040E0,8.620398558E0
1.424340798E1,3.989999890E-1,-6.707599640E0,-6.348399639E0,9.244093893E0
1.425340798E1,5.509999990E-1,-6.705999851E0,-7.066499710E0,9.757533149E0
1.426340798E1,6.635999680E-1,-6.691499710E0,-7.764499664E0,1.027151344E1
1.427341892E1,8.102999926E-1,-6.696199894E0,-8.352499962E0,1.073591797E1
1.428340798E1,7.929999828E-1,-6.583899975E0,-8.810299873E0,1.102714703E1
1.429340798E1,7.008999586E-1,-6.315099716E0,-9.293999672E0,1.125833802E1
1.430340798E1,7.768999934E-1,-6.168799877E0,-9.816100121E0,1.161953042E1
1.431340798E1,8.797999620E-1,-6.161299706E0,-1.029679966E1,1.203161441E1
1.432340798E1,1.139699936E0,-6.034399986E0,-1.074879932E1,1.237940168E1
1.433340798E1,1.125999928E0,-5.881000042E0,-1.069180012E1,1.225433095E1
1.434340798E1,1.036299944E0,-5.741499901E0,-1.056649971E1,1.207019697E1
1.435340798E1,1.146000028E0,-5.506499767E0,-1.051169968E1,1.192185748E1
1.436342360E1,1.627499938E0,-5.137599945E0,-1.028269958E1,1.160937552E1
1.437340798E1,2.431299925E0,-4.860199928E0,-9.968099594E0,1.135322739E1
1.438340798E1,3.169299841E0,-4.692399979E0,-9.137899399E0,1.075008300E1
1.439340798E1,3.079799891E0,-4.644700050E0,-7.801099777E0,9.587260488E0
1.440340798E1,2.381500006E0,-4.897299767E0,-6.288099766E0,8.318370390E0
1.441341735E1,1.641499996E0,-4.928199768E0,-4.887099743E0,7.131999656E0
1.442340954E1,1.644500017E0,-4.587100029E0,-3.269899845E0,5.868399439E0
1.443340798E1,2.024800062E0,-3.838899851E0,-1.639199972E0,4.639390467E0
1.444340798E1,2.058599949E0,-2.608799934E0,3.114999831E-1,3.337769178E0
1.445340798E1,1.609399915E0,-1.009599924E0,2.605299950E0,3.224445366E0
1.446342048E1,9.080999494E-1,6.310999990E-1,4.921199799E0,5.043921112E0
1.447340798E1,1.173999980E-1,2.440299988E0,7.064199924E0,7.474741960E0
1.448340798E1,-6.995999813E-1,3.986599922E0,8.995699883E0,9.864331475E0
1.449340798E1,-2.330899954E0,5.598999977E0,1.088630009E1,1.246167825E1
1.450340798E1,-3.822599888E0,7.947399616E0,1.180159950E1,1.473265697E1
1.451340954E1,-3.501099825E0,1.011769962E1,1.013770008E1,1.474443992E1
1.452340798E1,-2.054399967E0,1.184929943E1,6.561699867E0,1.369972122E1
1.453340798E1,-8.780999780E-1,1.348819923E1,3.114599943E0,1.387095206E1
1.454340798E1,-3.750999868E-1,1.514939976E1,3.232100010E0,1.549488572E1
1.455340798E1,-4.481000006E-1,1.599379921E1,5.956299782E0,1.707278284E1
1.456341892E1,-1.036399961E0,1.596529961E1,7.458399773E0,1.765198696E1
1.457340798E1,-1.473299980E0,1.562059975E1,7.906399727E0,1.756943101E1
1.458340798E1,-1.134299994E0,1.468179989E1,8.647500038E0,1.707691838E1
1.459340798E1,-3.091999888E-1,1.247139931E1,9.065199852E0,1.542106526E1
1.460340798E1,5.971999764E-1,9.581399918E0,9.244500160E0,1.332743994E1
1.461340798E1,1.954099894E0,7.127699852E0,1.048379993E1,1.282702899E1
1.462340798E1,4.011399746E0,5.478399754E0,1.173969936E1,1.356188530E1
1.463340798E1,6.079099655E0,3.943099976E0,1.206949997E1,1.407751113E1
1.464340798E1,6.130499840E0,2.011699915E0,1.067029953E1,1.246937275E1
1.465340798E1,4.308700085E0,-2.190999985E-1,7.663899899E0,8.794786119E0
1.466341267E1,1.979299903E0,-2.126699924E0,4.379399776E0,5.255437477E0
1.467340798E1,-3.202999830E-1,-3.791499853E0,1.029899955E0,3.941923025E0
1.468340798E1,-1.825599909E0,-5.203899860E0,-2.172399998E0,5.927285258E0
1.469340798E1,-2.511199951E0,-6.167899609E0,-4.831500053E0,8.227545414E0
1.470340798E1,-2.819499969E0,-6.616299629E0,-6.580299854E0,9.748094533E0
1.471340954E1,-2.930899858E0,-6.770999908E0,-7.441999912E0,1.047950268E1
1.472340798E1,-2.793599844E0,-6.925799847E0,-7.957299709E0,1.091281459E1
1.473340798E1,-2.825399876E0,-7.289199829E0,-8.124799728E0,1.127509154E1
1.474340798E1,-2.846099854E0,-7.766799927E0,-8.128099442E0,1.159695934E1
1.475340798E1,-2.973999977E0,-8.116600037E0,-8.159899712E0,1.188729723E1
1.476341110E1,-2.849799871E0,-8.390099525E0,-8.177700043E0,1.205777373E1
1.477340798E1,-2.417700052E0,-8.646399498E0,-8.190299988E0,1.215263394E1
1.478340798E1,-1.569700003E0,-8.795599937E0,-8.336699486E0,1.221994659E1
1.479340798E1,-1.046000004E0,-8.854299545E0,-8.425000191E0,1.226675852E1
1.480340798E1,-8.883000016E-1,-8.906499863E0,-8.118299484E0,1.208393989E1
1.481341892E1,-1.202299953E0,-8.890500069E0,-7.251699924E0,1.153575608E1
1.482340798E1,-1.653999925E0,-8.689899445E0,-6.518099785E0,1.098797947E1
1.483340798E1,-1.399399996E0,-8.411899567E0,-6.117300034E0,1.049474794E1
1.484340798E1,-1.001600027E0,-8.317299843E0,-5.622200012E0,1.008909373E1
1.485340798E1,-8.363999724E-1,-8.144899368E0,-5.174900055E0,9.685997172E0
1.486341423E1,-2.908000052E-1,-7.388399601E0,-4.897699833E0,8.869074188E0
1.487340798E1,4.794999957E-1,-6.089299679E0,-4.737099648E0,7.729786795E0
1.488340798E1,1.291800022E0,-4.700299740E0,-4.454899788E0,6.603612425E0
1.489340798E1,2.335000038E0,-3.545099974E0,-3.814999819E0,5.707379663E0
1.490340798E1,3.105999947E0,-2.830099821E0,-2.983799934E0,5.153616469E0
1.491340798E1,2.691299915E0,-2.866899967E0,-1.699699998E0,4.283828981E0
1.492340798E1,1.693499923E0,-3.123800039E0,-3.773999810E-1,3.573303712E0
1.493340798E1,5.299999714E-1,-3.022099972E0,3.075999916E-1,3.083602757E0
1.494340798E1,3.039999865E-2,-2.188999891E0,5.835999846E-1,2.265664059E0
1.495340798E1,-3.979999945E-2,-7.021999955E-1,6.990000010E-1,9.915996546E-1
1.496340798E1,9.370999932E-1,1.439499974E0,6.556000113E-1,1.838512428E0
1.497340798E1,2.435899973E0,3.875399828E0,2.669000030E-1,4.585146466E0
1.498340798E1,3.235599995E0,6.047800064E0,-8.507999778E-1,6.911501540E0
1.499340798E1,3.334100008E0,7.830499649E0,-3.044399977E0,9.038878185E0
1.500342204E1,3.093699932E0,8.815799713E0,-5.656499863E0,1.092178074E1
1.501340798E1,2.621999979E0,8.831899643E0,-8.041500092E0,1.222877994E1
1.502340798E1,1.373399973E0,8.659899712E0,-9.351900101E0,1.281944328E1
1.503340798E1,-3.797999918E-1,8.765399933E0,-9.332399368E0,1.280898755E1
1.504340798E1,-1.509599924E0,9.003199577E0,-7.783799648E0,1.199683423E1
1.505341892E1,-1.206900001E0,8.533999443E0,-5.315199852E0,1.012606061E1
1.506340798E1,-3.240000010E-1,7.275699615E0,-2.750900030E0,7.785128892E0
1.507340798E1,-3.731999993E-1,5.311800003E0,-1.686999917E0,5.585737752E0
1.508340798E1,-7.166999578E-1,1.935699940E0,-3.144399881E0,3.761361948E0
1.509340798E1,-4.561999738E-1,-1.587000012E0,-4.973999977E0,5.240931523E0
1.510340798E1,-3.871999979E-1,-4.904299736E0,-5.999300003E0,7.758458627E0
1.511340798E1,-4.706999958E-1,-8.264100075E0,-6.738100052E0,1.067327976E1
1.512340798E1,-2.762999833E-1,-1.191049957E1,-7.081299782E0,1.385933434E1
1.513340798E1,1.850000024E-2,-1.547289944E1,-6.609600067E0,1.682550957E1
1.514340798E1,3.367999792E-1,-1.787279892E1,-4.515100002E0,1.843736704E1
1.515341110E1,1.932799935E0,-1.871069908E1,-2.773999870E-1,1.881230785E1
1.516341579E1,4.697599888E0,-1.779850006E1,4.943399906E0,1.906020073E1
1.517340798E1,7.572499752E0,-1.517840004E1,9.822299957E0,1.960112641E1
1.518340798E1,9.088500023E0,-1.181429958E1,1.262419987E1,1.953327749E1
1.519340798E1,8.069199562E0,-9.073800087E0,1.307539940E1,1.784409984E1
1.520342048E1,5.651499748E0,-7.365499973E0,1.137979984E1,1.468638430E1
1.521340798E1,3.518999815E0,-6.550399780E0,8.485300064E0,1.128234967E1
1.522340798E1,1.349399924E0,-6.306299686E0,4.582999706E0,7.911648513E0
1.523340798E1,-4.101999998E-1,-6.400199890E0,1.122699976E0,6.510858462E0
1.524340798E1,-1.745499969E0,-6.660899639E0,-1.531999946E0,7.054174507E0
1.525341735E1,-3.031199932E0,-6.870100021E0,-3.181499958E0,8.155267581E0
1.526340798E1,-4.376899719E0,-6.810999870E0,-3.817099810E0,8.950822384E0
1.527340798E1,-5.685100079E0,-6.468199730E0,-3.441399813E0,9.273683374E0
1.528340798E1,-7.140299797E0,-6.156899929E0,-2.703299999E0,9.808115457E0
1.529340798E1,-8.446499825E0,-6.171799660E0,-2.382099867E0,1.072888019E1
1.530341579E1,-9.044799805E0,-6.565700054E0,-2.201299906E0,1.139133627E1
1.531340798E1,-9.104800224E0,-6.944799900E0,-1.192799926E0,1.151305365E1
1.532340798E1,-8.081299782E0,-7.071199894E0,-1.191999987E-1,1.073887716E1
1.533340798E1,-5.873099804E0,-6.328199863E0,8.368999958E-1,8.674088795E0
1.534340798E1,-4.770699978E0,-5.334399700E0,1.450899959E0,7.302089367E0
1.535340954E1,-4.839200020E0,-4.486799717E0,1.330399990E0,6.731953109E0
1.536340798E1,-4.583499908E0,-3.796499968E0,8.786000013E-1,6.016130100E0
1.537340798E1,-3.170300007E0,-3.064100027E0,1.077199936E0,4.538708055E0
1.538340798E1,-2.227299929E0,-2.285699844E0,1.513499975E0,3.532134047E0
1.539340798E1,-2.459599972E0,-2.170899868E0,1.031499982E0,3.438957759E0
1.540341892E1,-2.900799990E0,-3.442699909E0,-2.919999883E-2,4.501963559E0
1.541340798E1,-2.784099817E0,-5.287999630E0,-9.271000028E-1,6.047616580E0
1.542340798E1,-1.541000009E-1,-6.740299702E0,-8.522999883E-1,6.795719399E0
1.543340798E1,4.203499794E0,-7.921000004E0,2.879000008E-1,8.971874831E0
1.544340798E1,9.182799339E0,-9.073200226E0,2.697799921E0,1.318805863E1
1.545341579E1,1.417989922E1,-9.599899292E0,5.788599968E0,1.807582634E1
1.546340798E1,1.787859917E1,-9.906899452E0,7.996500015E0,2.194846185E1
1.547340798E1,2.041489983E1,-1.024230003E1,7.928999901E0,2.417730101E1
1.548340798E1,2.234049988E1,-1.053289986E1,6.804899693E0,2.561926178E1
1.549340798E1,2.351469994E1,-1.001459980E1,6.913599968E0,2.647699354E1
1.550341266E1,2.360989952E1,-8.516300201E0,7.723599911E0,2.626040213E1
1.551340798E1,2.315099907E1,-7.974499702E0,8.930600166E0,2.606371084E1
1.552340798E1,2.229019928E1,-8.709799767E0,1.034549999E1,2.607188075E1
1.553340798E1,2.166419983E1,-8.960800171E0,1.099860001E1,2.589599768E1
1.554340798E1,2.060639954E1,-8.564199448E0,1.153509998E1,2.512026564E1
1.555341892E1,1.924499893E1,-7.453899860E0,1.037510014E1,2.309920583E1
1.556340798E1,1.738290024E1,-5.520099640E0,8.038800240E0,1.993135796E1
1.557340798E1,1.523189926E1,-3.424399853E0,5.792399883E0,1.665200186E1
1.558340798E1,1.290380001E1,-1.674899936E0,3.550699949E0,1.348780244E1
1.559340798E1,1.102050018E1,-3.949999809E-1,1.991299987E0,1.120592365E1
1.560341110E1,9.047399521E0,8.718000054E-1,2.066299915E0,9.321216052E0
1.561340798E1,6.565999985E0,2.511499882E0,3.098999977E0,7.682694079E0
1.562340798E1,3.786099911E0,3.990599871E0,4.653899670E0,7.205430036E0
1.563340798E1,4.431999922E-1,5.333899975E0,6.489599705E0,8.412004488E0
1.564340798E1,-2.564199924E0,6.476399899E0,7.656999588E0,1.035125691E1
1.565341735E1,-4.872999668E0,7.307399750E0,8.147799492E0,1.198043628E1
1.566340798E1,-5.990599632E0,7.726500034E0,7.901399612E0,1.257052913E1
1.567340798E1,-6.043399811E0,7.952499866E0,6.917500019E0,1.214976304E1
1.568340798E1,-5.408999920E0,8.194700241E0,5.305900097E0,1.116077811E1
1.569340798E1,-4.550799847E0,8.534799576E0,3.332299948E0,1.023019091E1
1.570341266E1,-3.445599794E0,8.923199654E0,1.429299951E0,9.671532885E0
1.571340798E1,-2.622099876E0,9.239999771E0,-1.067999974E-1,9.605436470E0
1.572340798E1,-2.305899858E0,9.435500145E0,-1.672099948E0,9.856051713E0
1.573340798E1,-2.405400038E0,9.375999451E0,-2.819999933E0,1.008204913E1
1.574340798E1,-2.794100046E0,9.013099670E0,-3.211299896E0,9.967718283E0
1.575341110E1,-3.380999804E0,8.585999489E0,-3.049999952E0,9.718695725E0
1.576340798E1,-3.875999928E0,8.238299370E0,-2.648799896E0,9.482040542E0
1.577340798E1,-4.156899929E0,8.131699562E0,-1.869499922E0,9.321983949E0
1.578340798E1,-4.398999691E0,8.198999405E0,-8.858999610E-1,9.346636200E0
1.579340798E1,-4.613199711E0,8.243499756E0,-4.944999814E-1,9.459462460E0
1.580341110E1,-4.840199947E0,8.362599373E0,-5.047000051E-1,9.675501325E0
1.581340798E1,-4.926499844E0,8.500599861E0,-5.507000089E-1,9.840420174E0
1.582340798E1,-4.903199673E0,8.518499374E0,-4.884999990E-1,9.840977130E0
1.583340798E1,-4.819299698E0,8.454799652E0,-4.639999941E-2,9.731980256E0
1.584340798E1,-4.541999817E0,8.307399750E0,7.389999628E-1,9.496777026E0
1.585340798E1,-4.345399857E0,7.959799767E0,1.480199933E0,9.188683479E0
1.586340798E1,-3.943599939E0,7.247900009E0,2.050299883E0,8.502221159E0
1.587340798E1,-3.352599859E0,6.303899765E0,2.306299925E0,7.503205809E0
1.588340798E1,-2.520699978E0,5.268499851E0,2.056099892E0,6.191814421E0
1.589340798E1,-1.643999934E0,4.083899975E0,1.346499920E0,4.603698168E0
1.590340798E1,-5.250999928E-1,2.358000040E0,4.867999852E-1,2.464319057E0
1.591340798E1,1.084399939E0,1.600999981E-1,-3.449999988E-1,1.149165017E0
1.592340954E1,3.758399963E0,-2.048199892E0,-1.411999911E-1,4.282596236E0
1.593340798E1,6.991399765E0,-4.090499878E0,1.495299935E0,8.236976498E0
1.594341110E1,9.857099533E0,-6.412499905E0,3.597999811E0,1.229748628E1
1.595340798E1,1.304229927E1,-9.429599762E0,4.992799759E0,1.685072614E1
1.596340798E1,1.615320015E1,-1.271409988E1,5.471899986E0,2.127242112E1
1.597340798E1,1.785429955E1,-1.534179974E1,5.523599625E0,2.417968123E1
1.598340798E1,1.728470039E1,-1.615060043E1,4.993299961E0,2.417717532E1
1.599342360E1,1.504819965E1,-1.514099979E1,3.708099842E0,2.166675315E1
1.600340798E1,1.259899998E1,-1.326399994E1,3.060899973E0,1.854825068E1
1.601340798E1,1.054860020E1,-1.179509926E1,3.370100021E0,1.617884133E1
1.602340798E1,9.276499748E0,-1.141639996E1,4.235300064E0,1.530769095E1
1.603340798E1,9.011599541E0,-1.127299976E1,4.874599934E0,1.523322600E1
1.604341266E1,9.307399750E0,-1.034229946E1,4.847599983E0,1.473397685E1
1.605340798E1,1.031549931E1,-8.503299713E0,4.103499889E0,1.398407463E1
1.606340798E1,1.154759979E1,-5.940199852E0,3.001999855E0,1.332835468E1
1.607340798E1,1.143979931E1,-3.456899881E0,1.360499978E0,1.202788947E1
1.608340798E1,9.584699631E0,-1.357900023E0,-6.197999716E-1,9.700232548E0
1.609341423E1,6.432199955E0,1.777999997E-1,-1.912799954E0,6.712943674E0
1.610340798E1,3.049199820E0,1.200799942E0,-2.329399824E0,4.020652134E0
1.611340798E1,-2.647999823E-1,1.847299933E0,-1.386699915E0,2.324988759E0
1.612340798E1,-3.013399839E0,2.463199854E0,2.173999995E-1,3.898101445E0
1.613340798E1,-5.497299671E0,3.473799944E0,1.782099962E0,6.742660454E0
1.614342048E1,-7.677099705E0,4.568200111E0,2.418599844E0,9.255049289E0
1.615340798E1,-9.454699516E0,5.581199646E0,1.830500007E0,1.113067216E1
1.616340798E1,-1.049749947E1,6.512300014E0,4.603999853E-1,1.236201904E1
1.617340798E1,-1.097709942E1,7.286599636E0,-1.376599908E0,1.324712321E1
1.618340798E1,-1.091309929E1,7.981799603E0,-3.203399897E0,1.389484192E1
1.619341423E1,-1.018610001E1,8.453299522E0,-4.771199703E0,1.407051004E1
1.620340798E1,-9.679900169E0,8.279799461E0,-5.700299740E0,1.395524860E1
1.621340798E1,-9.245599747E0,7.719899654E0,-5.772699833E0,1.335672223E1
1.622340798E1,-8.848299980E0,7.064899921E0,-5.129199982E0,1.243036266E1
1.623340798E1,-8.565899849E0,6.620100021E0,-3.993999958E0,1.153916809E1
1.624340954E1,-8.406000137E0,6.318899632E0,-2.674599886E0,1.085093615E1
1.625340798E1,-8.238200188E0,6.144499779E0,-1.735599995E0,1.042281762E1
1.626340798E1,-7.991299629E0,6.020999908E0,-1.543200016E0,1.012397036E1
1.627340798E1,-7.585799694E0,6.155399799E0,-1.580799937E0,9.896071550E0
1.628340798E1,-7.121500015E0,6.476999760E0,-1.600299954E0,9.758496211E0
1.629341423E1,-6.730399609E0,6.754699707E0,-1.816299915E0,9.706863160E0
1.630340798E1,-6.446300030E0,7.022799969E0,-1.823499918E0,9.705650696E0
1.631340642E1,-6.201799870E0,6.849199772E0,-1.672399998E0,9.389929760E0
1.632340798E1,-6.346999645E0,6.811999798E0,-6.376000047E-1,9.332431597E0
1.633340798E1,-7.250099659E0,6.368899822E0,3.382999897E-1,9.656152282E0
1.634341579E1,-8.041899681E0,5.595200062E0,3.799999952E-1,9.804224304E0
1.635340798E1,-8.400400162E0,4.363100052E0,-9.579999745E-2,9.466390156E0
1.636340798E1,-8.533599854E0,2.572799921E0,-7.403999567E-1,8.943702700E0
1.637340798E1,-7.695999622E0,-4.030999839E-1,-2.046700001E0,7.973699309E0
1.638340798E1,-4.629399776E0,-4.043600082E0,-2.938699961E0,6.813075765E0
1.639341423E1,1.277899981E0,-7.936499596E0,-3.193599939E0,8.649863280E0
1.640340798E1,8.809199333E0,-1.176410007E1,-2.270599842E0,1.487116899E1
1.641340798E1,1.654579926E1,-1.618179893E1,-1.400099993E0,2.318565008E1
1.642340954E1,2.310319901E1,-2.143299866E1,-2.187999964E0,3.158984931E1
1.643340798E1,2.643050003E1,-2.474259949E1,-2.942399979E0,3.632389405E1
1.644341579E1,2.486800003E1,-2.378660011E1,-3.547199965E0,3.459483196E1
1.645340798E1,1.969859886E1,-1.761159897E1,-3.174000025E0,2.661348327E1
1.646340798E1,1.542339993E1,-1.161810017E1,-2.033699989E0,1.941642223E1
1.647340798E1,1.319129944E1,-9.741399765E0,7.063999772E-1,1.641353866E1
1.648340798E1,1.168169975E1,-1.150399971E1,4.985199928E0,1.713640385E1
1.649340798E1,9.462299347E0,-1.461849976E1,7.769299984E0,1.906823710E1
1.650340798E1,6.068500042E0,-1.588169956E1,7.989899635E0,1.878546166E1
1.651340798E1,3.583699942E0,-1.547569942E1,5.757599831E0,1.689645329E1
1.652340798E1,3.128499985E0,-1.404489994E1,1.696499944E0,1.448878320E1
1.653340798E1,1.575399995E0,-1.223889923E1,-2.179699898E0,1.253090704E1
1.654340798E1,-1.402799964E0,-9.942799568E0,-4.604799747E0,1.104677744E1
1.655340798E1,-4.382999897E0,-6.973399639E0,-4.546400070E0,9.407908600E0
1.656340798E1,-6.162699699E0,-3.389599800E0,-2.484599829E0,7.459322402E0
1.657340798E1,-6.282499790E0,2.979999967E-2,-2.201000005E-1,6.286424712E0
1.658340798E1,-5.653399944E0,3.484999895E0,2.556200027E0,7.116200797E0
1.659340798E1,-5.497200012E0,6.731799603E0,4.771199703E0,9.914669963E0
1.660340798E1,-5.396199703E0,9.273599625E0,5.786200047E0,1.219010797E1
1.661340798E1,-5.515100002E0,1.136279964E1,6.364599705E0,1.414346751E1
1.662340798E1,-5.239099979E0,1.275389957E1,5.957499981E0,1.502005090E1
1.663340798E1,-5.066099644E0,1.333579922E1,4.287499905E0,1.489602503E1
