"Time (s)","Linear Acceleration x (m/s^2)","Linear Acceleration y (m/s^2)","Linear Acceleration z (m/s^2)","Absolute acceleration (m/s^2)"
5.261760000E-4,-4.145999849E-1,7.608899593E0,-2.810299873E0,8.121885960E0
1.052930100E-2,-1.179999951E-2,-1.939999908E-1,1.489999983E-2,1.949288240E-1
2.052617600E-2,9.209999442E-2,-1.349000037E-1,1.469999924E-2,1.640015547E-1
3.052461400E-2,1.718999892E-1,-1.041999981E-1,-1.260000002E-2,2.014100442E-1
4.052461400E-2,1.772999913E-1,-6.219999865E-2,-1.730000041E-2,1.886886768E-1
5.052461400E-2,1.729999930E-1,-3.879999742E-2,2.199999988E-3,1.773112443E-1
6.053242600E-2,1.084999964E-1,4.399999976E-3,5.499999970E-3,1.087283735E-1
7.052617600E-2,9.659999609E-2,-1.379999984E-2,1.579999924E-2,9.885160199E-2
8.052461400E-2,2.809999883E-2,-3.799999831E-3,7.899999619E-3,2.943569138E-2
9.052461400E-2,-2.329999954E-2,3.419999778E-2,3.539999947E-2,5.445814713E-2
1.005246140E-1,-8.399999887E-2,7.989999652E-2,1.585000008E-1,1.963727566E-1
1.105261760E-1,-1.973000020E-1,1.335999966E-1,2.770999968E-1,3.654595164E-1
1.205246140E-1,-3.379999995E-1,2.467999905E-1,3.380999863E-1,5.380202931E-1
1.305339890E-1,-4.229999781E-1,3.100999892E-1,3.771999776E-1,6.460424196E-1
1.405261760E-1,-4.871999919E-1,3.835999966E-1,3.353999853E-1,7.049864819E-1
1.505261760E-1,-6.082999706E-1,4.266999960E-1,2.736999989E-1,7.918417962E-1
1.605261760E-1,-7.367999554E-1,4.991999865E-1,2.157999873E-1,9.157753192E-1
1.705261760E-1,-8.139999509E-1,5.907999873E-1,1.083000004E-1,1.011617237E0
1.805261760E-1,-8.319000006E-1,6.917999983E-1,-1.909999922E-2,1.082131997E0
1.905261760E-1,-7.832999825E-1,8.220999837E-1,-1.853999943E-1,1.150556563E0
2.005261760E-1,-7.087999582E-1,9.623000026E-1,-3.595999777E-1,1.248090870E0
2.105261760E-1,-6.297999620E-1,1.092899919E0,-4.941999912E-1,1.354736821E0
2.205261760E-1,-5.568999648E-1,1.194399953E0,-6.772999763E-1,1.481709849E0
2.305261760E-1,-4.902999997E-1,1.325699925E0,-9.181999564E-1,1.685516402E0
2.405261760E-1,-4.589999914E-1,1.574999928E0,-1.188199997E0,2.025617190E0
2.505261760E-1,-4.518999755E-1,2.010699987E0,-1.489099979E0,2.542547301E0
2.605261760E-1,-4.573999941E-1,2.563699961E0,-1.861599922E0,3.201144563E0
2.705261760E-1,-4.642999768E-1,3.164899826E0,-2.179999828E0,3.870990135E0
2.805261760E-1,-6.480000019E-1,3.745499849E0,-2.661000013E0,4.639999374E0
2.905261760E-1,-3.410999775E-1,4.236700058E0,-2.725499868E0,5.049190639E0
3.005261760E-1,-6.799999624E-3,4.364099979E0,-2.304199934E0,4.935053415E0
3.105261760E-1,5.564999580E-1,4.108500004E0,-1.925999999E0,4.571535900E0
3.205261760E-1,1.528999925E0,3.097899914E0,-1.795399904E0,3.893364286E0
3.305261760E-1,2.769399881E0,1.824399948E0,-2.682099819E0,4.265169436E0
3.405261760E-1,1.845600009E0,-6.685999632E-1,-2.487200022E0,3.168505839E0
3.505261760E-1,1.559700012E0,-2.758499861E0,5.184999704E-1,3.211047777E0
3.605261760E-1,-5.544999838E-1,-4.986799717E0,4.545599937E0,6.770385546E0
3.705261760E-1,-1.237800002E0,-8.096799850E0,5.256700039E0,9.732585061E0
3.805261760E-1,-3.158599854E0,-1.254430008E1,7.246799946E0,1.482741808E1
3.905261760E-1,-4.807399750E0,-1.774489975E1,8.116700172E0,2.009660123E1
4.005261760E-1,-5.637499809E0,-2.202379990E1,8.875999451E0,2.440517429E1
4.105261760E-1,-5.796899796E0,-2.432509995E1,9.502599716E0,2.675096140E1
4.205261760E-1,-3.466399908E0,-2.203209877E1,8.339399338E0,2.381123445E1
4.305355510E-1,-2.040099859E0,-1.772349930E1,5.867099762E0,1.878050304E1
4.405261760E-1,-2.743399858E0,-1.384879971E1,3.819799900E0,1.462553819E1
4.505261760E-1,-2.992499828E0,-1.070319939E1,1.841899991E0,1.126526200E1
4.605261760E-1,-2.107699871E0,-7.984200001E0,8.950999975E-1,8.306085263E0
4.705261760E-1,-3.109999932E-2,-5.201499939E0,-8.513000011E-1,5.270795055E0
4.805261760E-1,1.173799992E0,-2.518299818E0,-1.172219944E1,1.204697473E1
4.905293010E-1,2.055700064E0,9.539999962E-1,-1.961039925E1,1.974091632E1
5.005261760E-1,2.892299891E0,5.264100075E0,-1.846080017E1,1.941332767E1
5.105386760E-1,4.713599682E0,8.088199615E0,-1.261419964E1,1.570843810E1
5.205261760E-1,5.016399860E0,9.550299644E0,-7.519199848E0,1.314955730E1
5.305261760E-1,4.445199966E0,1.043889999E1,-4.726900101E0,1.229121721E1
5.405261760E-1,3.927500010E0,1.092659950E1,-1.973799944E0,1.177759395E1
5.505261760E-1,3.725699902E0,1.077619934E1,2.114999890E-1,1.140403631E1
5.605261760E-1,3.730199814E0,1.054570007E1,1.461300015E0,1.128102737E1
5.705293010E-1,4.153399944E0,1.064190006E1,2.148599863E0,1.162399455E1
5.805261760E-1,5.170199871E0,1.102190018E1,3.348199844E0,1.262630953E1
5.905261760E-1,6.649399757E0,1.169419956E1,5.664399624E0,1.459637776E1
6.005371140E-1,6.246699810E0,1.173880005E1,6.835799694E0,1.495154984E1
6.105261760E-1,3.250699997E0,1.084159946E1,3.902199984E0,1.197223848E1
6.205261760E-1,5.798000097E-1,1.038239956E1,1.608199954E0,1.052220014E1
6.305261760E-1,-1.364499927E0,1.039760017E1,1.095199943E0,1.054378548E1
6.405261760E-1,-2.115000010E0,1.058360004E1,3.150499821E0,1.124328529E1
6.505402390E-1,-2.229799986E0,1.064839935E1,3.816699982E0,1.152942390E1
6.605261760E-1,-2.329599857E0,1.058449936E1,3.315599918E0,1.133366071E1
6.705261760E-1,-2.565599918E0,1.049119949E1,3.272799969E0,1.128533515E1
6.805261760E-1,-2.559299946E0,1.034969997E1,2.934700012E0,1.105797314E1
6.905261760E-1,-2.236000061E0,1.020940018E1,2.065700054E0,1.065357522E1
7.005293010E-1,-2.239500046E0,9.981900215E0,1.355499983E0,1.031945118E1
7.105261760E-1,-2.249300003E0,9.774999619E0,9.523999691E-1,1.007556618E1
7.205261760E-1,-2.117899895E0,9.559399605E0,6.498000026E-1,9.812739720E0
7.305261760E-1,-1.817999959E0,9.315299988E0,6.152999997E-1,9.510969025E0
7.405261760E-1,-1.510900021E0,9.189499855E0,7.325999737E-1,9.341650239E0
7.505261760E-1,-1.376999974E0,9.034500122E0,8.933999538E-1,9.182400822E0
7.605261760E-1,-1.398800015E0,8.722700119E0,1.586399913E0,8.975455617E0
7.705308640E-1,-1.812299967E0,7.567399979E0,3.462599993E0,8.517016632E0
7.805261760E-1,-8.830100060E0,-2.779309845E1,6.190299988E0,2.981185674E1
7.905261760E-1,-2.143300056E0,-6.670069885E1,2.563010025E1,7.148761432E1
8.005261760E-1,-8.978400230E0,-6.835099792E1,3.008969879E1,7.521875139E1
8.105261760E-1,-1.206599951E0,-6.704270172E1,1.503369999E1,6.871820627E1
8.205261760E-1,3.037400007E0,-3.031709862E1,2.317600012E0,3.055689018E1
8.305261760E-1,4.857699871E0,-1.088339996E1,-5.690499783E0,1.320709773E1
8.405261760E-1,7.348799706E0,-3.483199835E0,-5.666389847E1,5.724451876E1
8.505261760E-1,2.851300001E0,-7.245999575E-1,-3.969279861E1,3.980167357E1
8.605261760E-1,1.197000027E0,-3.937999904E-1,-2.645609856E1,2.648609141E1
8.705261760E-1,9.747999907E-1,1.849000007E-1,-1.464470005E1,1.467827179E1
8.805371140E-1,8.454999924E-1,1.498899937E0,-4.287300110E0,4.619795828E0
8.905261760E-1,2.396999896E-1,3.424599886E0,1.281199932E0,3.664261690E0
9.005261760E-1,3.222999871E-1,5.579699993E0,3.694999933E0,6.699996552E0
9.105261760E-1,2.919999957E-1,7.545899868E0,3.280399799E0,8.233279520E0
9.205261760E-1,8.059999943E-1,9.179900169E0,1.950599909E0,9.419397174E0
9.305261760E-1,1.023499966E0,9.973799706E0,2.174700022E0,1.025931542E1
9.405261760E-1,1.097800016E0,1.005499935E1,3.701900005E0,1.077089785E1
9.505261760E-1,1.123299956E0,1.004089928E1,3.733500004E0,1.077128049E1
9.605261760E-1,1.403299928E0,1.003109932E1,2.941299915E0,1.054720102E1
9.705261760E-1,1.845399976E0,1.012580013E1,3.351799965E0,1.082459664E1
9.805277390E-1,2.610800028E0,1.040509987E1,4.792099953E0,1.174932347E1
9.905261760E-1,3.583099842E0,1.077339935E1,6.412999630E0,1.303960515E1
1.000526176E0,4.251100063E0,1.123409939E1,6.910699844E0,1.385765540E1
1.010526176E0,4.215099812E0,1.151489925E1,6.968199730E0,1.410375052E1
1.020526176E0,3.556599855E0,1.164519978E1,6.148399830E0,1.364048756E1
1.030526176E0,2.609099865E0,1.168190002E1,5.260499954E0,1.307467208E1
1.040526176E0,1.650200009E0,1.158360004E1,4.224699974E0,1.243989710E1
1.050526176E0,7.633000016E-1,1.135789967E1,3.066399813E0,1.178928834E1
1.060526176E0,1.046999991E-1,1.118319988E1,2.398000002E0,1.143788992E1
1.070532426E0,-2.949000001E-1,1.091259956E1,2.159999847E0,1.112822513E1
1.080526176E0,-3.956999779E-1,1.061409950E1,1.689499974E0,1.075500334E1
1.090526176E0,-3.524000049E-1,1.041309929E1,1.221599936E0,1.049043035E1
1.100526176E0,-2.673999965E-1,1.025119972E1,8.317999840E-1,1.028836672E1
1.110526176E0,-6.610000134E-2,1.017770004E1,5.487999916E-1,1.019269978E1
1.120538676E0,4.199999943E-2,1.012370014E1,4.320999980E-1,1.013300444E1
1.130526176E0,1.122999936E-1,1.009889984E1,5.106999874E-1,1.011242818E1
1.140526176E0,1.907999963E-1,9.995399475E0,6.453999877E-1,1.001803157E1
1.150526176E0,2.444999963E-1,9.832699776E0,7.856999636E-1,9.867070972E0
1.160526176E0,2.399999946E-1,9.580999374E0,8.427999616E-1,9.620990634E0
1.170537114E0,2.334999889E-1,9.229999542E0,1.257200003E0,9.318152480E0
1.180526176E0,3.983999789E-1,8.847700119E0,1.777300000E0,9.033233930E0
1.190526176E0,6.135999560E-1,8.266900063E0,2.965600014E0,8.804142490E0
1.200526176E0,1.291899920E0,6.545499802E0,7.472399712E0,1.001745130E1
1.210526176E0,-6.761699677E0,-5.680559921E1,2.807180023E1,6.372301509E1
1.220533989E0,-6.477200031E0,-6.838489532E1,2.821759987E1,7.426089800E1
1.230526176E0,-8.097299576E0,-6.844259644E1,1.810299873E1,7.125779838E1
1.240526176E0,6.816199780E0,-4.803649902E1,2.087800026E0,4.856258567E1
1.250526176E0,7.572399616E0,-1.677689934E1,-1.419299960E0,1.846131089E1
1.260526176E0,6.460399628E0,-5.392799854E0,-2.410099983E0,8.753721240E0
1.270532426E0,-5.230799675E0,-1.434399962E0,-1.678069878E1,1.763549319E1
1.280526176E0,-6.081799984E0,-5.482999682E-1,-1.669129944E1,1.777324959E1
1.290526176E0,-1.219900012E0,2.694999874E-1,-1.576340008E1,1.581282923E1
1.300526176E0,1.767499924E0,1.385699987E0,-1.307039928E1,1.326195905E1
1.310526176E0,1.303099990E0,2.617699862E0,-8.063499451E0,8.577321583E0
1.320540239E0,6.290999651E-1,3.983199835E0,-3.326900005E0,5.227801769E0
1.330526176E0,5.360000134E-1,5.320099831E0,-1.281799912E0,5.498524278E0
1.340526176E0,1.411599994E0,7.069200039E0,-6.550999880E-1,7.238463907E0
1.350526176E0,1.717599988E0,8.445300102E0,-3.784999847E-1,8.626500204E0
1.360526176E0,1.530799985E0,9.289999962E0,-5.475999713E-1,9.431188346E0
1.370537114E0,1.245399952E0,9.514100075E0,-5.396999717E-1,9.610431693E0
1.380526176E0,1.159500003E0,9.528699875E0,-6.617999673E-1,9.621774304E0
1.390526176E0,1.116400003E0,9.716300011E0,-7.699999809E-1,9.810491060E0
1.400526176E0,1.242699981E0,9.900400162E0,-4.754999876E-1,9.989410736E0
1.410526176E0,1.330600023E0,1.007139969E1,8.909999579E-2,1.015930740E1
1.420538676E0,1.425999999E0,1.025959969E1,6.071999669E-1,1.037600855E1
1.430526176E0,1.633499980E0,1.056400013E1,1.830299973E0,1.084511037E1
1.440530864E0,1.772399902E0,1.072049999E1,2.317399979E0,1.111039442E1
1.450526176E0,1.820499897E0,1.048499966E1,1.752399921E0,1.078519092E1
1.460526176E0,1.903999925E0,1.032889938E1,1.296700001E0,1.058266550E1
1.470527739E0,2.073299885E0,1.027199936E1,1.316499949E0,1.056152050E1
1.480526176E0,2.024800062E0,1.022609997E1,1.059100032E0,1.047829322E1
1.490526176E0,1.965599895E0,1.023989964E1,8.690999746E-1,1.046300446E1
1.500526176E0,1.788800001E0,1.023489952E1,4.910999835E-1,1.040164183E1
1.510526176E0,1.574199915E0,1.023999977E1,-4.600000009E-2,1.036039655E1
1.520538676E0,1.383000016E0,1.023549938E1,-3.689000010E-1,1.033509670E1
1.530526176E0,1.198499918E0,1.023069954E1,-5.655999780E-1,1.031617751E1
1.540526176E0,1.121199965E0,1.027460003E1,-6.462000012E-1,1.035577470E1
1.550526176E0,1.024199963E0,1.029829979E1,-6.198999882E-1,1.036765355E1
1.560526176E0,8.795999885E-1,1.027390003E1,-3.120000064E-1,1.031620386E1
1.570537114E0,8.953999877E-1,1.027589989E1,2.823999822E-1,1.031870192E1
1.580526176E0,8.901000023E-1,1.033749962E1,1.340999961E0,1.046204843E1
1.590526176E0,7.425000072E-1,1.030049992E1,2.507200003E0,1.062721302E1
1.600526176E0,1.869999915E-1,9.987799644E0,3.134500027E0,1.046977560E1
1.610526176E0,-1.366999894E-1,9.153699875E0,2.774099827E0,9.565800444E0
1.620533989E0,8.049999923E-2,8.689899445E0,3.248699903E0,9.277655074E0
1.630526176E0,2.687999904E-1,8.203199387E0,4.114500046E0,9.181167913E0
1.640526176E0,5.927000046E-1,7.113299847E0,6.443999767E0,9.616416225E0
1.650526176E0,1.375800014E0,4.976699829E0,9.447199821E0,1.076614840E1
1.660526176E0,-9.077699661E0,-2.810999870E1,9.856499672E0,3.114044386E1
1.670527739E0,-4.483999729E0,-6.707029724E1,2.070189857E1,7.033562135E1
1.680526176E0,-1.566569996E1,-6.849009705E1,2.286619949E1,7.388620052E1
1.690526176E0,1.271600008E0,-6.689859772E1,1.513219929E1,6.860045771E1
1.700526176E0,6.650300026E0,-2.910890007E1,6.362699986E0,3.052930567E1
1.710526176E0,6.521199703E0,-9.798899651E0,1.008899927E0,1.181365138E1
1.720526176E0,3.136899948E0,-2.526499987E0,-3.199199915E0,5.143755784E0
1.730526176E0,-3.288299799E0,-1.748999953E-1,-1.933090019E1,1.960936531E1
1.740526176E0,-7.861999989E0,-1.209299922E0,-2.083720016E1,2.230386426E1
1.750537114E0,-1.267699957E0,-8.501999974E-1,-1.623449898E1,1.630609887E1
1.760526176E0,3.286199808E0,-1.560999900E-1,-1.187959957E1,1.232673365E1
1.770526176E0,2.935699940E0,5.870000124E-1,-7.594099998E0,8.162919694E0
1.780526176E0,5.767999887E-1,1.776499987E0,-4.127200127E0,4.530169016E0
1.790526176E0,2.161999941E-1,3.225699902E0,-1.630100012E0,3.620650265E0
1.800526176E0,9.156000018E-1,4.884099960E0,-6.383000016E-1,5.010008251E0
1.810526176E0,1.494199991E0,6.614999771E0,-4.560000002E-1,6.796969294E0
1.820526176E0,1.672799945E0,8.272899628E0,-5.681999922E-1,8.459431372E0
1.830533989E0,1.488699913E0,9.476399422E0,-3.826999962E-1,9.600251701E0
1.840526176E0,1.246500015E0,9.755399704E0,-3.668999970E-1,9.841554820E0
1.850526176E0,1.143100023E0,9.777099609E0,-5.681999922E-1,9.860081423E0
1.860526176E0,1.090099931E0,9.855299950E0,-6.140999794E-1,9.934403542E0
1.870526176E0,1.145699978E0,9.931300163E0,6.099999882E-3,9.997169028E0
1.880526176E0,1.357499957E0,1.008360004E1,1.132900000E0,1.023744394E1
1.890526176E0,1.515900016E0,1.021399975E1,1.836899996E0,1.048799053E1
1.900526176E0,1.666700006E0,1.025449944E1,2.014999866E0,1.058266847E1
1.910526176E0,1.728699923E0,1.022550011E1,1.695299983E0,1.050824904E1
1.920526176E0,1.896099925E0,1.026519966E1,1.812099934E0,1.059496225E1
1.930538676E0,2.080399990E0,1.032479954E1,1.904999971E0,1.070320394E1
1.940526176E0,2.163100004E0,1.042430019E1,1.894499898E0,1.081361022E1
1.950526176E0,2.046200037E0,1.051490021E1,1.713899970E0,1.084838763E1
1.960526176E0,1.838499904E0,1.052789974E1,1.483399987E0,1.078968166E1
1.970526176E0,1.582700014E0,1.051209927E1,9.905999899E-1,1.067663143E1
1.980526176E0,1.282599926E0,1.051599979E1,5.022999644E-1,1.060582951E1
1.990526176E0,1.049700022E0,1.046099949E1,2.272000015E-1,1.051598784E1
2.000526176E0,8.373999596E-1,1.041539955E1,4.859999940E-2,1.044912190E1
2.010526176E0,6.570999622E-1,1.034000015E1,-1.120999977E-1,1.036146466E1
2.020526176E0,4.406999946E-1,1.022499943E1,-1.278999895E-1,1.023529131E1
2.030526176E0,3.055999875E-1,1.018789959E1,-3.849999979E-2,1.019255472E1
2.040526176E0,1.824999899E-1,1.015059948E1,3.021000028E-1,1.015673375E1
2.050526176E0,2.159999870E-2,1.007369995E1,8.428999782E-1,1.010892564E1
2.060526176E0,-2.006999999E-1,9.771100044E0,1.284500003E0,9.857211412E0
2.070526176E0,4.799999762E-3,9.388999939E0,1.151000023E0,9.459288765E0
2.080526176E0,1.662999988E-1,9.231800079E0,9.939000010E-1,9.286636937E0
2.090526176E0,2.638999820E-1,9.034500122E0,1.094799995E0,9.104417757E0
2.100526176E0,4.491999745E-1,8.796699524E0,1.817499995E0,8.993720552E0
2.110526176E0,6.900999546E-1,7.929499626E0,5.032700062E0,9.417073440E0
2.120526176E0,1.692299962E0,5.028800011E0,1.110129929E1,1.230412754E1
2.130526176E0,-5.654900074E0,-6.200519943E1,2.817599869E1,6.834112637E1
2.140526176E0,-1.180289936E1,-6.841970062E1,3.261859894E1,7.671073499E1
2.150526176E0,-1.395829964E1,-6.849259949E1,2.144859886E1,7.311711637E1
2.160526176E0,4.372999966E-1,-4.243449783E1,6.910500050E0,4.299573059E1
2.170526176E0,5.337500095E0,-1.290199947E1,-2.447499990E0,1.417535728E1
2.180526176E0,1.676899910E0,-1.445099950E0,-2.726899910E1,2.735870280E1
2.190530864E0,-5.019999981E0,1.354099989E0,-3.333659744E1,3.373963123E1
2.200526176E0,-1.381999969E0,2.376199961E0,-2.867679977E1,2.880824700E1
2.210527739E0,-5.315999985E-1,2.717599869E0,-2.055060005E1,2.073632345E1
2.220526176E0,-4.016000032E-1,3.272300005E0,-1.117840004E1,1.165443509E1
2.230526176E0,1.234200001E0,4.567599773E0,-3.701399803E0,6.007210487E0
2.240527739E0,2.593899965E0,6.056499958E0,-4.226000011E-1,6.602128409E0
2.250526176E0,3.260299921E0,7.751699924E0,4.872999787E-1,8.423530647E0
2.260526176E0,2.741099834E0,9.067500114E0,5.442000031E-1,9.488379223E0
2.270526176E0,2.188899994E0,9.574299812E0,8.273999691E-1,9.856119459E0
2.280526176E0,2.003399849E0,9.782400131E0,8.227999806E-1,1.001927957E1
2.290526176E0,2.246999979E0,1.003499985E1,1.670599937E0,1.041830768E1
2.300526176E0,2.654299974E0,1.025379944E1,2.850499868E0,1.096863988E1
2.310526176E0,3.190299988E0,1.057649994E1,3.648999929E0,1.163424108E1
2.320526176E0,3.561899900E0,1.080819988E1,3.882099867E0,1.202393509E1
2.330541801E0,4.141799927E0,1.098989964E1,4.618599892E0,1.261997883E1
2.340526176E0,4.969999790E0,1.120179939E1,5.298099995E0,1.335107004E1
2.350526176E0,5.624799728E0,1.143610001E1,5.971399784E0,1.407410284E1
2.360526176E0,5.441599846E0,1.150789928E1,6.080599785E0,1.410731897E1
2.370526176E0,4.510999680E0,1.138729954E1,4.984999657E0,1.322383947E1
2.380541801E0,2.995299816E0,1.103289986E1,2.887599945E0,1.179130755E1
2.390526176E0,1.710799932E0,1.089279938E1,1.058599949E0,1.107702797E1
2.400526176E0,9.787999988E-1,1.092640018E1,6.061999798E-1,1.098688986E1
2.410526176E0,4.019999802E-1,1.086889935E1,4.783999920E-1,1.088684727E1
2.420526176E0,-3.089999966E-2,1.083899975E1,6.797999740E-1,1.086034062E1
2.430532426E0,-3.615999818E-1,1.073960018E1,1.055199981E0,1.079737068E1
2.440526176E0,-5.920999646E-1,1.067949963E1,1.164899945E0,1.075914897E1
2.450526176E0,-7.148000002E-1,1.060019970E1,8.852999806E-1,1.066109416E1
2.460526176E0,-8.400999904E-1,1.057059956E1,6.972999573E-1,1.062683256E1
2.470526176E0,-9.204999804E-1,1.053139973E1,4.866999984E-1,1.058274904E1
2.480538676E0,-9.580999613E-1,1.041349983E1,3.947999775E-1,1.046493198E1
2.490526176E0,-9.848999977E-1,1.024619961E1,3.754999936E-1,1.030027352E1
2.500526176E0,-1.013700008E0,1.002899933E1,6.459000111E-1,1.010077235E1
2.510526176E0,-9.393999577E-1,9.673399925E0,1.055999994E0,9.776107323E0
2.520526176E0,-1.009400010E0,9.267299652E0,1.826599956E0,9.499378854E0
2.530535551E0,-1.036899924E0,8.859199524E0,3.235899925E0,9.488499670E0
2.540526176E0,-6.577999592E-1,8.222800255E0,5.795399666E0,1.008135914E1
2.550526176E0,3.701999784E-1,6.365299702E0,1.121299934E1,1.289904813E1
2.560526176E0,1.121899962E0,1.684199929E0,1.615480042E1,1.628105541E1
2.570526176E0,3.702199936E0,-6.193019867E1,2.315899849E1,6.622231499E1
2.580537114E0,5.993999839E-1,-6.851529694E1,1.735849953E1,7.068254877E1
2.590526176E0,2.219000012E-1,-6.858110046E1,2.484889984E1,7.294439255E1
2.600526176E0,1.679099917E0,-4.667839813E1,9.826700211E0,4.773108281E1
2.610526176E0,1.616199970E0,-1.778559875E1,2.049000025E0,1.797604035E1
2.620526176E0,2.090100050E0,-5.250599861E0,-6.173599720E0,8.369626672E0
2.630532426E0,-1.930899978E0,-1.765199900E0,-2.540089989E1,2.553527013E1
2.640526176E0,-5.369800091E0,-3.707899809E0,-2.056629944E1,2.157674551E1
2.650526176E0,-1.187899947E0,-5.045599937E0,-1.579359913E1,1.662248352E1
2.660530864E0,6.601999998E-1,-4.666100025E0,-1.228979969E1,1.316235275E1
2.670526176E0,4.705999792E-1,-2.558099985E0,-8.786999702E0,9.163880381E0
2.680526176E0,3.019999899E-2,-4.055999815E-1,-5.380199909E0,5.395551357E0
2.690526176E0,6.376000047E-1,1.856599927E0,-3.094499826E0,3.664618156E0
2.700526176E0,2.238199949E0,4.081799984E0,-2.791299820E0,5.427889535E0
2.710529301E0,3.979399920E0,6.272500038E0,-2.107100010E0,7.721382706E0
2.720526176E0,3.762699842E0,7.930799961E0,-1.321599960E0,8.877056076E0
2.730526176E0,2.844799995E0,9.262000084E0,-5.931000113E-1,9.707177767E0
2.740526176E0,1.783499956E0,9.892299652E0,-1.635999978E-1,1.005312038E1
2.750526176E0,1.294399977E0,1.013449955E1,5.579000115E-1,1.023204793E1
2.760526176E0,1.007699966E0,1.017469978E1,4.672999978E-1,1.023515238E1
2.770526176E0,9.922999740E-1,1.006260014E1,8.228999972E-1,1.014483835E1
2.780526176E0,1.295400023E0,9.984600067E0,1.904999971E0,1.024691781E1
2.790526176E0,1.843099952E0,1.016650009E1,3.435699940E0,1.088846985E1
2.800526176E0,2.832199812E0,1.067809963E1,5.736999989E0,1.244814590E1
2.810526176E0,4.123300076E0,1.130609989E1,7.586899757E0,1.422640314E1
2.820526176E0,4.828599930E0,1.170129967E1,8.339699745E0,1.515870651E1
2.830526176E0,4.361899853E0,1.169979954E1,7.957199574E0,1.480636703E1
2.840526176E0,3.112900019E0,1.148799992E1,5.789599895E0,1.323570004E1
2.850526176E0,2.023399830E0,1.129909992E1,3.505899906E0,1.200229728E1
2.860526176E0,1.160899997E0,1.117910004E1,1.932999969E0,1.140422971E1
2.870526176E0,5.934999585E-1,1.115569973E1,1.246199965E0,1.124076924E1
2.880526176E0,1.766999960E-1,1.092479992E1,8.561999798E-1,1.095972420E1
2.890526176E0,-1.884000003E-1,1.078090000E1,6.862999797E-1,1.080436519E1
2.900526176E0,-4.244000018E-1,1.055749989E1,4.707999825E-1,1.057651038E1
2.910526176E0,-6.118999720E-1,1.039229965E1,1.476999968E-1,1.041134616E1
2.920526176E0,-7.727999687E-1,1.025599957E1,-5.790000036E-2,1.028523696E1
2.930526176E0,-7.712999582E-1,1.010939980E1,-2.937999964E-1,1.014303634E1
2.940526176E0,-7.451999784E-1,9.972099304E0,-5.792999864E-1,1.001666991E1
2.950526176E0,-6.466999650E-1,9.863699913E0,-7.367999554E-1,9.912298976E0
2.960526176E0,-7.716999650E-1,9.823499680E0,-6.280999780E-1,9.873762017E0
2.970526176E0,-9.142999649E-1,9.772999763E0,-4.893999994E-1,9.827867580E0
2.980526176E0,-9.175999761E-1,9.604399681E0,-3.712999821E-1,9.655275585E0
2.990526176E0,-7.331999540E-1,9.327400208E0,-1.973999888E-1,9.358255369E0
3.000526176E0,-6.777999997E-1,9.206500053E0,-1.850000024E-2,9.231435334E0
3.010526176E0,-6.067999601E-1,9.163000107E0,1.233999953E-1,9.183899210E0
3.020526176E0,-2.872000039E-1,8.607999802E0,2.688499928E0,9.022647964E0
3.030526176E0,5.625999570E-1,7.442399979E0,7.929699898E0,1.088971885E1
3.040526176E0,1.799099922E0,5.308899879E0,1.226270008E1,1.348313731E1
3.050526176E0,-2.050299883E0,-3.461240005E1,1.433789921E1,3.752062527E1
3.060526176E0,1.369479942E1,-6.827220154E1,2.183399963E1,7.297509557E1
3.070526176E0,-3.305500031E0,-6.850180054E1,3.232040024E1,7.581577197E1
3.080526176E0,6.128000021E-1,-6.686479950E1,2.438710022E1,7.117589194E1
3.090526176E0,-4.758999944E-1,-3.084469986E1,9.001699448E0,3.213491222E1
3.100526176E0,-3.052199841E0,-1.066049957E1,5.458999872E-1,1.110226021E1
3.110526176E0,-2.360599995E0,-1.933999896E0,-1.091409969E1,1.133271195E1
3.120526176E0,-4.416399956E0,2.432800055E0,-2.379520035E1,2.432354136E1
3.130526176E0,1.077700019E0,3.860199928E0,-2.226819992E1,2.262598746E1
3.140526176E0,5.025300026E0,4.480799675E0,-1.997179985E1,2.107614755E1
3.150526176E0,5.557600021E0,4.501199722E0,-1.629889870E1,1.779892737E1
3.160537114E0,3.733299971E0,4.102200031E0,-1.171449947E1,1.296129128E1
3.170526176E0,2.300199986E0,4.534699917E0,-7.467799664E0,9.034514659E0
3.180526176E0,2.004400015E0,5.501299858E0,-5.479899883E0,8.019427802E0
3.190526176E0,2.475199938E0,6.803799629E0,-4.287699699E0,8.414432413E0
3.200526176E0,2.584800005E0,8.245299339E0,-3.525599957E0,9.332524166E0
3.210533989E0,2.309099913E0,9.237699509E0,-2.441699982E0,9.830001700E0
3.220526176E0,1.613699913E0,9.612699509E0,-1.407799959E0,9.848346053E0
3.230526176E0,1.230799913E0,9.690699577E0,-4.526000023E-1,9.779027226E0
3.240526176E0,1.281199932E0,9.880799294E0,5.866000056E-1,9.980769886E0
3.250526176E0,1.230799913E0,1.009289932E1,1.224699974E0,1.024116083E1
3.260526176E0,1.063599944E0,1.020940018E1,1.303799987E0,1.034712478E1
3.270526176E0,1.050199986E0,1.027089977E1,1.353299975E0,1.041276731E1
3.280526176E0,1.325500011E0,1.037650013E1,1.364799976E0,1.054947317E1
3.290527739E0,1.501599908E0,1.046879959E1,1.556599975E0,1.068988169E1
3.300526176E0,1.759899974E0,1.061719990E1,1.949099898E0,1.093714643E1
3.310526176E0,2.351799965E0,1.088149929E1,3.079999924E0,1.155094755E1
3.320526176E0,3.036599874E0,1.121339989E1,4.692299843E0,1.252912422E1
3.330526176E0,3.149899960E0,1.154529953E1,5.388599873E0,1.312451217E1
3.340526176E0,2.858099937E0,1.162279987E1,5.881999969E0,1.333627144E1
3.350526176E0,2.068399906E0,1.155420017E1,5.861999989E0,1.312024633E1
3.360526176E0,9.957999587E-1,1.138859940E1,4.968100071E0,1.246490401E1
3.370526176E0,1.353999972E-1,1.117469978E1,3.297899961E0,1.165196947E1
3.380526176E0,-1.996999979E-1,1.099039936E1,1.924499989E0,1.115941120E1
3.390526176E0,-3.352999985E-1,1.078579998E1,9.031999707E-1,1.082874312E1
3.400526176E0,-4.538999796E-1,1.059999943E1,2.723999918E-1,1.061320945E1
3.410526176E0,-5.410999656E-1,1.042299938E1,-2.381999940E-1,1.043975309E1
3.420526176E0,-6.403999925E-1,1.021579933E1,-5.289999843E-1,1.024951263E1
3.430526176E0,-6.656999588E-1,1.003719997E1,-6.686999798E-1,1.008145324E1
3.440526176E0,-6.768000126E-1,9.828299522E0,-5.313000083E-1,9.865891215E0
3.450526176E0,-6.739999652E-1,9.628199577E0,-2.954999804E-1,9.656284135E0
3.460526176E0,-5.685999990E-1,9.475999832E0,-2.978999913E-1,9.497716735E0
3.470526176E0,-5.087999701E-1,9.381199837E0,-3.136999905E-1,9.400223161E0
3.480526176E0,-5.552999973E-1,9.098499298E0,5.019999743E-1,9.129241564E0
3.490526176E0,-4.330999851E-1,8.597999573E0,2.352900028E0,8.924646256E0
3.500526176E0,-1.582700014E0,4.877899647E0,5.668900013E0,7.644296675E0
3.510526176E0,-2.832599878E0,-4.383029938E1,1.604730034E1,4.676146505E1
3.520526176E0,4.615299702E0,-6.842160034E1,3.341709900E1,7.628577122E1
3.530526176E0,-8.637800217E0,-6.847599792E1,3.271939850E1,7.638149594E1
3.540526176E0,2.032000065E0,-5.948939896E1,1.381939983E1,6.110722890E1
3.550526176E0,4.791699886E0,-2.682429886E1,1.493399978E0,2.728980836E1
3.560526176E0,4.594199657E0,-1.170179939E1,-4.175899982E0,1.324677018E1
3.570526176E0,3.079299927E0,-5.712599754E0,-5.783199787E0,8.692599368E0
3.580526176E0,5.521999598E-1,-5.913699627E0,-2.226249886E1,2.304117235E1
3.590526176E0,-5.301099777E0,-8.476900101E0,-2.749370003E1,2.925513691E1
3.600532426E0,-3.464499950E0,-6.667799950E0,-2.217889977E1,2.341721399E1
3.610526176E0,-2.129999995E-1,-4.532099724E0,-1.473469925E1,1.541741414E1
3.620526176E0,3.913999796E-1,-2.445499897E0,-8.177700043E0,8.544497743E0
3.630526176E0,6.362000108E-1,-1.110899925E0,-4.706899643E0,4.877884105E0
3.640526176E0,1.736400008E0,9.897999763E-1,-2.806499958E0,3.445465280E0
3.650538676E0,1.853500009E0,2.971400023E0,-1.292400002E0,3.732958363E0
3.660526176E0,1.609099984E0,5.073199749E0,-5.536999702E-1,5.350994497E0
3.670526176E0,1.697099924E0,7.193799973E0,-2.409999967E-1,7.395200281E0
3.680526176E0,1.561499953E0,8.803199768E0,2.280000001E-1,8.943522363E0
3.690526176E0,1.093799949E0,9.313599586E0,3.303000033E-1,9.383423345E0
3.700537114E0,9.049999714E-1,9.461599350E0,2.029999942E-1,9.506949890E0
3.710526176E0,9.570999742E-1,9.709300041E0,7.680000067E-1,9.786540332E0
3.720526176E0,1.042500019E0,9.949500084E0,1.087299943E0,1.006288127E1
3.730526176E0,9.922999740E-1,1.019320011E1,1.048399925E0,1.029490797E1
3.740526176E0,1.060400009E0,1.031449986E1,1.249400020E0,1.044386690E1
3.750526176E0,1.333499908E0,1.041279984E1,1.621699929E0,1.062236005E1
3.760526176E0,1.749399900E0,1.049909973E1,2.091699839E0,1.084742842E1
3.770527739E0,2.106499910E0,1.063350010E1,2.624199867E0,1.115325473E1
3.780526176E0,2.488699913E0,1.075789928E1,3.417999983E0,1.155892504E1
3.790526176E0,2.920899868E0,1.102989960E1,4.482599735E0,1.225903918E1
3.800526176E0,3.420599937E0,1.133249950E1,5.463200092E0,1.303735419E1
3.810526176E0,3.387499809E0,1.141129971E1,5.537899971E0,1.312864243E1
3.820526176E0,3.099900007E0,1.155049992E1,4.971399784E0,1.295138001E1
3.830526176E0,2.417999983E0,1.151419926E1,4.120500088E0,1.246603503E1
3.840526176E0,1.654899955E0,1.145870018E1,3.272899866E0,1.203130821E1
3.850526176E0,9.064999819E-1,1.137339973E1,2.453500032E0,1.167028818E1
3.860526176E0,2.766999900E-1,1.125829983E1,2.068300009E0,1.145005427E1
3.870526176E0,-1.727000028E-1,1.104459953E1,1.786099911E0,1.118942166E1
3.880526176E0,-4.715999961E-1,1.085029984E1,1.331599951E0,1.094187239E1
3.890526176E0,-5.834999681E-1,1.065579987E1,9.609999657E-1,1.071494582E1
3.900526176E0,-6.000999808E-1,1.048059940E1,5.478000045E-1,1.051204874E1
3.910526176E0,-4.855999947E-1,1.027579975E1,2.603999972E-1,1.029056247E1
3.920526176E0,-4.100999832E-1,1.003139973E1,1.202999949E-1,1.004049972E1
3.930526176E0,-2.495999932E-1,9.698499680E0,3.621000051E-1,9.708466027E0
3.940526176E0,-2.615000010E-1,9.345600128E0,1.128799915E0,9.417155263E0
3.950526176E0,-4.763999879E-1,8.835399628E0,2.566699982E0,9.212990412E0
3.960526176E0,-5.371999741E-1,8.225899696E0,4.461400032E0,9.373265166E0
3.970526176E0,-6.879999489E-2,7.152699947E0,8.470600128E0,1.108679018E1
3.980526176E0,1.131600022E0,4.885799885E0,1.335159969E1,1.426242523E1
3.990526176E0,-5.410299778E0,-3.640779877E1,1.619689941E1,4.021366317E1
4.000526176E0,3.082700014E0,-6.822169495E1,2.080789948E1,7.139097549E1
4.010526176E0,-1.235719967E1,-6.855480194E1,1.965069962E1,7.237825121E1
4.020526176E0,-2.983999848E-1,-6.835079956E1,1.884749985E1,7.090239131E1
4.030526176E0,3.277699947E0,-2.942599869E1,6.540499687E0,3.032178840E1
4.040526176E0,1.877299905E0,-8.723099709E0,3.567000031E-1,8.929947276E0
4.050526176E0,-5.972999930E-1,4.572999775E-1,-7.138899803E0,7.178424684E0
4.060526176E0,-8.454699516E0,6.871899605E0,-3.008469963E1,3.199678265E1
4.070526176E0,-7.250999808E-1,6.893399715E0,-2.780539894E1,2.865632461E1
4.080526176E0,4.669499874E0,6.182799816E0,-2.069849968E1,2.210111155E1
4.090526176E0,5.380899906E0,5.747299671E0,-1.475289917E1,1.672224779E1
4.100529301E0,3.700799942E0,6.246500015E0,-1.103189945E1,1.320672133E1
4.110526176E0,2.906199932E0,7.316400051E0,-6.285199642E0,1.007370053E1
4.120526176E0,2.197499990E0,8.028900146E0,-3.247099876E0,8.935093809E0
4.130526176E0,2.016000032E0,8.795199394E0,-9.296999574E-1,9.071060055E0
4.140541801E0,1.700500011E0,9.065499306E0,4.576999843E-1,9.234958973E0
4.150526176E0,1.165699959E0,9.145799637E0,1.287400007E0,9.309237679E0
4.160526176E0,1.139099956E0,9.317999840E0,1.527599931E0,9.510848084E0
4.170526176E0,1.304199934E0,9.554200172E0,1.582700014E0,9.771827758E0
4.180526176E0,1.527599931E0,9.778999329E0,1.334900022E0,9.987209194E0
4.190532426E0,1.860999942E0,1.008329964E1,1.816799998E0,1.041330949E1
4.200526176E0,2.346600056E0,1.038119984E1,2.683099985E0,1.097610438E1
4.210526176E0,3.222999811E0,1.082199955E1,4.234799862E0,1.205972354E1
4.220526176E0,4.598199844E0,1.140819931E1,6.848099709E0,1.407788773E1
4.230526176E0,5.495599747E0,1.177979946E1,8.897099495E0,1.575194183E1
4.240533989E0,5.066199780E0,1.189960003E1,9.007900238E0,1.576100021E1
4.250526176E0,3.871999979E0,1.160069942E1,7.918299675E0,1.456942280E1
4.260526176E0,2.247400045E0,1.125299931E1,5.920399666E0,1.291247198E1
4.270526176E0,8.251000047E-1,1.105989933E1,3.822999954E0,1.173104820E1
4.280526176E0,-2.651999891E-1,1.102029991E1,1.771099925E0,1.116486167E1
4.290535551E0,-9.455999732E-1,1.102659988E1,5.992000103E-1,1.108328042E1
4.300526176E0,-1.561199903E0,1.102129936E1,-1.875000000E-1,1.113290353E1
4.310526176E0,-1.882399917E0,1.085829926E1,-5.317999721E-1,1.103308222E1
4.320526176E0,-1.925799966E0,1.062669945E1,-9.616999626E-1,1.084252339E1
4.330526176E0,-1.600799918E0,1.026789951E1,-1.301899910E0,1.047316877E1
4.340538676E0,-1.296499968E0,9.967999458E0,-1.566100001E0,1.017322931E1
4.350526176E0,-1.135499954E0,9.716899872E0,-1.542400002E0,9.903862935E0
4.360526176E0,-1.069199920E0,9.504599571E0,-1.203599930E0,9.639982068E0
4.370526176E0,-1.076599956E0,9.379899979E0,-7.300999761E-1,9.469669321E0
4.380526176E0,-1.136399984E0,9.283800125E0,-3.624999821E-1,9.360115166E0
4.390537114E0,-1.256199956E0,9.206399918E0,-1.647000015E-1,9.293167590E0
4.400526176E0,-1.376599908E0,8.912199974E0,7.942000031E-1,9.052794559E0
4.410526176E0,-1.215959930E1,-2.723629951E1,5.867399693E0,3.039898429E1
4.420526176E0,-7.810999751E-1,-6.630939484E1,3.138079834E1,7.336416336E1
4.430526176E0,-3.497599840E0,-6.843439484E1,3.546689987E1,7.715828269E1
4.440530864E0,3.942399979E0,-6.846859741E1,1.583519936E1,7.038639704E1
4.450526176E0,6.374700069E0,-3.786610031E1,4.060899734E0,3.861307111E1
4.460526176E0,5.065099716E0,-1.583139992E1,-1.287099957E0,1.667168512E1
4.470526176E0,3.915699959E0,-5.944200039E0,-4.723700047E0,8.542807641E0
4.480526176E0,1.225000024E0,-1.328299999E0,-1.501079941E1,1.511916350E1
4.490527739E0,-6.547399998E0,-5.899999738E-1,-3.851580048E1,3.907279659E1
4.500526176E0,-4.016499996E0,-1.304700017E0,-3.005579948E1,3.035103947E1
4.510526176E0,1.576799989E0,1.090000011E-2,-2.055209923E1,2.061250105E1
4.520526176E0,4.395599842E0,1.235700011E0,-9.530599594E0,1.056790335E1
4.530526176E0,4.247499943E0,2.548799992E0,-2.767499924E0,5.674212984E0
4.540537114E0,1.980199933E0,3.256399870E0,-7.477999926E-1,3.883881656E0
4.550526176E0,1.077199936E0,4.577799797E0,8.646999598E-1,4.781664637E0
4.560526176E0,1.520699978E0,6.580999851E0,2.518800020E0,7.208775278E0
4.570526176E0,1.159299970E0,8.204799652E0,2.730399847E0,8.724551397E0
4.580526176E0,7.439999580E-1,9.334400177E0,3.135299921E0,9.874951554E0
4.590529301E0,4.702999890E-1,9.729199409E0,2.883699894E0,1.015845600E1
4.600526176E0,9.009999782E-2,9.792699814E0,2.253599882E0,1.004906961E1
4.610526176E0,2.117999941E-1,9.928799629E0,2.346499920E0,1.020450798E1
4.620526176E0,4.973999858E-1,1.008010006E1,1.937399983E0,1.027664063E1
4.630526176E0,7.251999974E-1,1.026739979E1,1.253700018E0,1.036904900E1
4.640537114E0,8.136999607E-1,1.039349937E1,1.438899994E0,1.052413275E1
4.650526176E0,1.314999938E0,1.064519978E1,2.574499846E0,1.103075485E1
4.660526176E0,2.268800020E0,1.097389984E1,4.297999859E0,1.200194709E1
4.670526176E0,3.766299963E0,1.169409943E1,7.153299809E0,1.421642272E1
4.680526176E0,4.568599701E0,1.221929932E1,8.760099411E0,1.571377487E1
4.690527739E0,3.724499941E0,1.217899990E1,8.271599770E0,1.518615492E1
4.700526176E0,2.125099897E0,1.183819962E1,6.163899899E0,1.351490591E1
4.710526176E0,8.192999959E-1,1.147949982E1,3.779399872E0,1.211338235E1
4.720526176E0,5.759999901E-2,1.123839951E1,1.879299998E0,1.139459125E1
4.730526176E0,-3.612999916E-1,1.099629974E1,7.494999766E-1,1.102773304E1
4.740537114E0,-5.676999688E-1,1.076299953E1,2.321999967E-1,1.078046191E1
4.750526176E0,-7.146999836E-1,1.050949955E1,-1.263999939E-1,1.053453149E1
4.760526176E0,-7.480999827E-1,1.036339951E1,-2.931999862E-1,1.039450187E1
4.770526176E0,-7.191999555E-1,1.022690010E1,-4.203999937E-1,1.026077338E1
4.780526176E0,-6.983000040E-1,1.013899994E1,-5.306999683E-1,1.017686519E1
4.790529301E0,-6.567999721E-1,1.010960007E1,-5.465999842E-1,1.014564790E1
4.800526176E0,-6.155999899E-1,1.005029964E1,-4.092999995E-1,1.007745071E1
4.810526176E0,-4.592999816E-1,9.843199730E0,-4.046999812E-1,9.862216763E0
4.820526176E0,-2.489999980E-1,9.674599648E0,-4.544000030E-1,9.688465240E0
4.830526176E0,-1.542999893E-1,9.505099297E0,-6.172999740E-1,9.526372887E0
4.840529301E0,-1.565999985E-1,9.315099716E0,-7.336999774E-1,9.345262005E0
4.850526176E0,-1.377999932E-1,9.114500046E0,-5.134999752E-1,9.129993546E0
4.860526176E0,3.822000027E-1,7.981999874E0,4.110700130E0,8.986448375E0
4.870526176E0,-8.401700020E0,-3.424119949E1,1.585229969E1,3.865674212E1
4.880526176E0,-1.932999969E0,-6.767279816E1,3.464080048E1,7.604820285E1
4.890533989E0,-6.768099785E0,-6.839910126E1,3.030889893E1,7.511906270E1
4.900526176E0,2.514499903E0,-6.743949890E1,2.060059929E1,7.056056557E1
4.910526176E0,3.343899965E0,-3.369879913E1,9.763099670E0,3.524356459E1
4.920526176E0,3.320899963E0,-1.295499992E1,3.902400017E0,1.393158733E1
4.930526176E0,2.263200045E0,-4.741399765E0,-1.086699963E0,5.365059457E0
4.940526176E0,4.679999873E-2,-1.355799913E0,-1.097179985E1,1.105535054E1
4.950526176E0,-9.963199615E0,-2.362699986E0,-2.706340027E1,2.893571032E1
4.960543364E0,-1.023499966E0,-1.513199925E0,-2.309509850E1,2.316723766E1
4.970526176E0,5.940999985E0,5.345000029E-1,-1.890749931E1,1.982611160E1
4.980526176E0,4.442699909E0,2.864099979E0,-1.542490005E1,1.630546512E1
4.990526176E0,2.050499916E0,4.934299946E0,-1.115069962E1,1.236486829E1
5.000526176E0,8.726999760E-1,6.421700001E0,-7.744299889E0,1.009821850E1
5.010530864E0,6.609999537E-1,7.827699661E0,-6.283599854E0,1.005949452E1
5.020526176E0,9.419999719E-1,9.065799713E0,-5.345599651E0,1.056652848E1
5.030526176E0,8.806999922E-1,9.614799500E0,-4.394299984E0,1.060800991E1
5.040526176E0,8.887999654E-1,9.784299850E0,-2.975800037E0,1.026537261E1
5.050526176E0,1.010900021E0,9.931599617E0,-1.215299964E0,1.005661692E1
5.060535551E0,9.532999992E-1,1.009649944E1,-2.509999871E-1,1.014450999E1
5.070526176E0,1.000100017E0,1.033129978E1,3.139999807E-1,1.038434164E1
5.080526176E0,1.089499950E0,1.057249928E1,1.342999935E0,1.071300144E1
5.090526176E0,1.282299995E0,1.065069962E1,1.487800002E0,1.083029291E1
5.100526176E0,1.415099978E0,1.057740021E1,1.331900001E0,1.075443447E1
5.110538676E0,1.765499949E0,1.055009937E1,1.598999977E0,1.081565475E1
5.120526176E0,2.082099915E0,1.054990005E1,1.584299922E0,1.086947733E1
5.130526176E0,2.141999960E0,1.059639931E1,1.343199968E0,1.089385277E1
5.140526176E0,1.854900002E0,1.074899960E1,1.512300014E0,1.101220676E1
5.150526176E0,1.184099913E0,1.093909931E1,1.874099970E0,1.116146214E1
5.160529301E0,5.974000096E-1,1.103949928E1,2.004699945E0,1.123593579E1
5.170526176E0,1.391000003E-1,1.098199940E1,1.739799976E0,1.111982750E1
5.180526176E0,-1.499999911E-1,1.080620003E1,1.536399961E0,1.091590509E1
5.190526176E0,-5.055999756E-1,1.059060001E1,1.880299926E0,1.076809954E1
5.200526176E0,-7.206999660E-1,1.048250008E1,1.924199939E0,1.068198304E1
5.210532426E0,-7.845999599E-1,1.035449982E1,1.828999996E0,1.054402696E1
5.220526176E0,-6.974999905E-1,1.033440018E1,1.776899934E0,1.050922008E1
5.230526176E0,-5.978999734E-1,1.035359955E1,1.854099989E0,1.053528333E1
5.240526176E0,-6.941999793E-1,1.030429935E1,2.126899958E0,1.054439198E1
5.250526176E0,-8.382999897E-1,1.024580002E1,2.181499958E0,1.050895366E1
5.260533989E0,-1.010599971E0,1.007769966E1,2.198199987E0,1.036404486E1
5.270526176E0,-1.015699983E0,9.769399643E0,1.796799898E0,9.985054117E0
5.280526176E0,-9.322999716E-1,9.388299942E0,1.703599930E0,9.587054384E0
5.290526176E0,-5.953999758E-1,9.001599312E0,1.498499990E0,9.144877994E0
5.300526176E0,-2.055999935E-1,8.607899666E0,1.927899957E0,8.823548394E0
5.310535551E0,1.250000000E-1,7.409199715E0,4.655600071E0,8.751370032E0
5.320526176E0,-1.557699919E0,-8.353999853E-1,5.467799664E0,5.746403687E0
5.330526176E0,-2.771800041E0,-5.881499863E1,2.119999886E1,6.258056320E1
5.340526176E0,-5.302099705E0,-6.863619995E1,3.036769867E1,7.524119435E1
5.350526176E0,-6.752399921E0,-6.876599884E1,2.049709892E1,7.207280046E1
5.360533989E0,1.963400006E0,-4.535569763E1,1.010330009E1,4.650882626E1
5.370526176E0,2.219399929E0,-2.181629944E1,1.196200013E0,2.196150158E1
5.380526176E0,4.493700027E0,-1.083349991E1,-5.550099850E0,1.297542556E1
5.390526176E0,3.065999985E0,-9.489600182E0,-3.074589920E1,3.232279668E1
5.400526176E0,-3.704699993E0,-8.386300087E0,-2.637310028E1,2.792123295E1
5.410526176E0,-4.183599949E0,-8.035900116E0,-1.861159897E1,2.069951244E1
5.420526176E0,-2.300000004E-2,-6.847699642E0,-1.486349964E1,1.636505854E1
5.430526176E0,1.489999983E-2,-4.737599850E0,-1.095370007E1,1.193434621E1
5.440526176E0,-1.329299927E0,-2.400300026E0,-6.783400059E0,7.317307897E0
5.450526176E0,-1.273899913E0,2.436999977E-1,-3.891999960E0,4.102422987E0
5.460526176E0,-5.626999736E-1,2.498699903E0,-2.184700012E0,3.366459061E0
5.470526176E0,9.999999404E-2,5.270299911E0,-4.178999960E-1,5.287787965E0
5.480526176E0,4.611999989E-1,7.701099873E0,6.484000087E-1,7.742097084E0
5.490526176E0,9.246000051E-1,9.161999702E0,1.090700030E0,9.272904091E0
5.500526176E0,1.245499969E0,9.566399574E0,2.092099905E0,9.871380501E0
5.510526176E0,1.079200029E0,9.572599411E0,1.516799927E0,9.751923616E0
5.520526176E0,9.426999688E-1,9.585499763E0,8.617999554E-1,9.670221720E0
5.530526176E0,1.239300013E0,9.725399971E0,3.635999858E-1,9.810783560E0
5.540526176E0,1.428499937E0,9.887100220E0,2.663999796E-1,9.993314354E0
5.550526176E0,1.527999997E0,1.010190010E1,5.455999970E-1,1.023136594E1
5.560526176E0,1.930599928E0,1.029930019E1,1.433499932E0,1.057628113E1
5.570526176E0,2.573999882E0,1.052839947E1,2.745299816E0,1.118075766E1
5.580526176E0,3.568499804E0,1.104780006E1,4.859799862E0,1.258593389E1
5.590526176E0,4.443699837E0,1.150039959E1,6.601699829E0,1.398528153E1
5.600526176E0,5.299399853E0,1.185979939E1,8.688799858E0,1.562797886E1
5.610526176E0,5.410299778E0,1.183469963E1,9.313699722E0,1.600238925E1
5.620526176E0,4.550600052E0,1.160219955E1,7.478299618E0,1.453423409E1
5.630526176E0,3.242699862E0,1.137449932E1,4.624700069E0,1.269969243E1
5.640526176E0,2.124199867E0,1.117609978E1,2.699899912E0,1.169217220E1
5.650526176E0,1.482899904E0,1.104369926E1,1.485399961E0,1.124138331E1
5.660526176E0,1.057999969E0,1.088840008E1,4.601999819E-1,1.094935634E1
5.670526176E0,7.310000062E-1,1.059319973E1,-3.440999985E-1,1.062396566E1
5.680526176E0,5.385999680E-1,1.034480000E1,-8.860999942E-1,1.039664129E1
5.690526176E0,4.090999961E-1,1.015359974E1,-1.155900002E0,1.022736795E1
5.700526176E0,3.008999825E-1,9.990699768E0,-1.320099950E0,1.008202790E1
5.710526176E0,7.580000162E-2,9.914999962E0,-1.378600001E0,1.001066970E1
5.720526176E0,-1.871999949E-1,9.857999802E0,-1.165099978E0,9.928376599E0
5.730526176E0,-2.811999917E-1,9.800199509E0,-8.786000013E-1,9.843521819E0
5.740526176E0,-4.114999771E-1,9.682799339E0,-4.341999888E-1,9.701260996E0
5.750526176E0,-3.529999852E-1,9.446800232E0,-1.403999925E-1,9.454435772E0
5.760526176E0,-4.797999859E-1,9.249099731E0,1.955999881E-1,9.263601526E0
5.770526176E0,-5.278999805E-1,9.128499985E0,6.777999997E-1,9.168838705E0
5.780526176E0,-4.782999754E-1,8.417599678E0,4.408800125E0,9.514319405E0
5.790526176E0,7.059999555E-2,7.300600052E0,8.450300217E0,1.116742223E1
5.800526176E0,1.476300001E0,5.320799828E0,1.285960007E1,1.399498790E1
5.810526176E0,-3.895299911E0,-4.485669708E1,1.788979912E1,4.844937097E1
5.820526176E0,1.289689922E1,-6.841770172E1,2.062159920E1,7.261241128E1
5.830526176E0,3.863499880E0,-6.855780029E1,3.395750046E1,7.660424564E1
5.840526176E0,5.640299797E0,-6.667530060E1,2.233559990E1,7.054280767E1
5.850526176E0,1.385800004E0,-2.619779968E1,6.811100006E0,2.710417372E1
5.860526176E0,-2.196599960E0,-6.916399956E0,-3.518999815E0,8.065048012E0
5.870526176E0,-4.891399860E0,4.369499683E0,-3.641970062E1,3.700557949E1
5.880526176E0,-4.323999882E0,6.254600048E0,-3.437569809E1,3.520661324E1
5.890538676E0,8.464999795E-1,6.619999886E0,-2.466319847E1,2.555023130E1
5.900526176E0,3.543900013E0,6.888099670E0,-1.657789993E1,1.829841279E1
5.910526176E0,3.393599987E0,7.562500000E0,-1.089209938E1,1.368743059E1
5.920526176E0,2.505499840E0,8.383699417E0,-6.480999947E0,1.088886154E1
5.930526176E0,1.443599939E0,9.104399681E0,-3.870299816E0,9.997664478E0
5.940538676E0,2.734999955E-1,9.509799957E0,-2.326200008E0,9.793993259E0
5.950526176E0,1.167999953E-1,9.581099510E0,-2.371999919E-1,9.584746940E0
5.960526176E0,2.909999900E-2,9.495999336E0,1.054799914E0,9.554446769E0
5.970526176E0,1.409000009E-1,9.505499840E0,1.398199916E0,9.608815901E0
5.980526176E0,3.930999935E-1,9.560699463E0,9.481999874E-1,9.615642726E0
5.990526176E0,6.050999761E-1,9.674399376E0,7.771999836E-1,9.724412017E0
6.000526176E0,7.921999693E-1,9.927199364E0,1.397099972E0,1.005627945E1
6.010526176E0,9.605999589E-1,1.017379951E1,1.945299983E0,1.040255454E1
6.020526176E0,1.164600015E0,1.033720016E1,2.183199883E0,1.062922209E1
6.030526176E0,1.448499918E0,1.044849968E1,2.463599920E0,1.083229533E1
6.040526176E0,1.848199964E0,1.070510006E1,3.818099976E0,1.151489895E1
6.050526176E0,2.007499933E0,1.086289978E1,4.792299747E0,1.204154411E1
6.060526176E0,1.858099937E0,1.097209930E1,5.207499981E0,1.228647853E1
6.070526176E0,1.618600011E0,1.102209949E1,4.968400002E0,1.219801385E1
6.080526176E0,1.247699976E0,1.094569969E1,3.655900002E0,1.160735550E1
6.090526176E0,7.562999725E-1,1.080060005E1,2.112900019E0,1.103128721E1
6.100526176E0,3.850999773E-1,1.060610008E1,1.059899926E0,1.066588247E1
6.110526176E0,7.939999551E-2,1.046019936E1,6.104999781E-1,1.047830068E1
6.120526176E0,-2.084999979E-1,1.036289978E1,7.224999666E-1,1.039014775E1
6.130526176E0,-3.608999848E-1,1.032429981E1,8.476999998E-1,1.036532733E1
6.140526176E0,-3.865999877E-1,1.026579952E1,8.691999912E-1,1.030978215E1
6.150526176E0,-3.258999884E-1,1.018739986E1,9.088999629E-1,1.023305555E1
6.160526176E0,-2.393999994E-1,1.006919956E1,9.361999631E-1,1.011546156E1
6.170526176E0,-2.671999931E-1,1.009709930E1,1.639499903E0,1.023282806E1
6.180526176E0,-3.322999775E-1,1.007439995E1,2.604199886E0,1.041085081E1
6.190526176E0,-2.504000068E-1,9.794099808E0,2.392999887E0,1.008531307E1
6.200526176E0,-2.384999990E-1,9.353099823E0,1.986999989E0,9.564806715E0
6.210526176E0,-4.299999680E-3,8.907099724E0,1.449899912E0,9.024336748E0
6.220526176E0,2.737999856E-1,8.524000168E0,1.736400008E0,8.703368904E0
6.230526176E0,8.064999580E-1,7.996399879E0,3.002899885E0,8.579642238E0
6.240526176E0,1.713899970E0,6.831699848E0,5.175899982E0,8.740681698E0
6.250526176E0,2.655400038E0,4.478199959E0,6.449699879E0,8.288790790E0
6.260526176E0,-3.773099899E0,-4.149559784E1,1.334739971E1,4.375241710E1
6.270526176E0,-1.277199936E1,-6.852690125E1,2.110350037E1,7.283143476E1
6.280526176E0,-2.279529953E1,-6.869249725E1,3.168349838E1,7.900714480E1
6.290526176E0,5.830000043E-1,-6.240989685E1,1.551480007E1,6.431208390E1
6.300526176E0,8.667300224E0,-2.844469833E1,3.302699804E0,2.991873631E1
6.310526176E0,6.756199837E0,-1.353489971E1,-1.391000003E-1,1.512808961E1
6.320526176E0,5.689699650E0,-7.187699795E0,-3.490999937E0,9.809321638E0
6.330526176E0,-5.128900051E0,-4.928800106E0,-1.588089943E1,1.740119688E1
6.340526176E0,-2.353299856E0,-3.669999838E0,-1.502019978E1,1.564011894E1
6.350526176E0,5.654399872E0,-2.942099810E0,-1.417049980E1,1.553805824E1
6.360526176E0,4.849800110E0,-2.309000015E0,-1.647809982E1,1.733146895E1
6.370526176E0,1.964800000E0,-4.942999780E-1,-1.521949959E1,1.535375977E1
6.380526176E0,2.534999847E-1,1.571999907E0,-1.067449951E1,1.079260792E1
6.390526176E0,-5.868999958E-1,2.945799828E0,-7.203799725E0,7.804929129E0
6.400526176E0,-2.280999869E-1,4.714099884E0,-5.073100090E0,6.929005112E0
6.410526176E0,4.350999892E-1,6.678699970E0,-3.629699945E0,7.613741983E0
6.420526176E0,1.161299944E0,8.500000000E0,-2.559200048E0,8.952548377E0
6.430526176E0,1.199899912E0,9.446299553E0,-1.334200025E0,9.615218393E0
6.440526176E0,1.215399981E0,9.306099892E0,-2.342999876E-1,9.388055645E0
6.450526176E0,1.244400024E0,9.350699425E0,-6.809999794E-2,9.433384799E0
6.460526176E0,1.340600014E0,9.569399834E0,2.630999982E-1,9.666428667E0
6.470526176E0,1.448799968E0,9.776499748E0,4.579999745E-1,9.893873491E0
6.480526176E0,1.544899940E0,1.006169987E1,7.763999701E-1,1.020917807E1
6.490526176E0,2.009199858E0,1.044679928E1,1.776199937E0,1.078551739E1
6.500530864E0,3.063299894E0,1.093359947E1,4.022500038E0,1.204607447E1
6.510526176E0,4.943799973E0,1.176009941E1,7.462599754E0,1.477942798E1
6.520526176E0,6.464299679E0,1.235079956E1,9.531199455E0,1.688707148E1
6.530526176E0,6.763499737E0,1.255200005E1,9.841699600E0,1.732503059E1
6.540526176E0,5.520099640E0,1.236359978E1,8.074699402E0,1.576486187E1
6.550529301E0,3.780599833E0,1.190119934E1,5.795099735E0,1.376643243E1
6.560526176E0,2.103899956E0,1.180109978E1,3.946199894E0,1.262001761E1
6.570526176E0,8.447999954E-1,1.158679962E1,2.901700020E0,1.197445095E1
6.580526176E0,-6.409999728E-2,1.129259968E1,1.437899947E0,1.138395681E1
6.590526176E0,-7.254999876E-1,1.099639988E1,3.475999832E-1,1.102578733E1
6.600526176E0,-1.193400025E0,1.067969990E1,-2.899000049E-1,1.075008072E1
6.610526176E0,-1.345399976E0,1.040189934E1,-9.546999931E-1,1.053190690E1
6.620526176E0,-1.303799987E0,1.013379955E1,-1.482999921E0,1.032439231E1
6.630526176E0,-1.356699944E0,9.953800201E0,-1.692199945E0,1.018736049E1
6.640526176E0,-1.289600015E0,9.724499702E0,-1.879199982E0,9.988010574E0
6.650526176E0,-1.387300014E0,9.308499336E0,-1.831299901E0,9.587826685E0
6.660526176E0,-1.092299938E0,8.999799728E0,-2.020799875E0,9.288333889E0
6.670526176E0,-1.052699924E0,8.808099747E0,-2.125299931E0,9.121825370E0
6.680526176E0,-1.025900006E0,8.625499725E0,-2.202800035E0,8.961252386E0
6.690526176E0,-9.454999566E-1,8.559800148E0,-2.386800051E0,8.936496138E0
6.700526176E0,-8.447999954E-1,8.474299431E0,-2.619299889E0,8.910003916E0
6.710526176E0,-4.344999790E-1,1.965599895E0,3.020799875E0,3.630097115E0
6.720526176E0,2.456399918E0,-6.515069580E1,2.219089890E1,6.887004470E1
6.730526176E0,1.640699983E0,-6.843719482E1,3.200970078E1,7.557091025E1
6.740526176E0,-4.321700096E0,-6.851589966E1,3.349290085E1,7.638638625E1
6.750526176E0,3.505999804E0,-4.747369766E1,1.292639923E1,4.932682639E1
6.760526176E0,6.780499935E0,-1.444169998E1,-2.465999842E0,1.614369948E1
6.770526176E0,7.196899891E0,-9.940999746E-1,-9.721199989E0,1.213611684E1
6.780526176E0,2.834199905E0,4.028999805E0,-2.966749954E1,3.007367716E1
6.790526176E0,-6.855999827E-1,5.938199997E0,-2.085709953E1,2.169679394E1
6.800526176E0,1.449999928E0,5.470200062E0,-1.638649940E1,1.733617464E1
6.810526176E0,2.474400043E0,4.483299732E0,-1.215600014E1,1.319056373E1
6.820526176E0,2.198400021E0,4.467400074E0,-1.020580006E1,1.135557048E1
6.830526176E0,1.538699985E0,4.698599815E0,-8.301899910E0,9.662607308E0
6.840526176E0,7.971000075E-1,5.034100056E0,-5.336599827E0,7.379487076E0
6.850535551E0,7.892000079E-1,6.015399933E0,-2.994499922E0,6.765715246E0
6.860526176E0,8.490999937E-1,7.220799923E0,-1.848199964E0,7.501784150E0
6.870526176E0,1.075199962E0,8.326199532E0,-1.755499959E0,8.576912831E0
6.880526176E0,7.549999952E-1,9.096399307E0,-1.323199987E0,9.223088613E0
6.890526176E0,1.644999981E-1,9.442899704E0,-6.902999878E-1,9.469526342E0
6.900537114E0,-1.609999985E-1,9.727799416E0,-2.854000032E-1,9.733316785E0
6.910526176E0,-3.103999794E-1,9.833499908E0,1.146999970E-1,9.839066251E0
6.920526176E0,-3.482999802E-1,9.798799515E0,-3.224000037E-1,9.810286773E0
6.930526176E0,-5.177000165E-1,9.770699501E0,-1.082299948E0,9.844082244E0
6.940526176E0,-5.385999680E-1,9.749099731E0,-9.226999879E-1,9.807467092E0
6.950527739E0,-4.127999842E-1,9.821499825E0,2.843999863E-1,9.834284213E0
6.960526176E0,-5.629999638E-1,1.000710011E1,9.249999523E-1,1.006551769E1
6.970526176E0,1.780999899E-1,1.059000015E1,4.604300022E0,1.154900002E1
6.980526176E0,1.885699987E0,1.135479927E1,8.763799667E0,1.446691106E1
6.990526176E0,1.913800001E0,1.177339935E1,9.312500000E0,1.513268711E1
7.000532426E0,7.958999872E-1,1.185809994E1,9.159599304E0,1.500487422E1
7.010526176E0,-5.566999912E-1,1.159089947E1,7.371199608E0,1.374748883E1
7.020526176E0,-1.569899917E0,1.129539967E1,5.015100002E0,1.245800415E1
7.030526176E0,-2.063999891E0,1.113799953E1,3.666100025E0,1.190610846E1
7.040526176E0,-2.250200033E0,1.098119926E1,2.631999969E0,1.151423299E1
7.050537114E0,-2.167199850E0,1.077579975E1,1.928900003E0,1.115953721E1
7.060526176E0,-2.060099840E0,1.054119968E1,1.021600008E0,1.078909490E1
7.070526176E0,-1.935499907E0,1.018809986E1,5.069999769E-2,1.037044402E1
7.080526176E0,-1.695099950E0,9.873799324E0,-3.184999824E-1,1.002330879E1
7.090526176E0,-1.249400020E0,9.578299522E0,-4.887999892E-1,9.671801672E0
7.100527739E0,-8.773999810E-1,9.389399529E0,-7.842999697E-1,9.462863239E0
7.110526176E0,-7.800999880E-1,9.267799377E0,-7.109000087E-1,9.327702832E0
7.120526176E0,-6.952999830E-1,8.830999374E0,7.231999636E-1,8.887801202E0
7.130526176E0,-3.122999907E0,-3.179399967E0,2.547799826E0,5.133516974E0
7.140526176E0,-2.092299938E0,-2.668479919E1,4.961400032E0,2.722263245E1
7.150535551E0,-1.990799904E0,-6.264879990E1,2.404660034E1,6.713474809E1
7.160526176E0,-1.123479939E1,-6.844179535E1,2.996159935E1,7.555261414E1
7.170526176E0,-3.280999959E-1,-6.073309708E1,1.162839985E1,6.183717663E1
7.180526176E0,7.669099808E0,-3.168249893E1,2.233599901E0,3.267391619E1
7.190526176E0,8.679699898E0,-1.648950005E1,-4.048599720E0,1.906913637E1
7.200529301E0,7.974599838E0,-1.016309929E1,-7.760900021E0,1.507031515E1
7.210526176E0,6.473000050E0,-1.116979980E1,-2.924899864E1,3.197136342E1
7.220527739E0,-9.969999790E-1,-1.222259998E1,-2.612989998E1,2.886447007E1
7.230526176E0,-1.026000023E0,-1.173069954E1,-1.805099869E1,2.155227462E1
7.240526176E0,4.737999737E-1,-1.009350014E1,-1.193849945E1,1.564068415E1
7.250526176E0,5.673999786E-1,-7.457099915E0,-5.227099895E0,9.124300257E0
7.260526176E0,1.162299991E0,-4.094999790E0,-2.162600040E0,4.774599825E0
7.270526176E0,-4.632999897E-1,-1.433200002E0,-2.210000008E-1,1.522350198E0
7.280526176E0,-2.509999871E-1,8.890999556E-1,3.134000003E-1,9.755610103E-1
7.290526176E0,2.239999920E-2,3.201999903E0,9.565999508E-1,3.341913913E0
7.300526176E0,1.765999943E-1,5.659899712E0,1.519099951E0,5.862876168E0
7.310526176E0,2.302999943E-1,7.840799809E0,1.666599989E0,8.019272738E0
7.320526176E0,1.923999935E-1,9.500899315E0,1.532499909E0,9.625625254E0
7.330526176E0,2.386000007E-1,9.965700150E0,2.063400030E0,1.017986882E1
7.340526176E0,4.160000011E-2,9.903299332E0,1.247799993E0,9.981686883E0
7.350526176E0,1.017000005E-1,9.795700073E0,3.033999801E-1,9.800925179E0
7.360526176E0,3.788000047E-1,9.928599358E0,5.137000084E-1,9.949093544E0
7.370526176E0,4.869999886E-1,1.008679962E1,7.601999640E-1,1.012712198E1
7.380526176E0,5.224999785E-1,1.034959984E1,9.016999602E-1,1.040193664E1
7.390526176E0,8.478999734E-1,1.055109978E1,1.299600005E0,1.066459568E1
7.400526176E0,1.676399946E0,1.095699978E1,2.865399837E0,1.144887231E1
7.410526176E0,2.745800018E0,1.163709927E1,4.988299847E0,1.295548658E1
7.420526176E0,3.605599880E0,1.196539974E1,6.095099926E0,1.390400606E1
7.430526176E0,4.012399673E0,1.223769951E1,6.467000008E0,1.441120153E1
7.440526176E0,4.313099861E0,1.229689980E1,6.778699875E0,1.468902131E1
7.450526176E0,4.022200108E0,1.232879925E1,6.186599731E0,1.436841678E1
7.460526176E0,3.289700031E0,1.214680004E1,5.399399757E0,1.369380865E1
7.470526176E0,2.328999996E0,1.191619968E1,3.864799976E0,1.274192822E1
7.480526176E0,1.324899912E0,1.151859951E1,2.454299927E0,1.185145909E1
7.490526176E0,5.586999655E-1,1.107109928E1,1.537499905E0,1.119130425E1
7.500526176E0,8.249999583E-2,1.076970005E1,9.397999644E-1,1.081094211E1
7.510526176E0,-3.978999853E-1,1.052649975E1,4.720000029E-1,1.054458654E1
7.520526176E0,-7.157999873E-1,1.035129929E1,-1.599999890E-2,1.037603115E1
7.530526176E0,-8.710999489E-1,1.022449970E1,-4.768999815E-1,1.027261617E1
7.540526176E0,-7.759999633E-1,1.005789948E1,-9.599999785E-1,1.013336656E1
7.550526176E0,-7.254999876E-1,9.881099701E0,-1.023199916E0,9.960392542E0
7.560524614E0,-6.516999602E-1,9.507199287E0,-8.054999709E-1,9.563492110E0
7.570526176E0,-2.737999856E-1,9.280799866E0,-4.684000015E-1,9.296645155E0
7.580526176E0,-2.610999942E-1,9.161099434E0,-2.701999843E-1,9.168801671E0
7.590526176E0,-4.190999866E-1,9.030599594E0,-3.977999985E-1,9.049067282E0
7.600526176E0,-3.470000029E-1,8.869400024E0,8.190000057E-2,8.876563153E0
7.610526176E0,2.499999944E-3,8.314700127E0,2.596400023E0,8.710656549E0
7.620526176E0,1.194999933E0,6.316599846E0,1.122179985E1,1.293275881E1
7.630526176E0,-2.707799911E0,-5.782279968E1,2.922529984E1,6.484540457E1
7.640526176E0,-5.882799625E0,-6.840829468E1,2.830309868E1,7.426552031E1
7.650526176E0,-9.920899391E0,-6.845420074E1,3.104129982E1,7.581532918E1
7.660526176E0,2.041800022E0,-5.789629745E1,2.036059952E1,6.140606012E1
7.670526176E0,6.647599697E0,-2.057049942E1,5.509599686E0,2.230900529E1
7.680526176E0,3.463599920E0,-4.815099716E0,-3.517599821E0,6.896029161E0
7.690526176E0,-2.499300003E0,3.455399990E0,-3.238089752E1,3.266050848E1
7.700526176E0,1.664499998E0,4.881700039E0,-2.836339951E1,2.882852731E1
7.710526176E0,5.582499981E0,4.442199707E0,-2.503660011E1,2.603322472E1
7.720535551E0,5.602399826E0,4.482699871E0,-1.964539909E1,2.091466441E1
7.730526176E0,3.709299803E0,5.088500023E0,-1.467959976E1,1.597317710E1
7.740526176E0,3.282399893E0,6.480799675E0,-1.032719994E1,1.262639980E1
7.750526176E0,3.214499950E0,8.229000092E0,-6.802799702E0,1.115022584E1
7.760526176E0,2.646299839E0,9.151999474E0,-4.888700008E0,1.070800565E1
7.770526176E0,1.988099933E0,9.635999680E0,-2.974699974E0,1.027880689E1
7.780526176E0,1.457899928E0,9.851900101E0,-7.084000111E-1,9.984349672E0
7.790526176E0,1.177099943E0,1.000099945E1,8.001999855E-1,1.010177580E1
7.800526176E0,7.766999602E-1,1.010069942E1,9.810999632E-1,1.017791476E1
7.810526176E0,6.759999990E-1,1.029899979E1,1.661299944E0,1.045400833E1
7.820526176E0,8.315999508E-1,1.071519947E1,2.826499939E0,1.111288262E1
7.830526176E0,9.304999709E-1,1.082129955E1,3.009299994E0,1.127041440E1
7.840526176E0,8.542999625E-1,1.079570007E1,2.627300024E0,1.114359340E1
7.850526176E0,7.735999823E-1,1.074759960E1,2.395499945E0,1.103846792E1
7.860526176E0,1.108600020E0,1.098129940E1,3.736399889E0,1.165240811E1
7.870526176E0,1.387699962E0,1.122219944E1,5.475499630E0,1.256362080E1
7.880526176E0,1.550999999E0,1.143229961E1,5.907399654E0,1.296149861E1
7.890526176E0,5.884999633E-1,1.136779976E1,6.327699661E0,1.302355507E1
7.900526176E0,-7.475000024E-1,1.095129967E1,5.853299618E0,1.243988895E1
7.910529301E0,-9.347999692E-1,1.063420010E1,4.832999706E0,1.171827414E1
7.920526176E0,-1.140399933E0,1.032789993E1,3.754699945E0,1.104824876E1
7.930526176E0,-1.200299978E0,1.021869946E1,2.827699900E0,1.067044635E1
7.940526176E0,-1.212099910E0,1.017910004E1,2.426499844E0,1.053428523E1
7.950526176E0,-1.096400023E0,1.015030003E1,2.381399870E0,1.048340350E1
7.960537114E0,-6.467999816E-1,1.023069954E1,2.380899906E0,1.052398440E1
7.970526176E0,-1.732999980E-1,1.045949936E1,2.647699833E0,1.079080507E1
7.980526176E0,4.341999888E-1,1.073820019E1,2.818099976E0,1.111031774E1
7.990526176E0,8.424999714E-1,1.099779987E1,3.707199812E0,1.163635418E1
8.000526176E0,1.260800004E0,1.105140018E1,4.910999775E0,1.215898768E1
8.010532426E0,1.339800000E0,1.080000019E1,5.546199799E0,1.221455690E1
8.020526176E0,1.066599965E0,9.192099571E0,3.402799845E0,9.859582993E0
8.030526176E0,1.226099968E0,8.078399658E0,1.626799941E0,8.331286828E0
8.040526176E0,1.440999985E0,7.310899734E0,9.765999913E-1,7.515283323E0
8.050526176E0,1.700899959E0,5.596099854E0,2.255399942E0,6.268669966E0
8.060535551E0,-2.202199936E0,-2.173810005E1,6.394899845E0,2.276597071E1
8.070526176E0,-3.022500038E0,-6.440290070E1,2.386719894E1,6.874963498E1
8.080526176E0,-1.462179947E1,-6.845389557E1,2.952939987E1,7.597182567E1
8.090526176E0,3.548799992E0,-6.345719910E1,2.034849930E1,6.673433541E1
8.100526176E0,7.087100029E0,-3.639889908E1,1.000349998E1,3.840803110E1
8.110538676E0,5.575799942E0,-2.016409874E1,1.973499894E0,2.101368899E1
8.120526176E0,1.898499966E0,-1.351099968E1,-2.858399868E0,1.393993774E1
8.130526176E0,-3.967099905E0,-1.472769928E1,-3.801860046E1,4.096409390E1
8.140532426E0,-5.090199947E0,-1.235330009E1,-3.095139885E1,3.371206386E1
8.150526176E0,-1.805299997E0,-9.542099953E0,-2.327429962E1,2.521911581E1
8.160526176E0,7.055999637E-1,-6.382699966E0,-1.519329929E1,1.649463772E1
8.170526176E0,9.912999868E-1,-3.625099897E0,-7.967000008E0,8.808922411E0
8.180526176E0,3.639999777E-2,-1.084399939E0,-3.847800016E0,3.997851067E0
8.190526176E0,2.879000008E-1,1.334999919E0,-9.496999979E-1,1.663442599E0
8.200526176E0,1.024999976E0,4.111400127E0,8.762999773E-1,4.326908551E0
8.210526176E0,1.733799934E0,6.908899784E0,7.012000084E-1,7.157558235E0
8.220526176E0,1.632099986E0,8.845499992E0,7.797999978E-1,9.028549635E0
8.230526176E0,1.541099906E0,9.499699593E0,7.092999816E-1,9.649994183E0
8.240526176E0,1.531899929E0,9.587100029E0,8.777999878E-1,9.748319710E0
8.250526176E0,1.585500002E0,9.656700134E0,9.663999677E-1,9.833595306E0
8.260526176E0,1.786799908E0,9.895799637E0,1.227100015E0,1.013041356E1
8.270526176E0,1.974799991E0,1.013899994E1,1.518199921E0,1.044050218E1
8.280526176E0,2.293499947E0,1.038759995E1,2.609999895E0,1.095328599E1
8.290526176E0,2.975100040E0,1.071189976E1,4.036900043E0,1.182761931E1
8.300526176E0,3.611799955E0,1.104539967E1,4.643799782E0,1.251442484E1
8.310532426E0,3.795599937E0,1.124289989E1,4.362199783E0,1.264271189E1
8.320526176E0,3.544799805E0,1.127589989E1,4.180500031E0,1.253746802E1
8.330526176E0,3.344300032E0,1.134989929E1,3.882499933E0,1.245304631E1
8.340530864E0,3.161199808E0,1.145429993E1,3.375599861E0,1.235268576E1
8.350526176E0,2.697299957E0,1.153929996E1,2.516799927E0,1.211466684E1
8.360526176E0,1.997199893E0,1.146710014E1,1.397799969E0,1.172335438E1
8.370526176E0,1.389500022E0,1.133510017E1,1.006099939E0,1.146418088E1
8.380526176E0,9.455999732E-1,1.109420013E1,1.176599979E0,1.119642012E1
8.390537114E0,5.577999949E-1,1.088189983E1,1.579999924E0,1.101014462E1
8.400526176E0,1.851999909E-1,1.060059929E1,1.745599985E0,1.074495806E1
8.410526176E0,-1.609999873E-2,1.033879948E1,1.479499936E0,1.044413490E1
8.420526176E0,-8.449999988E-2,1.014550018E1,1.042599916E0,1.019928080E1
8.430526176E0,-5.969999731E-2,1.000089931E1,3.463000059E-1,1.000707124E1
8.440526176E0,-6.140000001E-2,9.983099937E0,7.259999961E-2,9.983552728E0
8.450526176E0,-3.700000001E-3,9.925000191E0,2.070000023E-2,9.925022467E0
8.460526176E0,2.699999837E-3,9.796899796E0,1.819999963E-1,9.798590556E0
8.470526176E0,4.499999806E-3,9.510299683E0,4.481000006E-1,9.520851533E0
8.480526176E0,9.600000083E-2,9.172200203E0,8.939999938E-1,9.216165610E0
8.490526176E0,1.250000000E-1,8.762399673E0,1.321200013E0,8.862327150E0
8.500526176E0,3.734000027E-1,8.318900108E0,2.564899921E0,8.713336799E0
8.510526176E0,7.963999510E-1,7.242399693E0,5.341300011E0,9.034162495E0
8.520526176E0,1.449199915E0,5.089299679E0,6.832099915E0,8.641686228E0
8.530526176E0,-5.787799835E0,-5.485179901E1,2.215729904E1,5.944042717E1
8.540526176E0,-4.336400032E0,-6.849039459E1,2.939709854E1,7.465874309E1
8.550526176E0,-1.070759964E1,-6.854689789E1,3.438639832E1,7.743225613E1
8.560526176E0,-3.759999871E-1,-5.752459717E1,1.937709999E1,6.070166933E1
8.570526176E0,4.408699989E0,-2.095940018E1,6.249799728E0,2.231127715E1
8.580526176E0,3.220700026E0,-5.624700069E0,-5.685899734E0,8.622042410E0
8.590526176E0,-4.518899918E0,9.932999611E-1,-4.043389893E1,4.069775527E1
8.600526176E0,1.045199990E0,3.158200026E0,-3.839249802E1,3.853635393E1
8.610526176E0,4.176700115E0,3.356799841E0,-2.600739861E1,2.655367604E1
8.620526176E0,1.882299900E0,3.433099985E0,-1.575419998E1,1.623342371E1
8.630526176E0,1.377399921E0,4.719699860E0,-8.181399345E0,9.545055922E0
8.640526176E0,1.777999997E0,6.227799892E0,-3.784099817E0,7.501079050E0
8.650526176E0,9.025999904E-1,7.623999596E0,-1.548099995E0,7.831773118E0
8.660526176E0,3.673999906E-1,8.713699341E0,4.190999866E-1,8.731505240E0
8.670526176E0,3.707999885E-1,9.517999649E0,1.430400014E0,9.632022329E0
8.680538676E0,3.420999944E-1,9.919400215E0,1.311800003E0,1.001161087E1
8.690526176E0,2.439999953E-2,9.857899666E0,9.636999965E-1,9.904922961E0
8.700526176E0,-1.645999998E-1,9.851900101E0,1.843999982E0,1.002433862E1
8.710526176E0,-2.584999800E-1,9.859700203E0,2.113999844E0,1.008709600E1
8.720526176E0,-1.879999973E-2,9.899799347E0,1.700699925E0,1.004483752E1
8.730538676E0,4.197999835E-1,1.009060001E1,1.688199997E0,1.023945604E1
8.740526176E0,6.978999972E-1,1.021759987E1,1.752599955E0,1.039028479E1
8.750526176E0,7.622999549E-1,1.035069942E1,1.420799971E0,1.047553113E1
8.760526176E0,8.683999777E-1,1.058909988E1,1.187999964E0,1.069086053E1
8.770526176E0,1.402499914E0,1.079629993E1,2.143699884E0,1.109606000E1
8.780529301E0,2.465299845E0,1.118839931E1,4.391299725E0,1.226953527E1
8.790526176E0,3.158900023E0,1.148119926E1,5.948800087E0,1.331107841E1
8.800526176E0,2.747999907E0,1.159729958E1,6.192499638E0,1.343115456E1
8.810526176E0,1.446999907E0,1.140040016E1,5.162499905E0,1.259818788E1
8.820526176E0,1.768999994E-1,1.107689953E1,3.655900002E0,1.166595909E1
8.830527739E0,-5.218999982E-1,1.086199951E1,2.741499901E0,1.121477751E1
8.840526176E0,-8.693000078E-1,1.060799980E1,2.083999872E0,1.084566262E1
8.850526176E0,-1.030300021E0,1.040320015E1,1.470699906E0,1.055703792E1
8.860526176E0,-9.857999682E-1,1.016879940E1,8.851000071E-1,1.025473963E1
8.870526176E0,-8.739999533E-1,9.953599930E0,5.250999928E-1,1.000568626E1
8.880533989E0,-7.166999578E-1,9.884900093E0,5.665000081E-1,9.927025281E0
8.890526176E0,-5.166000128E-1,9.972199440E0,9.487999678E-1,1.003054628E1
8.900526176E0,-1.502999961E-1,9.989399910E0,1.385599971E0,1.008615823E1
8.910526176E0,3.199999779E-2,9.622300148E0,1.787799954E0,9.787027782E0
8.920526176E0,5.066999793E-1,9.046699524E0,1.574800014E0,9.196712034E0
8.930530864E0,9.375999570E-1,8.722899437E0,2.434099913E0,9.104554391E0
8.940526176E0,1.229499936E0,8.061100006E0,4.273600101E0,9.206338101E0
8.950526176E0,1.761399984E0,6.048699856E0,8.093099594E0,1.025609872E1
8.960526176E0,-6.041399956E0,-4.501759720E1,1.922739983E1,4.932317381E1
8.970526176E0,-5.152499676E0,-6.838069916E1,2.507489967E1,7.301519612E1
8.980537114E0,-1.368379974E1,-6.856019592E1,2.553629875E1,7.443016455E1
8.990526176E0,2.662199974E0,-5.764239883E1,1.406189919E1,5.939251182E1
9.000526176E0,5.774499893E0,-2.663319969E1,5.443799973E0,2.779041441E1
9.010526176E0,4.522799969E0,-1.403629971E1,-5.209999904E-2,1.474707237E1
9.020526176E0,5.257999897E-1,-9.781799316E0,-1.481059933E1,1.775708073E1
9.030526176E0,-5.256999969E0,-8.825699806E0,-2.975319862E1,3.147668747E1
9.040526176E0,-1.225899935E0,-6.608799934E0,-3.170819855E1,3.241278949E1
9.050526176E0,8.989999890E-1,-4.701900005E0,-2.499699974E1,2.545124871E1
9.060526176E0,2.400999963E-1,-2.791100025E0,-1.830360031E1,1.851674031E1
9.070526176E0,2.388999909E-1,-4.023000002E-1,-1.133039951E1,1.134005607E1
9.080526176E0,2.100999951E-1,1.541099906E0,-5.450999737E0,5.668556171E0
9.090526176E0,6.847999692E-1,3.442099810E0,-1.270699978E0,3.732516648E0
9.100529301E0,1.355999947E0,5.510900021E0,6.183999777E-1,5.708867963E0
9.110526176E0,2.356799841E0,8.227999687E0,4.842999876E-1,8.572574340E0
9.120526176E0,2.480700016E0,9.682600021E0,1.153399944E0,1.006165728E1
9.130526176E0,1.916700006E0,9.598299980E0,1.280399919E0,9.871196755E0
9.140526176E0,1.637399912E0,9.423500061E0,1.954199910E0,9.762291184E0
9.150530864E0,1.926799893E0,9.529199600E0,3.085799932E0,1.020001785E1
9.160526176E0,2.708600044E0,9.827300072E0,4.315599918E0,1.106963159E1
9.170526176E0,3.793499947E0,1.034070015E1,5.462899685E0,1.229487675E1
9.180526176E0,5.952899933E0,1.134889984E1,8.268699646E0,1.525142416E1
9.190526176E0,7.607399940E0,1.214239979E1,9.465499878E0,1.717283012E1
9.200535551E0,7.992399693E0,1.240380001E1,9.674900055E0,1.764472722E1
9.210526176E0,7.788499832E0,1.258699989E1,9.670899391E0,1.768105175E1
9.220526176E0,6.210999966E0,1.251389980E1,7.332799911E0,1.577796449E1
9.230526176E0,3.875499964E0,1.216939926E1,4.920499802E0,1.368667588E1
9.240526176E0,2.006599903E0,1.179360008E1,2.974999905E0,1.232745191E1
9.250533989E0,7.502999902E-1,1.137430000E1,1.734200001E0,1.153018214E1
9.260526176E0,-7.620000094E-2,1.094099998E1,1.179000020E0,1.100460486E1
9.270526176E0,-5.835999846E-1,1.053419971E1,5.006999969E-1,1.056222766E1
9.280526176E0,-8.430999517E-1,1.016459942E1,-2.178999931E-1,1.020183215E1
9.290526176E0,-9.253000021E-1,9.969799995E0,-5.070999861E-1,1.002547966E1
9.300537114E0,-9.879999757E-1,9.871899605E0,-6.800000072E-1,9.944493238E0
9.310526176E0,-1.052500010E0,9.851299286E0,-6.865999699E-1,9.931126492E0
9.320526176E0,-1.129999995E0,9.829899788E0,-7.324999571E-1,9.921712857E0
9.330526176E0,-1.152499914E0,9.797800064E0,-7.967000008E-1,9.897468012E0
9.340526176E0,-1.307500005E0,9.765199661E0,-9.366999865E-1,9.896771572E0
9.350538676E0,-1.623899937E0,9.692799568E0,-9.738999605E-1,9.876026306E0
9.360526176E0,-1.854999900E0,9.492799759E0,-5.042999983E-1,9.685483487E0
9.370526176E0,-1.628700018E0,9.214200020E0,-3.152999878E-1,9.362347987E0
9.380526176E0,-1.517599940E0,9.062899590E0,5.069999769E-2,9.189223528E0
9.390526176E0,-1.358999968E0,8.979700089E0,3.455999792E-1,9.088527600E0
9.400532426E0,-1.255699992E0,8.954299927E0,7.917000055E-1,9.076511364E0
9.410526176E0,-7.134000063E-1,9.083899498E0,5.514000058E-1,9.128538307E0
9.420526176E0,-1.251019955E1,-2.573079872E1,1.366930008E1,3.170849823E1
9.430526176E0,-8.356999755E-1,-6.788209534E1,2.925979996E1,7.392437457E1
9.440526176E0,-5.902199745E0,-6.843450165E1,3.198600006E1,7.577084649E1
9.450538676E0,1.238899946E0,-6.850519562E1,1.344229984E1,6.982257604E1
9.460526176E0,8.318399429E0,-3.527000046E1,3.891499996E0,3.644602137E1
9.470526176E0,4.823299885E0,-1.208769989E1,1.101999998E0,1.306105334E1
9.480526176E0,2.086899996E0,-1.986699939E0,-4.560199738E0,5.394214483E0
9.490526176E0,-8.668799400E0,3.520900011E0,-1.642749977E1,1.890522596E1
9.500526176E0,-1.500499964E0,4.799299717E0,-1.485069942E1,1.567890466E1
9.510526176E0,6.871199608E0,6.655599594E0,-2.026529884E1,2.240965701E1
9.520526176E0,6.089099884E0,5.045700073E0,-1.894529915E1,2.052950527E1
9.530532426E0,4.457399845E0,5.187299728E0,-1.374349976E1,1.535123048E1
9.540526176E0,5.072599888E0,6.877899647E0,-8.088099480E0,1.176665315E1
9.550526176E0,4.341000080E0,8.339699745E0,-5.668999672E0,1.097872628E1
9.560526176E0,2.720299959E0,9.109000206E0,-4.793099880E0,1.064648877E1
9.570526176E0,1.089999914E0,9.429200172E0,-3.737999916E0,1.020149788E1
9.580526176E0,-3.989999741E-2,9.576399803E0,-2.396899939E0,9.871887080E0
9.590526176E0,-4.725999832E-1,9.602899551E0,-1.464999914E0,9.725495118E0
9.600526176E0,-5.117999911E-1,9.632899284E0,-1.271499991E0,9.729922923E0
9.610526176E0,-5.313999653E-1,9.761400223E0,-7.700999975E-1,9.806139620E0
9.620533989E0,-4.460999966E-1,9.937199593E0,-3.929999843E-2,9.947285330E0
9.630530864E0,-2.990999818E-1,9.991899490E0,3.299999833E-1,1.000182064E1
9.640526176E0,-8.659999818E-2,1.004259968E1,7.558000088E-1,1.007137237E1
9.650526176E0,1.864999980E-1,1.020720005E1,1.294600010E0,1.029066102E1
9.660526176E0,4.955999851E-1,1.035809994E1,1.716199994E0,1.051100357E1
9.670532426E0,7.286999822E-1,1.052530003E1,2.332399845E0,1.080523176E1
9.680526176E0,9.617999792E-1,1.071910000E1,2.858299971E0,1.113526123E1
9.690526176E0,9.766999483E-1,1.081260014E1,2.949100018E0,1.125004246E1
9.700526176E0,8.600999713E-1,1.088509941E1,2.862099886E0,1.128790401E1
9.710526176E0,7.692999840E-1,1.095650005E1,3.178099871E0,1.143402968E1
9.720533989E0,4.007999897E-1,1.086049938E1,3.150399923E0,1.131530411E1
9.730526176E0,-6.669999659E-2,1.062689972E1,2.541299820E0,1.092674020E1
9.740526176E0,-3.851999938E-1,1.044229984E1,1.969199896E0,1.063333218E1
9.750526176E0,-6.597999930E-1,1.030659962E1,1.134400010E0,1.038981208E1
9.760526176E0,-7.220000029E-1,1.023939991E1,4.626999795E-1,1.027524626E1
9.770529301E0,-7.488999963E-1,1.024049950E1,2.351999879E-1,1.027054040E1
9.780526176E0,-7.513999939E-1,1.020189953E1,8.289999515E-2,1.022986942E1
9.790526176E0,-6.908999681E-1,1.019219971E1,1.252000034E-1,1.021635711E1
9.800526176E0,-7.351999879E-1,1.020139980E1,5.282999873E-1,1.024149295E1
9.810526176E0,-6.700999737E-1,1.009189987E1,9.068999887E-1,1.015470062E1
9.820535551E0,-4.677999914E-1,9.696799278E0,9.728999734E-1,9.756704743E0
9.830526176E0,-1.811999977E-1,9.143300056E0,9.206999540E-1,9.191325137E0
9.840526176E0,8.829999715E-2,8.813599586E0,1.642399907E0,8.965757749E0
9.850526176E0,4.661999941E-1,8.432499886E0,2.582099915E0,8.831287376E0
9.860526176E0,9.969999790E-1,7.754099846E0,4.294600010E0,8.919846558E0
9.870540239E0,1.911799908E0,6.247699738E0,6.903999805E0,9.505469174E0
9.880526176E0,-1.469699979E0,-2.395769882E1,1.326649952E1,2.742501341E1
9.890526176E0,8.675000072E-1,-6.710659790E1,2.186960030E1,7.058560374E1
9.900526176E0,-1.231639957E1,-6.848490143E1,2.759169960E1,7.485437401E1
9.910526176E0,-7.293599606E0,-6.852279663E1,2.696879959E1,7.399923246E1
9.920537114E0,1.366899967E0,-3.660960007E1,1.243079948E1,3.868663863E1
9.930526176E0,1.384099960E0,-1.607789993E1,4.433599949E0,1.673533410E1
9.940526176E0,7.127999663E-1,-6.230899811E0,-4.055999815E-1,6.284640609E0
9.950529301E0,-2.488899946E0,-2.698599815E0,-1.558449936E1,1.601104882E1
9.960526176E0,-2.215899944E0,-3.203699827E0,-3.141020012E1,3.165082269E1
9.970526176E0,2.429800034E0,-2.151900053E0,-2.831789970E1,2.850329886E1
9.980526176E0,4.667699814E0,-1.273299932E0,-2.223439980E1,2.275471926E1
9.990526176E0,2.993899822E0,-3.942999840E-1,-1.539989948E1,1.569317727E1
1.000052774E1,1.367100000E0,1.231099963E0,-9.924499512E0,1.009357519E1
1.001052618E1,9.782999754E-1,3.082399845E0,-5.085899830E0,6.026992345E0
1.002052618E1,1.173399925E0,4.835999966E0,-2.820099831E0,5.719853679E0
1.003052618E1,1.770499945E0,6.571599960E0,-1.786299944E0,7.036438274E0
1.004052618E1,1.467199922E0,7.783399582E0,-7.817999721E-1,7.958969522E0
1.005052618E1,1.491299987E0,8.888899803E0,6.704999804E-1,9.038035494E0
1.006052461E1,1.439799905E0,9.385000229E0,1.657199979E0,9.638338282E0
1.007052618E1,1.111500025E0,9.635499954E0,1.586499929E0,9.828289459E0
1.008052618E1,7.622999549E-1,9.785299301E0,7.669999599E-1,9.844870369E0
1.009052618E1,7.335999608E-1,9.955999374E0,2.055999935E-1,9.985107100E0
1.010052618E1,7.091999650E-1,9.904500008E0,-2.434999943E-1,9.932843361E0
1.011052618E1,7.754999995E-1,9.926899910E0,-5.419999734E-2,9.957292790E0
1.012052618E1,1.109200001E0,1.003399944E1,1.092399955E0,1.015405373E1
1.013052618E1,1.875599980E0,1.038359928E1,2.667699814E0,1.088364055E1
1.014052618E1,2.785199881E0,1.083889961E1,4.393199921E0,1.202244936E1
1.015052618E1,3.104799986E0,1.102779961E1,5.134099960E0,1.255432712E1
1.016052618E1,2.732699871E0,1.105900002E1,4.984799862E0,1.243452289E1
1.017052618E1,2.014499903E0,1.103069973E1,4.250099659E0,1.199157594E1
1.018052618E1,1.144199967E0,1.081579971E1,2.990499973E0,1.127979641E1
1.019053868E1,6.117999554E-1,1.071809959E1,1.967899919E0,1.091442111E1
1.020052618E1,2.956999838E-1,1.072799969E1,1.543499947E0,1.084250007E1
1.021052618E1,7.159999758E-2,1.062979984E1,1.231099963E0,1.070109239E1
1.022052618E1,-4.089999944E-2,1.058049965E1,9.145999551E-1,1.062003478E1
1.023052618E1,-6.300000101E-2,1.051149940E1,6.832000017E-1,1.053386686E1
1.024052930E1,-8.509999514E-2,1.046189976E1,4.976999760E-1,1.047407723E1
1.025052618E1,1.789999940E-2,1.032389927E1,3.386999965E-1,1.032946921E1
1.026052618E1,1.448999941E-1,1.020520020E1,6.085999608E-1,1.022435822E1
1.027052618E1,3.210999966E-1,1.017430019E1,1.363399982E0,1.027026529E1
1.028052618E1,3.181000054E-1,1.007429981E1,2.027499914E0,1.028121881E1
1.029052930E1,1.332999915E-1,9.757399559E0,2.574399948E0,1.009218262E1
1.030052618E1,6.149999797E-2,9.085899353E0,2.528399944E0,9.431339013E0
1.031052618E1,3.019999862E-1,8.764800072E0,2.692299843E0,9.173952405E0
1.032052618E1,4.992999732E-1,8.342299461E0,3.468499899E0,9.048411591E0
1.033052618E1,7.770000100E-1,7.542099953E0,5.015899658E0,9.090998300E0
1.034053399E1,1.448199987E0,5.822299957E0,7.497299671E0,9.602393574E0
1.035052618E1,-7.061100006E0,-3.802709961E1,1.811829948E1,4.271056326E1
1.036052618E1,-7.807399750E0,-6.818379974E1,1.959239960E1,7.137119980E1
1.037052618E1,-2.024300003E1,-6.855670166E1,2.747489929E1,7.658113661E1
1.038052618E1,-1.184840012E1,-6.651480103E1,2.197130013E1,7.104464350E1
1.039052774E1,-1.187799931E0,-3.015909958E1,8.888500214E0,3.146406827E1
1.040052618E1,2.439299822E0,-1.140369987E1,-1.894199967E0,1.181450583E1
1.041052618E1,-4.041000009E-1,-4.727299690E0,-1.953529930E1,2.010319820E1
1.042053555E1,-5.188499928E0,-3.335399866E0,-2.745399857E1,2.813836280E1
1.043052618E1,-2.466099977E0,-3.099799871E0,-2.280480003E1,2.314625916E1
1.044052618E1,1.013000011E-1,-2.795099974E0,-1.839419937E1,1.860562861E1
1.045052618E1,1.467700005E0,-1.409999967E0,-1.469149971E1,1.483180390E1
1.046052618E1,1.538199902E0,6.664999723E-1,-1.022289944E1,1.035943792E1
1.047052618E1,9.286999702E-1,2.111700058E0,-6.112699986E0,6.533518339E0
1.048052618E1,8.631999493E-1,3.218899965E0,-3.586399794E0,4.895783351E0
1.049052618E1,1.254400015E0,4.602299690E0,-1.742299914E0,5.078414204E0
1.050053711E1,1.663899899E0,6.184000015E0,-2.985999882E-1,6.410895492E0
1.051052618E1,2.027099848E0,7.801799774E0,6.474999785E-1,8.086808377E0
1.052052618E1,1.994899988E0,9.023599625E0,1.381899953E0,9.344229429E0
1.053052618E1,1.951900005E0,9.507399559E0,2.019799948E0,9.913634643E0
1.054052618E1,1.976199985E0,9.774399757E0,1.461199999E0,1.007865876E1
1.055052930E1,2.113399982E0,9.993499756E0,9.350000024E-1,1.025722779E1
1.056052618E1,2.101300001E0,1.009739971E1,1.555499911E0,1.043036541E1
1.057052774E1,2.622499943E0,1.042280006E1,2.960500002E0,1.114795171E1
1.058052618E1,5.093999863E0,1.130149937E1,4.562299728E0,1.320936415E1
1.059052618E1,7.165799618E0,1.190409946E1,5.665299892E0,1.500506218E1
1.060052930E1,7.794299603E0,1.231180000E1,6.756999969E0,1.606202273E1
1.061052618E1,6.555999756E0,1.207439995E1,7.262099743E0,1.554060358E1
1.062052618E1,4.004600048E0,1.148409939E1,6.471799850E0,1.377699363E1
1.063052618E1,1.407899976E0,1.104850006E1,5.108999729E0,1.225371022E1
1.064052618E1,-2.168999910E-1,1.092329979E1,3.783599854E0,1.156205655E1
1.065052618E1,-1.065599918E0,1.106019974E1,2.519799948E0,1.139354700E1
1.066052618E1,-1.519299984E0,1.110729980E1,1.539799929E0,1.131597831E1
1.067052618E1,-1.631999969E0,1.098719978E1,8.740999699E-1,1.114208390E1
1.068052618E1,-1.569899917E0,1.077880001E1,1.905999929E-1,1.089419312E1
1.069052618E1,-1.449299932E0,1.048209953E1,-3.838999867E-1,1.058877992E1
1.070052618E1,-1.452799916E0,1.025379944E1,-7.012999654E-1,1.037992544E1
1.071052618E1,-1.456300020E0,1.010379982E1,-8.297999501E-1,1.024188208E1
1.072052618E1,-1.295300007E0,9.943699837E0,-9.074999690E-1,1.006869032E1
1.073052618E1,-1.227100015E0,9.783299446E0,-8.756999969E-1,9.898766235E0
1.074052618E1,-9.693999887E-1,9.494899750E0,-8.629999757E-1,9.583195008E0
1.075052618E1,-6.035000086E-1,9.166500092E0,-7.725999951E-1,9.218776868E0
1.076052618E1,-5.945999622E-1,9.209899902E0,-6.550999880E-1,9.252294922E0
1.077052618E1,-5.900999904E-1,9.085399628E0,-3.949999809E-1,9.113107559E0
1.078052618E1,-5.127999783E-1,8.822199821E0,4.690000042E-2,8.837215235E0
1.079052618E1,1.062999964E-1,8.184800148E0,2.082399845E0,8.446220591E0
1.080052618E1,2.039599895E0,4.652199745E0,7.638599873E0,9.173392950E0
1.081052618E1,-2.064100027E0,-3.743779755E1,1.641559982E1,4.093068667E1
1.082052618E1,4.840199947E0,-6.814469910E1,3.395339966E1,7.628866822E1
1.083052618E1,-1.143410015E1,-6.850260162E1,3.405759811E1,7.735156795E1
1.084052618E1,-2.375000000E0,-6.617399597E1,2.157419968E1,6.964254777E1
1.085052618E1,-3.427000046E-1,-3.252309799E1,6.435499668E0,3.315546715E1
1.086052618E1,-5.769999698E-2,-1.450719929E1,-2.606699944E0,1.473964196E1
1.087052618E1,1.661099911E0,-6.677199841E0,-2.237380028E1,2.340793006E1
1.088052618E1,-2.552000046E0,-5.233799934E0,-2.802379990E1,2.862234663E1
1.089052618E1,-3.876599789E0,-6.035799980E0,-3.444149780E1,3.518061509E1
1.090052618E1,-9.807999730E-1,-3.954599857E0,-2.658479881E1,2.689521066E1
1.091052618E1,7.540999651E-1,-1.980899930E0,-2.153639984E1,2.164045169E1
1.092053243E1,4.030999839E-1,-2.788999975E-1,-1.472049999E1,1.472865896E1
1.093052618E1,5.098999739E-1,1.212199926E0,-7.874499798E0,7.983556458E0
1.094052618E1,1.392699957E0,2.751499891E0,-3.626999855E0,4.760829000E0
1.095052618E1,1.672899961E0,4.500799656E0,-1.131500006E0,4.933161672E0
1.096052618E1,1.908100009E0,6.524099827E0,7.292999625E-1,6.836417383E0
1.097052618E1,2.067399979E0,8.476900101E0,2.656199932E0,9.120711380E0
1.098052618E1,1.845499992E0,9.387800217E0,4.068200111E0,1.039648572E1
1.099052618E1,1.298599958E0,9.415200233E0,3.195999861E0,1.002730135E1
1.100052618E1,1.013899922E0,9.435400009E0,2.254299879E0,9.753801020E0
1.101052618E1,1.490000010E0,9.677499771E0,2.513399839E0,1.010897030E1
1.102052618E1,2.222199917E0,9.859899521E0,2.473399878E0,1.040545520E1
1.103052618E1,3.820599794E0,1.034840012E1,3.029599905E0,1.143961727E1
1.104053711E1,7.715199947E0,1.179279995E1,6.881099701E0,1.568260100E1
1.105052618E1,1.248469925E1,1.395370007E1,1.485260010E1,2.389922991E1
1.106052618E1,1.161229992E1,1.434060001E1,1.903730011E1,2.651258406E1
1.107052618E1,6.082299709E0,1.297659969E1,1.465189934E1,2.049547910E1
1.108052618E1,3.014000058E-1,1.183290005E1,7.603299618E0,1.406835209E1
1.109052618E1,-1.490999937E0,1.188929939E1,3.998399973E0,1.263193268E1
1.110052618E1,-1.427799940E0,1.187989998E1,2.391399860E0,1.220202563E1
1.111052618E1,-1.152300000E0,1.140549946E1,1.672500014E0,1.158492423E1
1.112052618E1,-9.615999460E-1,1.090989971E1,7.350999713E-1,1.097683735E1
1.113052618E1,-9.162999988E-1,1.061940002E1,1.899999976E-1,1.066055170E1
1.114052618E1,-8.720999956E-1,1.038729954E1,-3.537999988E-1,1.042984777E1
1.115052618E1,-7.073999643E-1,1.015450001E1,-9.175999761E-1,1.022038526E1
1.116052618E1,-6.789000034E-1,1.000929928E1,-1.353699923E0,1.012321494E1
1.117052618E1,-6.304999590E-1,9.873099327E0,-1.584199905E0,1.001924697E1
1.118052618E1,-7.003999949E-1,9.785200119E0,-1.442999959E0,9.915792979E0
1.119052618E1,-6.632999778E-1,9.647500038E0,-1.195199966E0,9.743855849E0
1.120052618E1,-5.785999894E-1,9.479499817E0,-9.982999563E-1,9.549465824E0
1.121052618E1,-4.777999818E-1,9.369500160E0,-6.857999563E-1,9.406707588E0
1.122052618E1,-4.805999994E-1,9.268199921E0,-3.950999975E-1,9.289058625E0
1.123052618E1,-4.603999853E-1,9.195300102E0,-5.393999815E-1,9.222606164E0
1.124052618E1,-3.008999825E-1,9.160399437E0,-5.385000110E-1,9.181145947E0
1.125052618E1,-2.487200022E0,1.759699941E0,2.552599907E0,3.974729439E0
1.126052618E1,-6.256899834E0,-5.670549774E1,2.562360001E1,6.253983648E1
1.127052618E1,2.849200010E0,-6.838939667E1,4.204199982E1,8.032905617E1
1.128052618E1,-3.798199892E0,-6.843830109E1,2.835089874E1,7.417547329E1
1.129052618E1,-9.530999660E-1,-5.363879776E1,1.461789989E1,5.560316558E1
1.130052618E1,5.976999998E-1,-2.121169853E1,5.198999882E0,2.184772299E1
1.131052618E1,1.097599983E0,-7.520400047E0,-1.450899959E0,7.737328563E0
1.132052618E1,3.161999881E-1,-2.009599924E0,-9.874199867E0,1.008158208E1
1.133052618E1,-3.800999880E0,-1.366999894E-1,-4.269779968E1,4.286686815E1
1.134052618E1,-5.027999878E-1,1.645999998E-1,-3.150599861E1,3.151044033E1
1.135052618E1,3.255999804E0,-2.216999978E-1,-2.132299995E1,2.157130067E1
1.136053086E1,3.194499969E0,4.116999805E-1,-1.351839924E1,1.389681420E1
1.137052618E1,2.132200003E0,1.684399962E0,-8.417499542E0,8.845212187E0
1.138052618E1,1.441699982E0,3.161599874E0,-4.155499935E0,5.416861851E0
1.139052618E1,7.319999933E-1,5.037399769E0,-2.859999835E-1,5.098334670E0
1.140052618E1,6.969999671E-1,6.787600040E0,1.375000000E0,6.960456038E0
1.141052930E1,8.495999575E-1,8.223799706E0,2.139499903E0,8.539915779E0
1.142052618E1,2.574000061E-1,9.140099525E0,2.784499884E0,9.558300775E0
1.143052618E1,-1.950000040E-2,9.537399292E0,3.334999800E0,1.010369186E1
1.144052618E1,8.200000040E-3,9.651999474E0,2.497799873E0,9.969963154E0
1.145052930E1,-4.869999737E-2,9.681799889E0,1.970399976E0,9.880389508E0
1.146052618E1,1.989999972E-2,9.745999336E0,1.984499931E0,9.946011213E0
1.147052618E1,3.276999891E-1,9.845699310E0,1.783499956E0,1.001129633E1
1.148052618E1,6.342999935E-1,9.981699944E0,2.173799992E0,1.023533471E1
1.149052618E1,8.078999519E-1,1.014519978E1,2.573600054E0,1.049767584E1
1.150052618E1,1.014299989E0,1.026869965E1,2.948499918E0,1.073166570E1
1.151052618E1,1.411000013E0,1.068639946E1,3.681900024E0,1.139062958E1
1.152052618E1,2.038699865E0,1.123199940E1,5.297699928E0,1.258490096E1
1.153053399E1,2.583199978E0,1.165129948E1,6.965600014E0,1.381829531E1
1.154052618E1,2.758100033E0,1.194539928E1,7.496999741E0,1.437027087E1
1.155052618E1,2.139499903E0,1.184969997E1,6.310899734E0,1.359486318E1
1.156052618E1,1.253299952E0,1.164900017E1,4.595900059E0,1.258539880E1
1.157052618E1,5.857999921E-1,1.141589928E1,3.516299963E0,1.195952689E1
1.158054180E1,9.049999714E-2,1.100729942E1,2.294800043E0,1.124432915E1
1.159052618E1,-2.446999997E-1,1.059770012E1,1.146199942E0,1.066231214E1
1.160052618E1,-4.193999767E-1,1.028549957E1,3.432999849E-1,1.029976955E1
1.161052618E1,-4.623000026E-1,1.008059978E1,-1.368999928E-1,1.009212341E1
1.162052618E1,-4.817999899E-1,9.904399872E0,-3.928000033E-1,9.923888345E0
1.163052618E1,-5.080000162E-1,9.874599457E0,-3.357999921E-1,9.893358382E0
1.164052774E1,-5.616999865E-1,9.844099998E0,-3.296999931E-1,9.865622826E0
1.165052618E1,-4.088999927E-1,9.656000137E0,-3.651999831E-1,9.671551524E0
1.166052618E1,-1.796000004E-1,9.418000221E0,-4.709999859E-1,9.431480547E0
1.167052618E1,-2.300000004E-2,9.316499710E0,-2.157000005E-1,9.319024753E0
1.168052618E1,8.850000054E-2,9.243599892E0,2.906999886E-1,9.248593282E0
1.169052618E1,2.714000046E-1,9.100699425E0,9.961999655E-1,9.159083052E0
1.170052618E1,5.825999975E-1,8.652199745E0,2.711400032E0,9.085795140E0
1.171052618E1,1.167899966E0,7.435699940E0,5.073199749E0,9.076947704E0
1.172052618E1,-1.212800026E0,-4.613430023E1,1.288879967E1,4.791623627E1
1.173052618E1,7.985299587E0,-6.841739655E1,2.903909874E1,7.475275523E1
1.174052618E1,-3.733099937E0,-6.847439575E1,3.203120041E1,7.568802223E1
1.175052618E1,-2.237599850E0,-6.384439850E1,2.071159935E1,6.715716209E1
1.176052618E1,-3.851999938E-1,-2.898069954E1,8.709599495E0,3.026361591E1
1.177052618E1,1.577499986E0,-1.159130001E1,4.804999828E-1,1.170801530E1
1.178052618E1,1.728999972E0,-3.623899937E0,-3.496699810E0,5.324378012E0
1.179052618E1,-1.220999956E-1,-2.175999880E-1,-5.338999748E0,5.344827076E0
1.180052618E1,-7.917099953E0,1.419600010E0,-1.925839996E1,2.087059427E1
1.181052774E1,-2.201999903E0,2.290299892E0,-2.085829926E1,2.109888445E1
1.182052618E1,2.614500046E0,2.625799894E0,-1.959399986E1,1.994129550E1
1.183052618E1,3.953899860E0,2.409699917E0,-1.826049995E1,1.883841385E1
1.184052618E1,3.331499815E0,2.623699903E0,-1.437599945E1,1.498839726E1
1.185052618E1,2.703999996E0,3.523000002E0,-8.352099419E0,9.459424385E0
1.186052618E1,2.012300014E0,4.527999878E0,-5.545899868E0,7.437011469E0
1.187052618E1,1.492399931E0,5.741499901E0,-3.800999880E0,7.045543184E0
1.188052618E1,1.455699921E0,7.169699669E0,-2.370899916E0,7.690567080E0
1.189052618E1,1.221400023E0,8.196999550E0,-1.110100031E0,8.361515515E0
1.190052930E1,1.302099943E0,9.007100105E0,1.363999993E-1,9.101753761E0
1.191052618E1,1.028699994E0,9.334499359E0,2.908999920E-1,9.395516206E0
1.192052618E1,8.568999767E-1,9.532799721E0,2.298000008E-1,9.573993740E0
1.193052618E1,8.904999495E-1,9.730999947E0,7.239999771E-1,9.798445085E0
1.194052618E1,9.484999776E-1,9.939799309E0,1.069899917E0,1.004210876E1
1.195052618E1,8.310999870E-1,1.005309963E1,9.686999917E-1,1.013380082E1
1.196052618E1,7.814999819E-1,1.008269978E1,9.024999738E-1,1.015313169E1
1.197052618E1,8.489999771E-1,1.009879971E1,1.051999927E0,1.018887925E1
1.198053243E1,9.836999774E-1,1.005359936E1,1.254400015E0,1.017919668E1
1.199052618E1,1.153999925E0,1.001659966E1,1.276499987E0,1.016333787E1
1.200052618E1,1.338699937E0,1.006699944E1,1.497200012E0,1.026538860E1
1.201052618E1,1.575699925E0,1.015619946E1,1.762199998E0,1.042768270E1
1.202052618E1,1.686899900E0,1.016650009E1,1.610199928E0,1.043053686E1
1.203052618E1,1.750499964E0,1.022569942E1,1.434700012E0,1.047318208E1
1.204052618E1,1.796399951E0,1.027479935E1,1.395299911E0,1.052356481E1
1.205052618E1,1.668299913E0,1.032359982E1,1.129799962E0,1.051838323E1
1.206052618E1,1.481499910E0,1.035179996E1,7.401999831E-1,1.048343935E1
1.207052618E1,1.174199939E0,1.033139992E1,2.513000071E-1,1.040094810E1
1.208052618E1,8.802999854E-1,1.031969929E1,-8.199999481E-2,1.035750189E1
1.209052618E1,5.277999640E-1,1.030749989E1,-5.152999759E-1,1.033385992E1
1.210052618E1,2.245000005E-1,1.027509975E1,-7.545999885E-1,1.030521695E1
1.211052618E1,-4.999999655E-4,1.025179958E1,-6.340000033E-1,1.027138506E1
1.212052618E1,-1.772999913E-1,1.018849945E1,-3.409000039E-1,1.019574270E1
1.213052618E1,-1.004000008E-1,9.820099831E0,2.507999837E-1,9.823815016E0
1.214052618E1,-7.629999518E-2,8.714900017E0,1.050999999E0,8.778377127E0
1.215052618E1,-1.476999968E-1,8.156800270E0,2.211199999E0,8.452491430E0
1.216052618E1,-2.463999987E-1,7.732499599E0,2.646800041E0,8.176662734E0
1.217052618E1,-8.499999531E-3,7.226299763E0,3.283499956E0,7.937307634E0
1.218052618E1,2.427999973E-1,6.178499699E0,4.732500076E0,7.786486200E0
1.219052618E1,1.334499955E0,1.893999934E0,7.760999680E0,8.099459359E0
1.220052618E1,2.289000005E-1,-5.928639984E1,2.091440010E1,6.286765252E1
1.221052618E1,-6.554800034E0,-6.849869537E1,2.453149986E1,7.305361837E1
1.222052618E1,-1.298259926E1,-6.851429749E1,3.246479797E1,7.692021809E1
1.223052618E1,1.428999901E-1,-5.377890015E1,2.371209908E1,5.877460475E1
1.224052618E1,3.849499941E0,-2.228859901E1,9.193799973E0,2.441569687E1
1.225052618E1,1.855299950E0,-1.003660011E1,2.383299828E0,1.048120212E1
1.226052618E1,-9.690000117E-2,-4.020100117E0,-1.772199988E0,4.394460986E0
1.227052618E1,-5.570399761E0,-2.196300030E0,-1.971859932E1,2.060767445E1
1.228052618E1,-2.405799866E0,-8.711999655E-1,-2.276070023E1,2.290406814E1
1.229052618E1,3.206099987E0,1.967999935E-1,-2.332619858E1,2.354632344E1
1.230053711E1,4.984999657E0,1.670999974E-1,-2.062919998E1,2.122361976E1
1.231052618E1,2.916499853E0,8.418999910E-1,-1.797589874E1,1.823040599E1
1.232052618E1,2.209899902E0,2.458199978E0,-1.298649979E1,1.340058138E1
1.233052618E1,2.485999823E0,4.155099869E0,-8.558599472E0,9.833345054E0
1.234052618E1,2.220000029E0,5.497200012E0,-6.055999756E0,8.474829859E0
1.235053243E1,2.568799973E0,7.207099915E0,-4.942100048E0,9.108533107E0
1.236052618E1,2.772199869E0,8.519999504E0,-4.673699856E0,1.010539232E1
1.237052618E1,2.494099855E0,9.399399757E0,-3.710299969E0,1.040843772E1
1.238052618E1,1.893199921E0,9.836899757E0,-2.111099958E0,1.023745798E1
1.239052618E1,1.394799948E0,1.005739975E1,-6.987999678E-1,1.017767547E1
1.240053399E1,1.160799980E0,1.027369976E1,2.911999822E-1,1.034316977E1
1.241052618E1,9.271000028E-1,1.031659985E1,7.362999916E-1,1.038430953E1
1.242052618E1,7.925999761E-1,1.021529961E1,7.688999772E-1,1.027481231E1
1.243052618E1,8.786000013E-1,1.002939987E1,7.939999700E-1,1.009907103E1
1.244052618E1,1.196399927E0,1.002460003E1,9.996999502E-1,1.014511599E1
1.245052930E1,1.600799918E0,1.031960011E1,1.321999907E0,1.052636644E1
1.246052618E1,2.332000017E0,1.068949986E1,2.157399893E0,1.115159206E1
1.247052618E1,2.953199863E0,1.099730015E1,2.543699980E0,1.166757942E1
1.248052618E1,3.868899822E0,1.133189964E1,3.441200018E0,1.245881988E1
1.249052618E1,4.485499859E0,1.160629940E1,4.524899960E0,1.324011384E1
1.250052618E1,4.197499752E0,1.172419930E1,4.444699764E0,1.322237533E1
1.251052618E1,2.664299965E0,1.132399940E1,3.835099936E0,1.224905908E1
1.252052618E1,1.121099949E0,1.100360012E1,4.156499863E0,1.181577639E1
1.253052618E1,5.375999808E-1,1.086979961E1,4.757199764E0,1.187739479E1
1.254052618E1,-1.150000002E-2,1.069679928E1,4.788199902E0,1.171957787E1
1.255052618E1,-3.564999998E-1,1.053399944E1,4.245100021E0,1.136279502E1
1.256052618E1,-6.093999743E-1,1.036250019E1,3.571099997E0,1.097750125E1
1.257052618E1,-8.235999942E-1,1.025640011E1,2.934000015E0,1.069955215E1
1.258052618E1,-7.448999882E-1,1.001280022E1,1.791499972E0,1.019904487E1
1.259052618E1,-6.565999985E-1,9.727799416E0,6.324999928E-1,9.770427896E0
1.260052618E1,-5.209999681E-1,9.508899689E0,1.420999914E-1,9.524222103E0
1.261052618E1,-3.804999888E-1,9.159899712E0,-6.870000064E-2,9.168056646E0
1.262052618E1,-2.879000008E-1,8.876699448E0,2.850000001E-2,8.881412711E0
1.263052618E1,-3.862999976E-1,8.472700119E0,5.569999814E-1,8.499771995E0
1.264053399E1,-1.421999931E-1,7.947299957E0,1.453799963E0,8.080428935E0
1.265052618E1,6.024000049E-1,6.417099953E0,5.964200020E0,8.781442902E0
1.266052618E1,2.870000005E-1,-1.376119995E1,7.306399822E0,1.558321120E1
1.267052618E1,1.705799937E0,-6.650450134E1,2.309989929E1,7.042275058E1
1.268052618E1,-4.066499710E0,-6.851940155E1,2.750709915E1,7.394650304E1
1.269052930E1,-6.747399807E0,-6.856069946E1,3.333329773E1,7.653238303E1
1.270052618E1,2.578199863E0,-4.250930023E1,1.773250008E1,4.613165160E1
1.271052618E1,2.116600037E0,-1.884059906E1,5.695899963E0,1.979624826E1
1.272052618E1,1.478299975E0,-8.192699432E0,-3.399299860E0,8.992270811E0
1.273052618E1,-5.629000068E-1,-3.457099915E0,-3.814170074E1,3.830218965E1
1.274054024E1,1.445400000E0,-2.207099915E0,-3.150089836E1,3.161118582E1
1.275052618E1,4.523900032E0,-8.179999590E-1,-2.519839859E1,2.561433362E1
1.276052618E1,2.950500011E0,2.888999879E-1,-2.179769897E1,2.199837708E1
1.277052618E1,1.916599989E0,2.471400023E0,-1.468339920E1,1.501277408E1
1.278052618E1,1.433200002E0,3.785099983E0,-8.358599663E0,9.286938809E0
1.279053555E1,-2.120999992E-1,4.293099880E0,-4.317199707E0,6.092118376E0
1.280052618E1,-6.193999648E-1,5.285899639E0,-2.160199881E0,5.743766607E0
1.281052618E1,-5.072999597E-1,6.468999863E0,-5.514000058E-1,6.512246497E0
1.282053243E1,-4.749999940E-2,7.844899654E0,8.504999876E-1,7.891011156E0
1.283052618E1,5.787999630E-1,8.939799309E0,2.185899973E0,9.221343707E0
1.284052618E1,6.183999777E-1,9.282400131E0,2.321300030E0,9.588211750E0
1.285052618E1,3.955000043E-1,9.453199387E0,2.150199890E0,9.702719127E0
1.286052618E1,5.530999899E-1,9.749199867E0,2.475100040E0,1.007367549E1
1.287053086E1,8.040999770E-1,9.839599609E0,2.349400043E0,1.014810218E1
1.288052618E1,1.046700001E0,9.893799782E0,1.978999972E0,1.014392902E1
1.289052618E1,1.296899915E0,9.924200058E0,1.763299942E0,1.016272222E1
1.290052618E1,1.551800013E0,9.981699944E0,1.796000004E0,1.026002110E1
1.291052618E1,1.945899963E0,1.016549969E1,2.661200047E0,1.068671588E1
1.292052618E1,2.642499924E0,1.057469940E1,4.691599846E0,1.186668372E1
1.293052618E1,3.055899858E0,1.099510002E1,5.827300072E0,1.281359335E1
1.294052618E1,3.014600039E0,1.124119949E1,5.835499763E0,1.301942537E1
1.295052618E1,2.481499910E0,1.123439980E1,4.628900051E0,1.240146347E1
1.296052618E1,1.907199979E0,1.124809933E1,3.740799904E0,1.200627895E1
1.297052618E1,1.360700011E0,1.132999992E1,3.096499920E0,1.182407352E1
1.298052618E1,8.585000038E-1,1.129309940E1,2.125200033E0,1.152334984E1
1.299052618E1,5.607999563E-1,1.113749981E1,1.265799999E0,1.122321916E1
1.300052618E1,3.695999980E-1,1.090250015E1,7.392999530E-1,1.093378609E1
1.301052618E1,2.331999987E-1,1.068669987E1,5.550999641E-1,1.070364761E1
1.302052618E1,1.888999939E-1,1.048040009E1,4.838999808E-1,1.049326586E1
1.303052618E1,1.963000000E-1,1.030319977E1,4.034999907E-1,1.031296618E1
1.304052618E1,2.143999934E-1,1.018439960E1,6.439999938E-1,1.020699264E1
1.305052618E1,1.935999990E-1,1.011409950E1,8.478999734E-1,1.015142473E1
1.306052618E1,9.839999676E-2,9.963500023E0,8.973000050E-1,1.000430720E1
1.307052618E1,8.029999584E-2,9.431699753E0,7.541999817E-1,9.462147004E0
1.308052618E1,2.404999882E-1,9.034599304E0,9.602999687E-1,9.088674318E0
1.309052618E1,2.676999867E-1,8.792599678E0,1.621599913E0,8.944890086E0
1.310052618E1,3.073999882E-1,8.322299957E0,3.301100016E0,8.958372210E0
1.311052618E1,7.792999744E-1,7.268699646E0,7.096899986E0,1.018858638E1
1.312052618E1,1.867699981E0,5.225800037E0,1.123479939E1,1.253068260E1
1.313052618E1,2.806999922E0,-7.267299652E0,1.174809933E1,1.409647937E1
1.314052618E1,1.511999965E0,-6.620439911E1,1.480309963E1,6.785602673E1
1.315052618E1,-9.361199379E0,-6.860419464E1,1.978349876E1,7.201079363E1
1.316052618E1,-1.309689999E1,-6.867039490E1,3.220790100E1,7.697077895E1
1.317052618E1,-9.229999781E-2,-4.863309860E1,2.109749985E1,5.301218066E1
1.318052618E1,8.122999668E-1,-1.975149918E1,7.692399979E0,2.121213257E1
1.319052618E1,5.059999973E-2,-7.821300030E0,-2.095099926E0,8.097205581E0
1.320052618E1,-6.940000057E0,-3.161299944E0,-2.150109863E1,2.281347542E1
1.321052618E1,-2.892999947E-1,-5.570999980E-1,-2.585839844E1,2.586601679E1
1.322052618E1,6.908299923E0,9.439999610E-2,-2.387699890E1,2.485647995E1
1.323052618E1,6.048899651E0,7.692999840E-1,-2.372019958E1,2.449140416E1
1.324053711E1,1.911999941E0,1.320099950E0,-2.088419914E1,2.101304789E1
1.325052618E1,1.224699974E0,2.763399839E0,-1.231680012E1,1.268226454E1
1.326052618E1,1.034600019E0,3.782599926E0,-7.143300056E0,8.148938280E0
1.327052618E1,5.561999679E-1,4.701299667E0,-4.089799881E0,6.256040284E0
1.328052618E1,7.148000002E-1,6.125899792E0,-1.983999968E0,6.478722341E0
1.329052930E1,1.109499931E0,7.696199894E0,-3.790000081E-2,7.775854893E0
1.330052618E1,1.513999939E0,8.760700226E0,1.486099958E0,9.013909105E0
1.331052618E1,1.600999951E0,9.161399841E0,2.624399900E0,9.663432244E0
1.332052618E1,1.549399972E0,9.497300148E0,3.397599936E0,1.020504952E1
1.333052618E1,1.489399910E0,9.721099854E0,2.736500025E0,1.020815982E1
1.334052618E1,1.404199958E0,9.816399574E0,2.245800018E0,1.016745277E1
1.335052618E1,1.554999948E0,9.913599968E0,2.174599886E0,1.026773460E1
1.336052618E1,1.761399984E0,9.995699883E0,1.918299913E0,1.032939595E1
1.337052618E1,1.941399932E0,1.001569939E1,1.744799972E0,1.035024612E1
1.338052618E1,2.839699984E0,1.050439930E1,3.054800034E0,1.130212829E1
1.339052618E1,5.502500057E0,1.151179981E1,5.517600060E0,1.390118528E1
1.340052618E1,7.872499943E0,1.235389996E1,8.822799683E0,1.710078635E1
1.341052618E1,8.362400055E0,1.276939964E1,1.099240017E1,1.881010801E1
1.342052618E1,5.100100040E0,1.203359985E1,8.289699554E0,1.547700438E1
1.343052618E1,2.097199917E0,1.148589993E1,4.755799770E0,1.260721127E1
1.344052618E1,9.156999588E-1,1.147489929E1,3.120999813E0,1.192696357E1
1.345052618E1,1.568999887E-1,1.136249924E1,2.207099915E0,1.157593610E1
1.346052618E1,-4.227999747E-1,1.110019970E1,1.864299893E0,1.126360543E1
1.347052618E1,-8.556999564E-1,1.087539959E1,1.709499955E0,1.104214330E1
1.348052618E1,-1.075600028E0,1.066889954E1,1.512899995E0,1.082918275E1
1.349052618E1,-1.291999936E0,1.039279938E1,6.838999987E-1,1.049510657E1
1.350052618E1,-1.340299964E0,1.015499973E1,-1.683000028E-1,1.024444964E1
1.351052618E1,-1.232499957E0,9.887199402E0,-7.958999872E-1,9.995460217E0
1.352052618E1,-1.040400028E0,9.589300156E0,-1.274199963E0,9.729372808E0
1.353052618E1,-7.289999723E-1,9.339900017E0,-1.414499998E0,9.474491202E0
1.354052618E1,-6.753000021E-1,9.266599655E0,-1.067999959E0,9.352353884E0
1.355052618E1,-7.134000063E-1,9.251500130E0,-8.643999696E-1,9.319140600E0
1.356052618E1,-8.341999650E-1,9.242899895E0,-8.000999689E-1,9.314893881E0
1.357052618E1,-1.181399941E0,9.013199806E0,-7.367999554E-1,9.120106948E0
1.358052618E1,-1.342949963E1,-1.761919975E1,7.563399792E0,2.340924340E1
1.359052618E1,-6.014800072E0,-6.664979553E1,3.238819885E1,7.434627421E1
1.360052618E1,-1.310949993E1,-6.841529846E1,3.421749878E1,7.761023950E1
1.361052618E1,-6.669699669E0,-6.849109650E1,1.788739967E1,7.110185834E1
1.362052618E1,1.289999932E-1,-4.104199982E1,1.006449986E1,4.225821278E1
1.363052618E1,4.470099926E0,-1.426889992E1,1.260100007E0,1.500570392E1
1.364052618E1,4.066800117E0,-3.734999895E0,-6.329400063E0,8.399428109E0
1.365052618E1,9.394999743E-1,6.223999858E-1,-3.449889755E1,3.451729964E1
1.366052618E1,-1.247699976E0,1.576099992E0,-2.655729866E1,2.663326789E1
1.367053086E1,8.315999508E-1,2.065599918E0,-2.068959999E1,2.080907997E1
1.368052618E1,2.756299973E0,2.293499947E0,-1.596669960E1,1.636437679E1
1.369052618E1,3.405999899E0,3.572199821E0,-1.239639950E1,1.334286953E1
1.370052618E1,2.142899990E0,4.557199955E0,-7.915599823E0,9.381727578E0
1.371052618E1,1.482999921E0,5.590699673E0,-4.478799820E0,7.315385118E0
1.372053868E1,1.516799927E0,6.836400032E0,-2.493799925E0,7.433443716E0
1.373052618E1,1.801699996E0,8.174599648E0,-1.345399976E0,8.478225249E0
1.374052618E1,1.224200010E0,9.005099297E0,1.599999960E-3,9.087930544E0
1.375052618E1,5.058999658E-1,9.276599884E0,1.340999961E0,9.386667198E0
1.376052618E1,4.769999981E-1,9.360599518E0,1.487999916E0,9.490126242E0
1.377052618E1,6.888999939E-1,9.532799721E0,1.888199925E0,9.742389475E0
1.378052618E1,9.213999510E-1,9.785099983E0,2.226999998E0,1.007753385E1
1.379052618E1,1.168399930E0,9.952499390E0,2.685600042E0,1.037448071E1
1.380052618E1,1.424700022E0,1.017439938E1,3.340799809E0,1.080319935E1
1.381052618E1,1.675799966E0,1.037419987E1,3.716799974E0,1.114661072E1
1.382052618E1,1.927999973E0,1.050469971E1,3.843599796E0,1.135073386E1
1.383052618E1,2.315399885E0,1.066499996E1,4.492799759E0,1.180205704E1
1.384052618E1,4.090300083E0,1.142429924E1,6.838699818E0,1.392885434E1
1.385053243E1,4.738399982E0,1.188199997E1,8.557499886E0,1.539042436E1
1.386052618E1,4.311999798E0,1.202029991E1,8.953000069E0,1.559606240E1
1.387052618E1,2.682600021E0,1.183930016E1,7.917099953E0,1.449295838E1
1.388052618E1,7.137999535E-1,1.151309967E1,5.177399635E0,1.264383017E1
1.389052618E1,-2.075999975E-1,1.132349968E1,3.121099949E0,1.174759582E1
1.390052618E1,-6.592999697E-1,1.113219929E1,1.692799926E0,1.127945517E1
1.391052618E1,-9.082999825E-1,1.089029980E1,7.347999811E-1,1.095278821E1
1.392052618E1,-1.000599980E0,1.060799980E1,-1.548999995E-1,1.065621200E1
1.393052618E1,-1.019400001E0,1.035419941E1,-8.506999612E-1,1.043898042E1
1.394052618E1,-1.007799983E0,1.019769955E1,-1.186299920E0,1.031581525E1
1.395052618E1,-9.583999515E-1,1.000129986E1,-1.230599999E0,1.012219866E1
1.396052618E1,-1.000399947E0,9.872900009E0,-1.122499943E0,9.986739246E0
1.397052618E1,-8.513000011E-1,9.635999680E0,-9.123999476E-1,9.716464130E0
1.398052618E1,-6.704999804E-1,9.359199524E0,-7.092999816E-1,9.409957089E0
1.399052618E1,-4.702000022E-1,9.189599991E0,-4.275999963E-1,9.211551324E0
1.400052618E1,-3.914999962E-1,9.009300232E0,-2.149999887E-2,9.017828185E0
1.401052618E1,-4.557999969E-1,8.543700218E0,1.634899974E0,8.710652385E0
1.402052618E1,-1.669999957E-2,6.625199795E0,1.015189934E1,1.212248371E1
1.403052618E1,1.786599994E0,1.905999899E0,1.886400032E1,1.904403537E1
1.404052618E1,2.994299889E0,-6.013079834E1,2.707880020E1,6.601469655E1
1.405052618E1,1.756199956E0,-6.846620178E1,1.623049927E1,7.038561026E1
1.406054024E1,-4.140100002E0,-6.859320068E1,2.357979965E1,7.265104651E1
1.407052618E1,1.617999911E0,-5.949219894E1,2.333009911E1,6.392365120E1
1.408052618E1,6.818999648E-1,-2.668319893E1,1.084109974E1,2.880950427E1
1.409052618E1,9.135999680E-1,-1.013049984E1,1.280099988E0,1.025184607E1
1.410052618E1,-2.792099953E0,-3.756599903E0,-5.251800060E0,7.034860969E0
1.411052618E1,-7.651099682E0,-1.755499959E0,-2.574279976E1,2.691306088E1
1.412052618E1,-1.724200010E0,-8.952999711E-1,-2.357530022E1,2.365521524E1
1.413052618E1,3.608199835E0,4.723999798E-1,-2.086139870E1,2.117640723E1
1.414053711E1,3.089099884E0,1.445699930E0,-2.022920036E1,2.051470530E1
1.415052618E1,5.814999938E-1,3.045300007E0,-1.433150005E1,1.466301088E1
1.416052618E1,1.595000029E-1,3.918299913E0,-7.605000019E0,8.556549524E0
1.417052618E1,-1.451999992E-1,4.831799984E0,-4.868799686E0,6.860946328E0
1.418052618E1,3.594999909E-1,6.271599770E0,-3.467899799E0,7.175551054E0
1.419053711E1,1.181499958E0,7.868999958E0,-2.315999985E0,8.287397566E0
1.420052618E1,1.309799910E0,8.847199440E0,-9.613999724E-1,8.995154453E0
1.421052618E1,1.421899915E0,9.186100006E0,3.931999803E-1,9.303807764E0
1.422052618E1,1.556699991E0,9.493700027E0,1.104099989E0,9.683630097E0
1.423052618E1,1.562399983E0,9.800600052E0,1.546700001E0,1.004415930E1
1.424053399E1,1.444899917E0,9.980299950E0,1.115000010E0,1.014580445E1
1.425052618E1,1.310400009E0,9.976099968E0,3.546999991E-1,1.006804504E1
1.426052618E1,1.294700027E0,9.888500214E0,2.073999941E-1,9.975053854E0
1.427052618E1,1.318400025E0,9.846899986E0,3.800999820E-1,9.942036711E0
1.428052618E1,1.360599995E0,9.862099648E0,6.609999537E-1,9.977432673E0
1.429052774E1,1.459800005E0,9.944099426E0,1.001699924E0,1.010047188E1
1.430052618E1,1.536899924E0,1.000509930E1,1.332899928E0,1.020983328E1
1.431052618E1,1.522199988E0,1.003579998E1,1.478099942E0,1.025763879E1
1.432052618E1,1.414299965E0,1.004629993E1,1.447899938E0,1.024816086E1
1.433052618E1,1.272300005E0,1.002699947E1,1.341099977E0,1.019598033E1
1.434052618E1,1.184599996E0,9.987899780E0,1.286000013E0,1.013978378E1
1.435052618E1,9.940999746E-1,1.001749992E1,1.674499989E0,1.020502277E1
1.436052618E1,9.764999747E-1,1.004720020E1,2.089599848E0,1.030855041E1
1.437052618E1,9.953999519E-1,1.009700012E1,2.318399906E0,1.040745938E1
1.438052618E1,1.109699965E0,1.013780022E1,2.670599937E0,1.054222611E1
1.439053555E1,1.260399938E0,1.023829937E1,3.004199982E0,1.074414257E1
1.440052618E1,1.515299916E0,1.037889957E1,3.100600004E0,1.093761448E1
1.441052618E1,1.696399927E0,1.052969933E1,3.324599981E0,1.117162950E1
1.442052618E1,1.959499955E0,1.068999958E1,4.011099815E0,1.158467319E1
1.443052618E1,1.919999957E0,1.076089954E1,4.589799881E0,1.185536257E1
1.444052618E1,1.626599908E0,1.067229939E1,4.664199829E0,1.176004088E1
1.445052618E1,8.747999668E-1,8.303599358E0,3.534600019E0,9.066886708E0
1.446052618E1,7.371999621E-1,7.016899586E0,3.859399796E0,8.042096142E0
1.447052618E1,7.627999783E-1,6.006499767E0,4.771599770E0,7.708960217E0
1.448054024E1,9.749999642E-1,4.662699699E0,6.770599842E0,8.278430747E0
1.449052618E1,1.377599955E0,2.347300053E0,8.109399796E0,8.553944366E0
1.450052618E1,2.633899927E0,-1.867799997E0,6.510900021E0,7.267594150E0
1.451052618E1,-5.955499649E0,-4.904639816E1,1.438609982E1,5.145849800E1
1.452052618E1,-1.206849957E1,-6.856330109E1,2.197620010E1,7.300361846E1
1.453052618E1,-2.099869919E1,-6.856019592E1,3.585169983E1,8.016726397E1
1.454052618E1,-3.015100002E0,-6.098249817E1,2.158689880E1,6.476071426E1
1.455052618E1,3.954099894E0,-2.641849899E1,6.244699955E0,2.743297783E1
1.456053086E1,4.147599697E0,-1.158539963E1,-1.517699957E0,1.239868868E1
1.457052618E1,-6.987999678E-1,-6.120899677E0,-1.625759888E1,1.738571987E1
1.458052618E1,1.817799926E0,-2.866600037E0,-3.478409958E1,3.494932583E1
1.459052618E1,1.909899950E0,-1.494399905E0,-2.849179840E1,2.859481640E1
1.460052618E1,1.895999908E-1,-7.971000075E-1,-2.595979881E1,2.597272552E1
1.461053399E1,1.459999941E-2,8.816999793E-1,-2.215670013E1,2.217424111E1
1.462052618E1,1.384899974E0,2.768800020E0,-1.445230007E1,1.478016167E1
1.463052618E1,2.542700052E0,4.257699966E0,-7.780499935E0,9.226565547E0
1.464052618E1,2.837299824E0,5.579099655E0,-4.653399944E0,7.799407304E0
1.465052618E1,3.249300003E0,6.964599609E0,-3.178900003E0,8.316790454E0
1.466053086E1,3.186399937E0,8.016900063E0,-1.961999893E0,8.847218475E0
1.467052618E1,2.365900040E0,8.526299477E0,-7.470999956E-1,8.879945054E0
1.468052618E1,2.533999920E0,8.951000214E0,1.626699924E0,9.443924664E0
1.469052618E1,3.095399857E0,9.573699951E0,3.900899887E0,1.079139708E1
1.470052618E1,3.108599901E0,1.012099934E1,4.808799744E0,1.162852424E1
1.471052774E1,2.632200003E0,1.034130001E1,4.090099812E0,1.142803042E1
1.472052618E1,2.321099997E0,1.026849937E1,3.133299828E0,1.098394976E1
1.473052618E1,2.400399923E0,1.025920010E1,2.930099964E0,1.093611413E1
1.474052618E1,3.438299894E0,1.058029938E1,3.653499842E0,1.170951332E1
1.475052618E1,4.122799873E0,1.086110020E1,4.509099960E0,1.246165955E1
1.476053086E1,4.220299721E0,1.116169930E1,5.508100033E0,1.314281655E1
1.477052618E1,3.751499891E0,1.137430000E1,6.036799908E0,1.341236016E1
1.478052618E1,2.953999996E0,1.145829964E1,6.223199844E0,1.336962837E1
1.479052618E1,1.402999997E0,1.149090004E1,4.951399803E0,1.259069310E1
1.480052618E1,-9.820000082E-2,1.141289997E1,3.435599804E0,1.191919775E1
1.481052930E1,-6.721999645E-1,1.127439976E1,2.675799847E0,1.160706024E1
1.482052618E1,-9.261999726E-1,1.103730011E1,2.589400053E0,1.137474539E1
1.483052618E1,-1.263399959E0,1.080039978E1,2.477499962E0,1.115270465E1
1.484052618E1,-1.612199903E0,1.048549938E1,1.933099985E0,1.078340212E1
1.485052618E1,-1.807099938E0,1.017119980E1,1.361199975E0,1.041977835E1
1.486053868E1,-1.810199976E0,9.925999641E0,6.610999703E-1,1.011134739E1
1.487052618E1,-1.642099977E0,9.769000053E0,-9.399999864E-3,9.906055862E0
1.488052618E1,-1.540899992E0,9.640799522E0,-2.538999915E-1,9.766465759E0
1.489052618E1,-1.371299982E0,9.570399284E0,-3.928000033E-1,9.676119984E0
1.490052618E1,-1.262799978E0,9.459199905E0,-4.338999987E-1,9.552978376E0
1.491052930E1,-1.060599923E0,9.336199760E0,-4.359000027E-1,9.406354606E0
1.492052618E1,-7.784000039E-1,9.200699806E0,-4.878999889E-1,9.246449583E0
1.493052618E1,-4.900999963E-1,9.111100197E0,-5.006999969E-1,9.138000071E0
1.494052618E1,-2.109999955E-1,9.096300125E0,-8.660999537E-1,9.139875606E0
1.495052618E1,1.208999977E-1,8.950200081E0,-4.645999968E-1,8.963065963E0
1.496052618E1,-2.013000011E0,-1.013639927E1,6.109600067E0,1.200524769E1
1.497052618E1,1.179000020E0,-5.932979965E1,1.668309975E1,6.164203910E1
1.498052618E1,-5.285399914E0,-6.852279663E1,3.042630005E1,7.516028769E1
1.499052618E1,-1.500959969E1,-6.862220001E1,2.215839958E1,7.365656175E1
1.500052618E1,-1.154199958E0,-4.806340027E1,9.633699417E0,4.903295614E1
1.501052618E1,2.843699932E0,-2.054759979E1,4.500999928E0,2.122615101E1
1.502052618E1,2.677599907E0,-8.429800034E0,-1.625800014E0,8.993013708E0
1.503052774E1,1.253600001E0,-3.570599794E0,-4.458799839E0,5.848212706E0
1.504052618E1,-1.656700015E0,-3.403299809E0,-9.870200157E0,1.057109056E1
1.505052618E1,-4.735899925E0,-5.016999722E0,-2.288699913E1,2.390426245E1
1.506052618E1,-2.639600039E0,-5.499199867E0,-1.652719879E1,1.761695171E1
1.507052618E1,2.741999924E-1,-5.393899918E0,-1.267819977E1,1.378064191E1
1.508052618E1,1.056999937E-1,-4.915800095E0,-9.178299904E0,1.041237015E1
1.509053711E1,-4.399999976E-3,-2.684499979E0,-4.264100075E0,5.038760656E0
1.510052618E1,4.279999807E-2,-4.069999978E-2,-2.163499832E0,2.164305860E0
1.511053555E1,6.053000093E-1,2.372400045E0,-1.323699951E0,2.783316661E0
1.512052618E1,1.094599962E0,4.620399952E0,-5.873999596E-1,4.784483620E0
1.513052618E1,1.598399997E0,6.887499809E0,2.427999973E-1,7.074707627E0
1.514052618E1,1.544299960E0,8.731399536E0,5.207999945E-1,8.882197524E0
1.515052618E1,9.779999852E-1,9.632899284E0,5.551999807E-1,9.698323546E0
1.516053399E1,6.578999758E-1,9.730599403E0,4.038999975E-1,9.761174742E0
1.517052618E1,4.892999828E-1,9.820199966E0,3.411999941E-1,9.838300630E0
1.518052618E1,5.611000061E-1,9.941899300E0,2.094999999E-1,9.959923953E0
1.519052618E1,6.951999664E-1,1.003800011E1,1.039999947E-1,1.006258243E1
1.520052618E1,8.807999492E-1,1.001140022E1,1.604000032E-1,1.005135171E1
1.521054024E1,1.116799951E0,9.961500168E0,5.478999615E-1,1.003887056E1
1.522052618E1,1.530299902E0,1.001659966E1,1.085500002E0,1.019079961E1
1.523052618E1,2.257099867E0,1.034420013E1,2.308699846E0,1.083637722E1
1.524052930E1,3.596400023E0,1.097449970E1,4.541899681E0,1.240977798E1
1.525052618E1,4.518599987E0,1.145790005E1,5.475800037E0,1.347908029E1
1.526052618E1,5.359299660E0,1.184490013E1,6.835000038E0,1.468812369E1
1.527052618E1,5.474899769E0,1.203879929E1,6.935400009E0,1.493341853E1
1.528052618E1,5.149399757E0,1.211849976E1,6.204199791E0,1.455563290E1
1.529052618E1,4.055900097E0,1.190679932E1,4.279500008E0,1.328669695E1
1.530052618E1,2.921399832E0,1.146080017E1,2.074199915E0,1.200778176E1
1.531052618E1,2.109599829E0,1.123999977E1,6.387000084E-1,1.145407980E1
1.532052618E1,1.457700014E0,1.096929932E1,-4.187999964E-1,1.107365388E1
1.533052618E1,1.023599982E0,1.066819954E1,-1.123299956E0,1.077590094E1
1.534052618E1,7.766000032E-1,1.034689999E1,-1.728399992E0,1.051897397E1
1.535052618E1,5.981000066E-1,1.008389950E1,-1.937399983E0,1.028573145E1
1.536052618E1,4.481999874E-1,9.800999641E0,-1.768399954E0,9.969338774E0
1.537052618E1,3.761000037E-1,9.586400032E0,-1.457799911E0,9.703901142E0
1.538052618E1,4.409999847E-1,9.469599724E0,-1.036399961E0,9.536347560E0
1.539052618E1,3.771999776E-1,9.372200012E0,-6.137999892E-1,9.399849111E0
1.540052618E1,8.590000123E-2,9.068300247E0,4.151999950E-1,9.078206828E0
1.541052618E1,-8.020000160E-2,7.851500034E0,5.542999744E0,9.611312657E0
1.542052618E1,5.486999750E-1,5.689499855E0,1.261719990E1,1.385154192E1
1.543052618E1,2.314899921E0,2.537299871E0,1.731329918E1,1.765069349E1
1.544052618E1,-2.369400024E0,-3.568470001E1,1.970209885E1,4.083117155E1
1.545052618E1,3.486799955E0,-6.815869904E1,9.396800041E0,6.889169674E1
1.546052618E1,-8.642000198E0,-6.857820129E1,2.269029999E1,7.274959501E1
1.547052618E1,-6.843400002E0,-6.855619812E1,2.956349945E1,7.497189423E1
1.548052618E1,-2.920899868E0,-3.368579865E1,1.446019936E1,3.677447555E1
1.549052618E1,-4.289000034E0,-1.308869934E1,4.680200100E0,1.454695311E1
1.550052618E1,-3.309199810E0,-2.700999975E0,-2.857300043E0,5.139101846E0
1.551052618E1,-3.544199944E0,4.155699730E0,-1.752499962E1,1.835638323E1
1.552052618E1,-1.008000016E0,4.980999947E0,-2.731449890E1,2.778323730E1
1.553052618E1,4.073100090E0,3.877799988E0,-2.601649857E1,2.661739421E1
1.554052618E1,5.148600101E0,3.413899899E0,-2.274079895E1,2.356494711E1
1.555052618E1,3.274699926E0,3.327199936E0,-1.934659958E1,1.990188017E1
1.556053243E1,3.007499933E0,4.513799667E0,-1.214699936E1,1.330297097E1
1.557052618E1,3.306699991E0,5.589499950E0,-7.653800011E0,1.003780001E1
1.558052618E1,2.857899904E0,6.812199593E0,-4.285299778E0,8.540342460E0
1.559052618E1,1.926199913E0,7.655299664E0,-1.744599938E0,8.084397812E0
1.560052618E1,1.307500005E0,8.351099968E0,4.690999985E-1,8.465842058E0
1.561052930E1,1.115299940E0,9.010499954E0,2.389999866E0,9.388562336E0
1.562052618E1,1.132499933E0,9.523200035E0,3.014999866E0,1.005306516E1
1.563052618E1,1.055099964E0,9.842499733E0,3.470000029E0,1.048946791E1
1.564052618E1,1.161800027E0,1.014779949E1,2.672999859E0,1.055805579E1
1.565052618E1,1.330799937E0,1.031569958E1,2.773299932E0,1.076456589E1
1.566052618E1,1.744899988E0,1.048719978E1,2.772399902E0,1.098691205E1
1.567052618E1,2.183599949E0,1.057660007E1,2.062700033E0,1.099487650E1
1.568052618E1,3.799700022E0,1.100799942E1,2.142299891E0,1.184074408E1
1.569052618E1,6.011600018E0,1.189139938E1,4.562799931E0,1.408417045E1
1.570052618E1,6.840299606E0,1.248320007E1,6.520499706E0,1.565684832E1
1.571052618E1,5.204400063E0,1.215689945E1,6.962199688E0,1.494483887E1
1.572052618E1,2.453599930E0,1.157699966E1,5.029299736E0,1.285849640E1
1.573052618E1,7.484999895E-1,1.137799931E1,3.482899904E0,1.192265542E1
1.574052618E1,-1.228000000E-1,1.112729931E1,2.873800039E0,1.149306732E1
1.575052618E1,-5.468999743E-1,1.092350006E1,2.376299858E0,1.119235249E1
1.576052930E1,-7.716999650E-1,1.069880009E1,2.075199842E0,1.092548848E1
1.577052618E1,-1.048599958E0,1.052250004E1,1.747499943E0,1.071803737E1
1.578052618E1,-1.145499945E0,1.026709938E1,1.191100001E0,1.039924127E1
1.579052618E1,-1.123899937E0,1.003059959E1,3.856000006E-1,1.010073100E1
1.580052618E1,-9.466999769E-1,9.822899818E0,-2.447999865E-1,9.871450183E0
1.581052618E1,-8.819999695E-1,9.741600037E0,-5.785999894E-1,9.798544441E0
1.582052618E1,-8.543999791E-1,9.600599289E0,-5.638999939E-1,9.655024041E0
1.583052618E1,-8.274999857E-1,9.468099594E0,-6.126999855E-1,9.523920801E0
1.584052618E1,-7.743999958E-1,9.304900169E0,-6.854999661E-1,9.362199139E0
1.585053868E1,-6.603999734E-1,9.149899483E0,-9.972999692E-1,9.227751400E0
1.586052618E1,-6.068999767E-1,9.012800217E0,-1.142799973E0,9.105212085E0
1.587052618E1,-2.531999946E-1,8.844999313E0,-5.275999904E-1,8.864337812E0
1.588052618E1,-4.460199833E0,-1.894960022E1,6.007299900E0,2.037322712E1
1.589052618E1,2.678400040E0,-6.054919815E1,1.873789978E1,6.343885333E1
1.590053711E1,-7.258399963E0,-6.845549774E1,3.409009933E1,7.681780011E1
1.591052618E1,-1.443389988E1,-6.851809692E1,2.531620026E1,7.445788788E1
1.592052618E1,-4.157799721E0,-4.480360031E1,1.125220013E1,4.638169798E1
1.593053243E1,1.595999956E0,-2.114669991E1,3.773000002E0,2.153986216E1
1.594052618E1,5.116699696E0,-1.042479992E1,-5.679000020E-1,1.162667534E1
1.595053243E1,5.548999786E0,-5.995699883E0,-5.020799637E0,9.588964736E0
1.596052618E1,5.858500004E0,-6.821099758E0,-5.845699787E0,1.072481376E1
1.597052618E1,5.498899937E0,-9.570099831E0,-1.229409981E1,1.652179171E1
1.598053868E1,-6.875999570E-1,-9.725299835E0,-1.352139950E1,1.666980789E1
1.599052618E1,2.432299852E0,-8.430399895E0,-1.226159954E1,1.507761746E1
1.600052618E1,3.312899828E0,-6.476999760E0,-1.216429996E1,1.417381476E1
1.601052618E1,2.427700043E0,-3.778499842E0,-1.000259972E1,1.096461534E1
1.602052618E1,8.154999614E-1,-1.246199965E0,-7.241299629E0,7.392866485E0
1.603052618E1,2.316999882E-1,9.813999534E-1,-6.142399788E0,6.224620945E0
1.604052618E1,1.119999960E-1,2.919499874E0,-6.301499844E0,6.945856592E0
1.605052618E1,6.268999577E-1,4.885200024E0,-5.827099800E0,7.629762441E0
1.606052618E1,1.020399928E0,6.887499809E0,-4.819600105E0,8.468023076E0
1.607052618E1,1.121799946E0,8.631299973E0,-3.755699873E0,9.479612643E0
1.608053086E1,9.093999863E-1,9.790800095E0,-2.720599890E0,1.020237416E1
1.609052618E1,6.329999566E-1,1.029749966E1,-2.007299900E0,1.051039681E1
1.610052618E1,5.414000154E-1,1.043620014E1,-6.254999638E-1,1.046893679E1
1.611052618E1,5.389999747E-1,1.034369946E1,4.659999907E-2,1.035783814E1
1.612054336E1,6.054999828E-1,1.031470013E1,2.009999938E-2,1.033247661E1
1.613052618E1,6.586999893E-1,1.036049938E1,-1.184000000E-1,1.038209284E1
1.614052618E1,6.546999812E-1,1.054069996E1,-9.030000120E-2,1.056139867E1
1.615052618E1,7.481999993E-1,1.059089947E1,-5.040000007E-2,1.061741470E1
1.616052618E1,9.677000046E-1,1.065810013E1,-1.847999990E-1,1.070353646E1
1.617053555E1,1.233799934E0,1.072309971E1,-7.710000128E-2,1.079412220E1
1.618052618E1,1.742900014E0,1.091359997E1,9.760999680E-1,1.109491487E1
1.619052618E1,2.660399914E0,1.124870014E1,3.270799875E0,1.201287286E1
1.620053711E1,3.393299818E0,1.154150009E1,5.480099678E0,1.321938730E1
1.621052618E1,3.218099833E0,1.158689976E1,6.258699894E0,1.355668606E1
1.622052618E1,2.573899984E0,1.143529987E1,5.835799694E0,1.309380015E1
1.623052618E1,1.749099970E0,1.120569992E1,5.117899895E0,1.244266695E1
1.624052618E1,1.112999916E0,1.096710014E1,4.341300011E0,1.184748666E1
1.625053086E1,7.297999859E-1,1.079809952E1,3.075199842E0,1.125115173E1
1.626052618E1,5.925999880E-1,1.060989952E1,2.245300055E0,1.086105496E1
1.627052618E1,4.073999822E-1,1.073579979E1,2.105599880E0,1.094791865E1
1.628052618E1,4.180999994E-1,1.066529942E1,1.779099941E0,1.082074932E1
1.629052618E1,4.549999833E-1,1.052589989E1,1.436800003E0,1.063324916E1
1.630052618E1,5.652999878E-1,1.013129997E1,1.346599936E0,1.023602142E1
1.631052618E1,5.900999904E-1,9.422299385E0,1.439399958E0,9.549859472E0
1.632052618E1,1.045300007E0,8.761799812E0,1.271199942E0,8.915028735E0
1.633052618E1,1.052799940E0,8.345899582E0,2.124500036E0,8.676170120E0
1.634052618E1,1.037199974E0,7.870100021E0,3.083999872E0,8.516179504E0
1.635052618E1,1.464699984E0,6.990399837E0,4.532399654E0,8.458940983E0
1.636052618E1,2.400599957E0,5.520400047E0,4.916199684E0,7.772175768E0
1.637052618E1,-3.527400017E0,-2.019190025E1,8.430199623E0,2.216356588E1
1.638052618E1,-2.648000002E0,-6.690280151E1,1.065799999E1,6.779815424E1
1.639052618E1,-1.328469944E1,-6.848089600E1,3.220629883E1,7.683333938E1
1.640052618E1,-1.077129936E1,-6.850279999E1,3.479409790E1,7.758404311E1
1.641052618E1,-7.559999824E-1,-3.936429977E1,1.769039917E1,4.316329292E1
1.642052618E1,3.172000051E-1,-1.617059898E1,6.365099907E0,1.738112149E1
1.643052618E1,3.007299900E0,-5.900199890E0,-1.094499946E0,6.712238193E0
1.644052618E1,-2.303499937E0,-1.845399976E0,-1.948139954E1,1.970371896E1
1.645052618E1,1.241699934E0,-9.743999839E-1,-2.033799934E1,2.039915418E1
1.646052618E1,7.305899620E0,4.779999852E-1,-2.259420013E1,2.375084278E1
1.647052618E1,6.684199810E0,1.004400015E0,-2.253269958E1,2.352466572E1
1.648052618E1,3.007999897E0,1.374300003E0,-1.906629944E1,1.935098287E1
1.649052618E1,4.100999832E-1,2.132299900E0,-1.121010017E1,1.141846009E1
1.650052618E1,8.524000049E-1,3.906099796E0,-7.199199677E0,8.234845315E0
1.651052618E1,1.100700021E0,5.351500034E0,-5.505099773E0,7.756043880E0
1.652052618E1,1.438199997E0,6.681200027E0,-3.862799883E0,7.850355150E0
1.653053711E1,1.409799933E0,7.872099876E0,-2.386899948E0,8.345944145E0
1.654052618E1,1.146700025E0,8.880299568E0,-1.377799988E0,9.059413567E0
1.655052618E1,1.064499974E0,9.624799728E0,-9.078999758E-1,9.725955602E0
1.656052618E1,8.874999881E-1,9.904399872E0,9.339999408E-2,9.944521940E0
1.657052618E1,7.062000036E-1,9.981800079E0,8.938999772E-1,1.004659686E1
1.658053243E1,5.009999871E-1,9.976900101E0,5.659999847E-1,1.000549312E1
1.659052618E1,4.869000018E-1,1.008379936E1,1.985999942E-1,1.009750084E1
1.660052618E1,6.584999561E-1,1.025459957E1,-2.089999989E-2,1.027574189E1
1.661052618E1,8.442999721E-1,1.038210011E1,-2.406999916E-1,1.041915455E1
1.662052618E1,9.224999547E-1,1.040839958E1,-3.707999885E-1,1.045577738E1
1.663052774E1,1.020399928E0,1.049139977E1,-4.266999960E-1,1.054953828E1
1.664052618E1,1.356999993E0,1.055350018E1,-2.514999807E-1,1.064335789E1
1.665052618E1,1.798200011E0,1.069349957E1,3.291999996E-1,1.084863258E1
1.666052618E1,2.185899973E0,1.085249996E1,9.347999692E-1,1.110984991E1
1.667052618E1,2.673599958E0,1.101079941E1,1.189299941E0,1.139299235E1
1.668052930E1,3.226699829E0,1.126639938E1,1.460999966E0,1.181007484E1
1.669052618E1,3.169499874E0,1.140419960E1,1.774399996E0,1.196870892E1
1.670052618E1,2.724200010E0,1.132629967E1,1.759499907E0,1.178143326E1
