"Time (s)","Linear Acceleration x (m/s^2)","Linear Acceleration y (m/s^2)","Linear Acceleration z (m/s^2)","Absolute acceleration (m/s^2)"
4.121919000E-3,-5.411299706E0,2.648999989E-1,-4.748799801E0,7.204403935E0
1.412348100E-2,1.094399929E0,-5.159000158E-1,1.929999888E-2,1.210056412E0
2.412348100E-2,7.312999964E-1,-2.516999841E-1,2.822999954E-1,8.233139463E-1
3.412348100E-2,4.718999863E-1,1.991999894E-1,4.842999876E-1,7.049231949E-1
4.412348100E-2,1.064999998E-1,6.656000018E-1,6.492999792E-1,9.359252509E-1
5.412348100E-2,-3.351999819E-1,1.151499987E0,8.402000070E-1,1.464324861E0
6.412348100E-2,-9.309999943E-1,1.565400004E0,1.007300019E0,2.081319652E0
7.412191900E-2,-1.505899906E0,1.844599962E0,1.145699978E0,2.642520007E0
8.412191900E-2,-2.157799959E0,1.989999890E0,1.138999939E0,3.148574453E0
9.412191900E-2,-2.798099995E0,1.972700000E0,1.017099977E0,3.571470458E0
1.041234810E-1,-3.309499979E0,1.889999986E0,7.900999784E-1,3.892190647E0
1.141234810E-1,-3.662699938E0,1.751500010E0,5.751999617E-1,4.100485108E0
1.241234810E-1,-3.809199810E0,1.644299984E0,4.107999802E-1,4.169230415E0
1.341219190E-1,-3.680899858E0,1.557099938E0,3.445000052E-1,4.011516451E0
1.441219190E-1,-3.298599958E0,1.546199918E0,3.456999958E-1,3.659372126E0
1.541234810E-1,-2.875200033E0,1.451599956E0,2.520000041E-1,3.230699872E0
1.641234810E-1,-2.366699934E0,1.478899956E0,4.564999938E-1,2.827862426E0
1.741234810E-1,-1.799600005E0,1.574699998E0,8.513999581E-1,2.538330583E0
1.841234810E-1,-1.351499915E0,1.617999911E0,1.086599946E0,2.371745175E0
1.941234810E-1,-1.141099930E0,1.557399988E0,1.120199919E0,2.232140594E0
2.041234810E-1,-1.079499960E0,1.482599974E0,1.149199963E0,2.164274336E0
2.141234810E-1,-1.097899914E0,1.422799945E0,1.152999997E0,2.135217295E0
2.241234810E-1,-1.166100025E0,1.379999995E0,1.101199985E0,2.115852231E0
2.341234810E-1,-1.282999992E0,1.356299996E0,9.939999580E-1,2.115106280E0
2.441234810E-1,-1.369499922E0,1.314499974E0,8.613999486E-1,2.084574319E0
2.541234810E-1,-1.327099919E0,1.245499969E0,6.751999855E-1,1.941226259E0
2.641234810E-1,-1.145699978E0,1.209499955E0,5.264999866E-1,1.747203714E0
2.741234810E-1,-8.650999665E-1,1.127099991E0,4.791999757E-1,1.499461556E0
2.841234810E-1,-6.434999704E-1,9.375999570E-1,5.464999676E-1,1.261684630E0
2.941234810E-1,-2.554999888E-1,7.092999816E-1,6.114999652E-1,9.707311243E-1
3.041328560E-1,2.989999950E-1,4.919999838E-1,7.246999741E-1,9.255566074E-1
3.141234810E-1,1.019999981E0,2.364999950E-1,9.753999710E-1,1.430991723E0
3.241234810E-1,1.633000016E0,-1.359999925E-1,1.113999963E0,1.981459303E0
3.341234810E-1,2.177799940E0,-5.469999909E-1,1.182899952E0,2.537966482E0
3.441234810E-1,2.566799879E0,-8.482999802E-1,1.245800018E0,2.976590694E0
3.541234810E-1,2.849599838E0,-8.729999661E-1,1.239099979E0,3.227648825E0
3.641234810E-1,2.928099871E0,-7.393999696E-1,9.045999646E-1,3.152583427E0
3.741234810E-1,2.762300014E0,-5.663999915E-1,3.928999901E-1,2.847012596E0
3.841234810E-1,2.567399979E0,-3.743999898E-1,-5.469999835E-2,2.595131999E0
3.941234810E-1,2.411999941E0,-3.489999846E-2,-3.461999893E-1,2.436968641E0
4.041234810E-1,2.364500046E0,3.237999976E-1,-6.467999816E-1,2.472661950E0
4.141234810E-1,2.472599983E0,3.466999829E-1,-1.139999986E0,2.744731594E0
4.241234810E-1,2.705499887E0,6.089999899E-2,-1.700799942E0,3.196272656E0
4.341234810E-1,2.699100018E0,-6.309999526E-2,-2.075799942E0,3.405593621E0
4.441234810E-1,2.286599874E0,3.168999851E-1,-2.137699842E0,3.146223959E0
4.541234810E-1,1.379999995E0,1.003000021E0,-2.239300013E0,2.815115198E0
4.641234810E-1,3.427999914E-1,1.553599954E0,-2.526399851E0,2.985612308E0
4.741234810E-1,-3.731999993E-1,1.686100006E0,-2.701499939E0,3.206292780E0
4.841234810E-1,-6.401999593E-1,1.246500015E0,-2.430399895E0,2.805434356E0
4.941234810E-1,-3.874999881E-1,3.186999857E-1,-1.639999986E0,1.715029409E0
5.041234810E-1,3.973999918E-1,-6.694999933E-1,-6.191999912E-1,9.947691308E-1
5.141234810E-1,1.300999999E0,-1.514899969E0,4.582999945E-1,2.048795207E0
5.241234810E-1,2.051199913E0,-1.969499946E0,1.852800012E0,3.393997496E0
5.341234810E-1,2.648399830E0,-1.906099916E0,3.089099884E0,4.493303533E0
5.441234810E-1,2.974599838E0,-1.326799989E0,3.877499819E0,5.063955692E0
5.541234810E-1,2.733599901E0,-6.288999915E-1,3.957999945E0,4.851169671E0
5.641234810E-1,2.118599892E0,-5.499999970E-2,3.522499800E0,4.110899578E0
5.741234810E-1,1.304700017E0,4.797999859E-1,2.981699944E0,3.289830499E0
5.841234810E-1,3.114999831E-1,9.465999603E-1,2.392499924E0,2.591744511E0
5.941234810E-1,-5.758000016E-1,1.396299958E0,1.936399937E0,2.455777663E0
6.041234810E-1,-1.327499986E0,1.840799928E0,1.626500010E0,2.792186038E0
6.141234810E-1,-1.913599968E0,2.251399994E0,1.287599921E0,3.223132068E0
6.241234810E-1,-2.334300041E0,2.618399858E0,9.411000013E-1,3.631892580E0
6.341234810E-1,-2.687999964E0,2.803799868E0,4.896999896E-1,3.914900201E0
6.441234810E-1,-2.866199970E0,2.779099941E0,1.040000003E-2,3.992318488E0
6.541234810E-1,-2.897799969E0,2.604799986E0,-4.777999818E-1,3.925623574E0
6.641234810E-1,-2.870499849E0,2.399999857E0,-8.676999807E-1,3.840920717E0
6.741234810E-1,-2.833199978E0,2.223700047E0,-1.119799972E0,3.771712607E0
6.841234810E-1,-2.756599903E0,2.056299925E0,-1.194199920E0,3.640511757E0
6.941234810E-1,-2.630699873E0,1.849499941E0,-1.109499931E0,3.401796871E0
7.041234810E-1,-2.425899982E0,1.584699988E0,-1.130399942E0,3.110316512E0
7.141234810E-1,-2.279599905E0,1.243199944E0,-1.117299914E0,2.826743874E0
7.241234810E-1,-2.122999907E0,9.530999660E-1,-1.068300009E0,2.560623568E0
7.341234810E-1,-2.024399996E0,7.064999938E-1,-9.253000021E-1,2.335276788E0
7.441234810E-1,-1.875000000E0,5.450999737E-1,-7.299999595E-1,2.084624408E0
7.541234810E-1,-1.596300006E0,5.533999801E-1,-4.915999770E-1,1.759572614E0
7.641234810E-1,-1.215399981E0,6.987999678E-1,-2.800000012E-1,1.429656780E0
7.741234810E-1,-7.339999676E-1,8.786999583E-1,-1.150999963E-1,1.150703080E0
7.841234810E-1,-2.317999899E-1,1.052799940E0,-8.499999531E-3,1.078049720E0
7.941234810E-1,1.425999999E-1,1.118700027E0,-2.840000018E-2,1.128109512E0
8.041234810E-1,3.788999915E-1,1.152699947E0,8.150000125E-2,1.216110448E0
8.141234810E-1,5.252000093E-1,1.182199955E0,8.659999818E-2,1.296507363E0
8.241234810E-1,5.909999609E-1,1.127099991E0,-6.289999932E-2,1.274202399E0
8.341234810E-1,6.060999632E-1,1.105399966E0,-3.197999895E-1,1.300591513E0
8.441234810E-1,6.003000140E-1,1.000000000E0,-5.864999890E-1,1.305504632E0
8.541234810E-1,7.404999733E-1,6.850000024E-1,-8.233999610E-1,1.302133906E0
8.641234810E-1,1.095600009E0,1.917999983E-1,-9.380999804E-1,1.455045770E0
8.741234810E-1,1.625999928E0,-3.594000041E-1,-8.273999691E-1,1.859471655E0
8.841234810E-1,2.204699993E0,-9.577999711E-1,-6.565999985E-1,2.491827924E0
8.941234810E-1,2.832099915E0,-1.385800004E0,-5.164999962E-1,3.194996686E0
9.041234810E-1,3.421299934E0,-1.701200008E0,-4.411000013E-1,3.846289630E0
9.141234810E-1,4.090600014E0,-1.864399910E0,-4.463999867E-1,4.517551156E0
9.241234810E-1,4.693200111E0,-2.052999973E0,-5.661999583E-1,5.153786818E0
9.341234810E-1,5.208899975E0,-2.308599949E0,-5.749999881E-1,5.726508330E0
9.441234810E-1,5.470499992E0,-2.515399933E0,-5.616999865E-1,6.047240186E0
9.541234810E-1,5.448800087E0,-2.605599880E0,-4.997999966E-1,6.060393812E0
9.641234810E-1,5.095099926E0,-2.422099829E0,-3.032999933E-1,5.649655009E0
9.741234810E-1,4.419499874E0,-1.936100006E0,-5.289999768E-2,4.825273130E0
9.841234810E-1,3.519299984E0,-1.445400000E0,-1.359999925E-2,3.804581251E0
9.941234810E-1,2.413399935E0,-1.059599996E0,-9.299999475E-2,2.637404102E0
1.004123481E0,1.512499928E0,-8.671000004E-1,-1.845999956E-1,1.753167306E0
1.014123481E0,8.549000025E-1,-9.055999517E-1,-1.412999928E-1,1.253367853E0
1.024123481E0,3.904999793E-1,-1.183799982E0,1.322999895E-1,1.253545340E0
1.034123481E0,1.699999906E-3,-1.484099984E0,5.884999633E-1,1.596523680E0
1.044123481E0,-1.922999918E-1,-1.657400012E0,1.142499924E0,2.022191920E0
1.054123481E0,-5.529999733E-1,-1.889400005E0,1.452399969E0,2.446447837E0
1.064123481E0,-1.216400027E0,-2.071399927E0,1.462999940E0,2.812595867E0
1.074123481E0,-1.827899933E0,-2.062799931E0,1.208400011E0,3.009417270E0
1.084123481E0,-2.425799847E0,-1.929899931E0,6.966999769E-1,3.177170045E0
1.094123481E0,-2.833999872E0,-1.728500009E0,1.096999943E-1,3.321340338E0
1.104123481E0,-2.945799828E0,-1.484899998E0,-3.461000025E-1,3.316994097E0
1.114123481E0,-2.752799988E0,-1.267799973E0,-7.227999568E-1,3.115712490E0
1.124123481E0,-2.266099930E0,-9.606999755E-1,-9.864999652E-1,2.651666554E0
1.134123481E0,-1.712899923E0,-5.385999680E-1,-1.084699988E0,2.097782195E0
1.144123481E0,-1.338799953E0,-1.339000016E-1,-1.029199958E0,1.693979657E0
1.154123481E0,-1.006399989E0,2.193999887E-1,-9.629999995E-1,1.410087335E0
1.164123481E0,-9.601999521E-1,4.002999961E-1,-9.320999980E-1,1.396794345E0
1.174123481E0,-1.120999932E0,4.659999907E-1,-8.542000055E-1,1.484403749E0
1.184123481E0,-1.468099952E0,4.560000002E-1,-8.625999689E-1,1.762762654E0
1.194123481E0,-1.980899930E0,4.416999817E-1,-8.515999913E-1,2.200973864E0
1.204123481E0,-2.403899908E0,4.166999757E-1,-6.444999576E-1,2.523440872E0
1.214123481E0,-2.687799931E0,3.740999997E-1,-4.844999909E-1,2.756621033E0
1.224123481E0,-2.803499937E0,3.547999859E-1,-3.385999799E-1,2.846075346E0
1.234123481E0,-2.859099865E0,2.910999954E-1,-1.445999891E-1,2.877516360E0
1.244123481E0,-2.678499937E0,2.908000052E-1,-5.779999867E-2,2.694859439E0
1.254123481E0,-2.407899857E0,3.279999793E-1,-2.039999887E-2,2.430222596E0
1.264123481E0,-2.150199890E0,3.388999999E-1,-2.799999900E-3,2.176745419E0
1.274123481E0,-1.960699916E0,3.350999951E-1,1.255999953E-1,1.993090948E0
1.284123481E0,-1.919199944E0,2.805999815E-1,2.572000027E-1,1.956582892E0
1.294123481E0,-2.015499830E0,2.140999883E-1,3.601000011E-1,2.058579700E0
1.304132856E0,-1.964699984E0,2.456999868E-1,5.018000007E-1,2.042600732E0
1.314123481E0,-1.834599972E0,2.396999896E-1,7.102000117E-1,1.981816641E0
1.324123481E0,-1.713299990E0,1.472000033E-1,7.775999904E-1,1.887253677E0
1.334123481E0,-1.600600004E0,2.031999975E-1,6.144999862E-1,1.726505385E0
1.344123481E0,-1.516399980E0,3.872999847E-1,4.772999883E-1,1.636241258E0
1.354123481E0,-1.490899920E0,3.745999932E-1,4.368000031E-1,1.598093230E0
1.364123481E0,-1.436200023E0,2.631999850E-1,2.691999972E-1,1.484726701E0
1.374123481E0,-1.332799911E0,1.137999967E-1,4.669999704E-2,1.338464394E0
1.384123481E0,-1.102599978E0,5.559999868E-2,-3.119999915E-2,1.104441720E0
1.394123481E0,-6.672999859E-1,8.020000160E-2,1.261999905E-1,6.838477528E-1
1.404123481E0,-7.580000162E-2,1.040000003E-2,2.439999878E-1,2.557142826E-1
1.414123481E0,7.010999918E-1,-8.619999886E-2,2.131999880E-1,7.378522028E-1
1.424123481E0,1.309899926E0,-3.497000039E-1,2.308999896E-1,1.375297319E0
1.434123481E0,1.917699933E0,-6.829999685E-1,2.929999828E-1,2.056674739E0
1.444123481E0,2.467399836E0,-9.869999886E-1,3.033999801E-1,2.674749049E0
1.454123481E0,2.852099895E0,-1.270499945E0,4.141999781E-1,3.149635780E0
1.464123481E0,3.278100014E0,-1.357100010E0,7.703999877E-1,3.630588971E0
1.474123481E0,3.480199814E0,-1.307299972E0,1.262899995E0,3.926288369E0
1.484123481E0,3.409299850E0,-1.162999988E0,1.396899939E0,3.863576566E0
1.494123481E0,3.113799810E0,-1.024799943E0,1.133399963E0,3.468509717E0
1.504123481E0,2.710000038E0,-1.306100011E0,6.548999548E-1,3.078780829E0
1.514123481E0,2.422799826E0,-1.708799958E0,4.617999792E-1,3.000535871E0
1.524123481E0,2.076299906E0,-1.765599966E0,7.662999630E-1,2.831179996E0
1.534123481E0,1.662400007E0,-1.188300014E0,1.181800008E0,2.360568144E0
1.544123481E0,1.348500013E0,-3.427999914E-1,1.200199962E0,1.837510291E0
1.554123481E0,1.015299916E0,1.955000013E-1,8.596999645E-1,1.344670294E0
1.564123481E0,7.775999904E-1,3.434000015E-1,7.372999787E-1,1.125254000E0
1.574123481E0,5.162000060E-1,7.959999889E-2,8.775999546E-1,1.021264063E0
1.584123481E0,3.601999879E-1,-3.966999948E-1,9.424999952E-1,1.084168418E0
1.594123481E0,2.540999949E-1,-8.026999831E-1,1.093599916E0,1.380164789E0
1.604123481E0,4.456000030E-1,-8.768000007E-1,1.131899953E0,1.499511623E0
1.614123481E0,8.467999697E-1,-7.558000088E-1,1.105000019E0,1.584086135E0
1.624123481E0,1.210999966E0,-6.482999921E-1,1.242999911E0,1.852528698E0
1.634123481E0,1.644299984E0,-3.714999855E-1,1.480700016E0,2.243703905E0
1.644123481E0,1.792599916E0,-8.729999512E-2,1.464299917E0,2.316292295E0
1.654123481E0,1.604999900E0,1.006999984E-1,1.350999951E0,2.100325222E0
1.664123481E0,1.325299978E0,2.979999781E-1,1.241500020E0,1.840257134E0
1.674123481E0,8.070999980E-1,3.868999779E-1,1.074599981E0,1.398523192E0
1.684123481E0,-3.619999811E-2,3.990999758E-1,9.528999925E-1,1.033735762E0
1.694123481E0,-8.003000021E-1,5.536000133E-1,8.222000003E-1,1.273956792E0
1.704123481E0,-1.504099965E0,7.551999688E-1,8.689000010E-1,1.894104250E0
1.714123481E0,-2.049200058E0,9.757999778E-1,8.295999765E-1,2.416535246E0
1.724123481E0,-2.504099846E0,1.255100012E0,5.281999707E-1,2.850401250E0
1.734123481E0,-2.702800035E0,1.465199947E0,1.250000000E-1,3.076940675E0
1.744123481E0,-2.774299860E0,1.496399999E0,-4.348999858E-1,3.181994762E0
1.754123481E0,-2.786499977E0,1.315699935E0,-1.021000028E0,3.246242366E0
1.764123481E0,-2.784299850E0,1.177500010E0,-1.492299914E0,3.371318876E0
1.774123481E0,-2.685799837E0,1.103199959E0,-1.686299920E0,3.357704325E0
1.784123481E0,-2.630100012E0,1.155900002E0,-1.592299938E0,3.284653708E0
1.794123481E0,-2.586999893E0,1.119499922E0,-1.310899973E0,3.108746896E0
1.804123481E0,-2.603999853E0,9.748999476E-1,-1.103099942E0,2.991333252E0
1.814123481E0,-2.698699951E0,7.728999853E-1,-9.159999490E-1,2.952865002E0
1.824123481E0,-2.712800026E0,6.438999772E-1,-7.809999585E-1,2.895488231E0
1.834123481E0,-2.675499916E0,5.511999726E-1,-6.191999912E-1,2.800987297E0
1.844123481E0,-2.517799854E0,5.153999925E-1,-5.774999857E-1,2.634095574E0
1.854123481E0,-2.279000044E0,5.072999597E-1,-6.462000012E-1,2.422554208E0
1.864123481E0,-2.018499851E0,5.845000148E-1,-7.849999666E-1,2.243258091E0
1.874123481E0,-1.688499928E0,7.353999615E-1,-7.358999848E-1,1.983278573E0
1.884123481E0,-1.280599952E0,8.495999575E-1,-6.629999876E-1,1.673716018E0
1.894123481E0,-1.090199947E0,8.557999730E-1,-5.151999593E-1,1.478634680E0
1.904123481E0,-9.504999518E-1,9.199999571E-1,-2.248999923E-1,1.341801061E0
1.914123481E0,-9.188999534E-1,1.012499928E0,-2.290000021E-2,1.367500508E0
1.924123481E0,-9.161999822E-1,1.055299997E0,1.274999976E-1,1.403330589E0
1.934123481E0,-6.678999662E-1,1.039499998E0,2.079999894E-1,1.252962332E0
1.944123481E0,-1.939999908E-1,9.264999628E-1,2.008999884E-1,9.676771067E-1
1.954123481E0,3.871999979E-1,6.570999622E-1,1.763999909E-1,7.828289440E-1
1.964123481E0,1.154799938E0,4.084999859E-1,1.428000033E-1,1.233218138E0
1.974123481E0,1.893399954E0,7.169999927E-2,1.570999920E-1,1.901258710E0
1.984123481E0,2.425899982E0,-2.272000015E-1,3.181999922E-1,2.457206096E0
1.994123481E0,2.624199867E0,-4.007000029E-1,5.386999846E-1,2.708723520E0
2.004123481E0,2.606299877E0,-4.976999760E-1,8.084999919E-1,2.773837874E0
2.014123481E0,2.568399906E0,-3.800999820E-1,1.009799957E0,2.785830222E0
2.024123481E0,2.578999996E0,-2.736999989E-1,1.182299972E0,2.850260671E0
2.034123481E0,2.569499969E0,-2.678999901E-1,1.177899957E0,2.839286672E0
2.044123481E0,2.687000036E0,-5.698999763E-1,8.676999807E-1,2.880565645E0
2.054123481E0,2.715499878E0,-1.169399977E0,6.459000111E-1,3.026321648E0
2.064123481E0,2.527600050E0,-1.739300013E0,7.106999755E-1,3.149447730E0
2.074123481E0,2.145200014E0,-1.901899934E0,1.029500008E0,3.046141284E0
2.084123481E0,1.737499952E0,-1.613699913E0,1.410699964E0,2.759167969E0
2.094123481E0,1.414199948E0,-1.021299958E0,1.564399958E0,2.343152220E0
2.104123481E0,1.164099932E0,-6.883999705E-1,1.403999925E0,1.949420160E0
2.114123481E0,1.159299970E0,-5.709999800E-1,1.214100003E0,1.773148672E0
2.124123481E0,1.376799941E0,-5.830000043E-1,1.171199918E0,1.899256784E0
2.134123481E0,1.688499928E0,-6.574000120E-1,9.125999808E-1,2.028803959E0
2.144123481E0,1.878399968E0,-7.770000100E-1,5.839999914E-1,2.114987339E0
2.154123481E0,1.964999914E0,-8.443999887E-1,4.333999753E-1,2.182217116E0
2.164123481E0,1.957699895E0,-8.199999928E-1,5.216000080E-1,2.185647601E0
2.174123481E0,1.866899967E0,-7.619000077E-1,7.587999701E-1,2.154433685E0
2.184123481E0,1.773499966E0,-7.286999822E-1,9.619999528E-1,2.145168921E0
2.194123481E0,1.513099909E0,-7.396999598E-1,1.015100002E0,1.966482997E0
2.204123481E0,1.077999949E0,-8.919000030E-1,1.000599980E0,1.720107504E0
2.214123481E0,6.079999804E-1,-9.760999680E-1,9.714999795E-1,1.505406036E0
2.224123481E0,5.559999868E-2,-9.298999906E-1,8.953999877E-1,1.292109318E0
2.234123481E0,-4.120000005E-1,-7.026999593E-1,8.410999775E-1,1.170888725E0
2.244123481E0,-7.868999839E-1,-4.722999930E-1,7.646999955E-1,1.194589867E0
2.254123481E0,-1.224599957E0,-3.161999881E-1,5.672000051E-1,1.386125295E0
2.264123481E0,-1.737899899E0,-1.983999908E-1,3.819999993E-1,1.790414091E0
2.274123481E0,-2.366099834E0,-2.309999987E-2,1.115999967E-1,2.368842881E0
2.284123481E0,-2.957199812E0,1.094999984E-1,-1.832999885E-1,2.964897952E0
2.294123481E0,-3.413499832E0,1.621999890E-1,-4.412999749E-1,3.445727152E0
2.304132856E0,-3.715699911E0,1.554999948E-1,-6.516000032E-1,3.775604408E0
2.314123481E0,-3.775499821E0,6.109999865E-2,-6.757999659E-1,3.835992401E0
2.324123481E0,-3.681199789E0,-8.060000092E-2,-6.999999881E-1,3.748029913E0
2.334123481E0,-3.627399921E0,-3.276999891E-1,-8.949999809E-1,3.750525622E0
2.344123481E0,-3.690999985E0,-5.317000151E-1,-1.137499928E0,3.898729521E0
2.354123481E0,-3.851599932E0,-6.319000125E-1,-1.310500026E0,4.117223576E0
2.364123481E0,-3.824999809E0,-5.175999999E-1,-1.372499943E0,4.096619264E0
2.374123481E0,-3.406299829E0,-3.639999926E-1,-1.241599917E0,3.643754229E0
2.384123481E0,-2.694900036E0,-2.026999891E-1,-1.012400031E0,2.885918799E0
2.394123481E0,-2.004699945E0,-2.749999985E-2,-8.143000007E-1,2.163946074E0
2.404123481E0,-1.521399975E0,5.040000007E-2,-6.513999701E-1,1.655753594E0
2.414123481E0,-1.225199938E0,1.270000041E-1,-5.159999728E-1,1.335477391E0
2.424123481E0,-9.978999496E-1,2.113000005E-1,-3.707000017E-1,1.085297420E0
2.434123481E0,-9.469999671E-1,2.336999923E-1,-2.960000038E-1,1.019333423E0
2.444123481E0,-1.022400022E0,2.728999853E-1,-2.563999891E-1,1.088814567E0
2.454123481E0,-1.193699956E0,3.499999940E-1,-1.463000029E-1,1.252526755E0
2.464123481E0,-1.284199953E0,3.872999847E-1,-8.379999548E-2,1.343946888E0
2.474123481E0,-1.196499944E0,2.184000015E-1,-2.131999880E-1,1.234813715E0
2.484123481E0,-9.514999986E-1,-8.749999851E-2,-3.441999853E-1,1.015619086E0
2.494123481E0,-5.497999787E-1,-3.527999818E-1,-2.766000032E-1,7.094049659E-1
2.504123481E0,-1.005999967E-1,-6.062999964E-1,-2.609999850E-2,6.151432800E-1
2.514123481E0,5.037999749E-1,-8.271999955E-1,2.723999918E-1,1.006119279E0
2.524123481E0,1.194599986E0,-1.034600019E0,6.297999620E-1,1.701209663E0
2.534123481E0,1.854099989E0,-1.131299973E0,8.793999553E-1,2.343260694E0
2.544123481E0,2.365099907E0,-1.256099939E0,1.047899961E0,2.875687562E0
2.554123481E0,2.728899956E0,-1.291599989E0,1.218799949E0,3.255856080E0
2.564123481E0,2.927299976E0,-1.256600022E0,1.476300001E0,3.511066855E0
2.574123481E0,2.854099989E0,-1.052299976E0,1.706399918E0,3.487839255E0
2.584123481E0,2.491400003E0,-6.503999829E-1,1.675199986E0,3.071870620E0
2.594123481E0,1.947499990E0,-4.264999926E-1,1.083699942E0,2.269154913E0
2.604123481E0,1.808799982E0,-5.868999958E-1,1.640999913E-1,1.908700549E0
2.614123481E0,2.149499893E0,-1.208899975E0,-3.000999987E-1,2.484320621E0
2.624123481E0,2.514999866E0,-1.691900015E0,-9.679999948E-2,3.032675424E0
2.634123481E0,2.925899982E0,-1.472999930E0,8.334999681E-1,3.380139302E0
2.644123481E0,3.061800003E0,-7.281000018E-1,1.851899981E0,3.651613672E0
2.654123481E0,2.934799910E0,9.459999949E-2,1.970799923E0,3.536389685E0
2.664123481E0,2.417399883E0,6.139999628E-1,1.396399975E0,2.858452560E0
2.674123481E0,1.713999987E0,8.751999736E-1,8.543999791E-1,2.105651983E0
2.684123481E0,8.443999887E-1,8.886999488E-1,3.840999901E-1,1.284652382E0
2.694123481E0,-1.319999993E-1,5.187999606E-1,-5.319999903E-2,5.379662060E-1
2.704123481E0,-5.680999756E-1,-1.106999964E-1,-3.335999846E-1,6.680426792E-1
2.714123481E0,-4.246999919E-1,-6.783999801E-1,-2.602999806E-1,8.416369146E-1
2.724123481E0,7.129999995E-2,-8.957999945E-1,1.950999945E-1,9.195680116E-1
2.734123481E0,7.224999666E-1,-8.917999864E-1,8.208999634E-1,1.411095379E0
2.744123481E0,1.145299911E0,-7.008999586E-1,1.282599926E0,1.856888583E0
2.754123481E0,1.396600008E0,-4.846999943E-1,1.346799970E0,1.999823949E0
2.764123481E0,1.285200000E0,-3.707999885E-1,1.072399974E0,1.714430919E0
2.774123481E0,9.138000011E-1,-2.861999869E-1,7.487999797E-1,1.215583105E0
2.784123481E0,3.563999832E-1,-6.799999624E-2,4.004999995E-1,5.404120623E-1
2.794123481E0,-2.870999873E-1,1.189999953E-1,1.303000003E-1,3.369947947E-1
2.804123481E0,-1.025599957E0,3.344999850E-1,-1.336999983E-1,1.087024011E0
2.814123481E0,-1.662599921E0,5.407999754E-1,-2.053999901E-1,1.760367083E0
2.824123481E0,-2.168499947E0,7.292999625E-1,-1.614999920E-1,2.293545879E0
2.834123481E0,-2.456099987E0,8.312000036E-1,-2.334999889E-1,2.603429054E0
2.844123481E0,-2.624699831E0,8.647999763E-1,-3.581999838E-1,2.786617202E0
2.854123481E0,-2.754099846E0,8.183999658E-1,-5.715000033E-1,2.929412350E0
2.864123481E0,-2.923899889E0,7.407999635E-1,-8.693999648E-1,3.139081306E0
2.874123481E0,-3.086299896E0,6.905999780E-1,-1.169700027E0,3.371998448E0
2.884123481E0,-3.202499866E0,6.592000127E-1,-1.312399983E0,3.523200785E0
2.894123481E0,-3.155299902E0,5.891999602E-1,-1.236299992E0,3.439696460E0
2.904123481E0,-2.993199825E0,4.333999753E-1,-8.634999990E-1,3.145268348E0
2.914123481E0,-2.695299864E0,3.300999999E-1,-3.646999896E-1,2.739819966E0
2.924123481E0,-2.377599955E0,2.601000071E-1,1.077999994E-1,2.394212688E0
2.934123481E0,-2.107199907E0,2.237999886E-1,2.248999923E-1,2.130952344E0
2.944123481E0,-1.853500009E0,2.498999983E-1,1.772999913E-1,1.878655790E0
2.954123481E0,-1.792899966E0,2.883999944E-1,4.309999943E-2,1.816458768E0
2.964123481E0,-1.691199899E0,3.384000063E-1,-1.753999889E-1,1.733619571E0
2.974123481E0,-1.686800003E0,3.991999924E-1,-3.561999798E-1,1.769613887E0
2.984123481E0,-1.830299973E0,3.914999962E-1,-4.846999943E-1,1.933443644E0
2.994123481E0,-1.778899908E0,3.560999930E-1,-3.524999917E-1,1.848120216E0
3.004123481E0,-1.472999930E0,3.930999935E-1,-3.900000080E-2,1.525049966E0
3.014123481E0,-1.176900029E0,4.341999888E-1,2.782000005E-1,1.284919666E0
3.024123481E0,-9.590999484E-1,5.557000041E-1,3.316999972E-1,1.157022080E0
3.034123481E0,-7.210999727E-1,6.583999991E-1,1.193999946E-1,9.837337487E-1
3.044123481E0,-5.417000055E-1,6.723999977E-1,-2.901999950E-1,9.109207924E-1
3.054123481E0,-1.957999915E-1,6.079999804E-1,-5.712000132E-1,8.568961827E-1
3.064123481E0,2.960000038E-1,4.563999772E-1,-6.809999943E-1,8.715950514E-1
3.074123481E0,1.011999965E0,2.087999880E-1,-5.381000042E-1,1.165029175E0
3.084123481E0,1.686800003E0,-3.639999777E-2,-1.405999959E-1,1.693040924E0
3.094123481E0,2.448299885E0,-2.204999924E-1,5.202000141E-1,2.512648130E0
3.104123481E0,3.140599966E0,-3.346000016E-1,1.185400009E0,3.373499443E0
3.114123481E0,3.745100021E0,-3.315999806E-1,1.741299987E0,4.143411440E0
3.124123481E0,3.968799829E0,-1.255999953E-1,1.973999977E0,4.434390979E0
3.134123481E0,3.743599892E0,2.115999907E-1,1.751500010E0,4.138486075E0
3.144123481E0,3.294299841E0,4.023999870E-1,1.111799955E0,3.500062333E0
3.154123481E0,3.011499882E0,1.816999912E-1,4.338999987E-1,3.048018313E0
3.164123481E0,2.962499857E0,-3.781999946E-1,5.979999900E-2,2.987141891E0
3.174123481E0,2.864500046E0,-7.721999884E-1,4.007000029E-1,2.993695680E0
3.184123481E0,2.427099943E0,-7.502999902E-1,1.182500005E0,2.802154612E0
3.194123481E0,1.761599898E0,-5.069999695E-1,1.658399940E0,2.471957429E0
3.204123481E0,1.368999958E0,-4.546999931E-1,1.483299971E0,2.069079934E0
3.214123481E0,1.187600017E0,-7.130999565E-1,1.117900014E0,1.780057805E0
3.224123481E0,1.135299921E0,-9.205999970E-1,8.592000008E-1,1.695474832E0
3.234123481E0,1.180999994E0,-1.036800027E0,6.550999880E-1,1.702607200E0
3.244123481E0,1.343199968E0,-1.002799988E0,3.032000065E-1,1.703444808E0
3.254123481E0,1.490799904E0,-7.662999630E-1,-1.354999989E-1,1.681683750E0
3.264123481E0,1.538599968E0,-5.248999596E-1,-3.919999897E-1,1.672266074E0
3.274123481E0,1.424700022E0,-4.448999763E-1,-5.004000068E-1,1.574200212E0
3.284123481E0,1.329699993E0,-4.619999826E-1,-3.288999796E-1,1.445586819E0
3.294123481E0,1.187600017E0,-6.031999588E-1,-5.029999837E-2,1.332956893E0
3.304132856E0,1.090600014E0,-7.971999645E-1,1.692000031E-1,1.361456872E0
3.314123481E0,8.463000059E-1,-9.921999574E-1,3.307999969E-1,1.345404435E0
3.324123481E0,4.871999919E-1,-1.116999984E0,3.377999961E-1,1.264579627E0
3.334123481E0,1.620000042E-2,-1.099900007E0,2.717999816E-1,1.133100920E0
3.344123481E0,-4.971999824E-1,-8.016999960E-1,2.099999934E-1,9.664526389E-1
3.354123481E0,-9.165999889E-1,-3.890999854E-1,2.324999869E-1,1.022551017E0
3.364123481E0,-1.244499922E0,-3.219999745E-2,2.666999996E-1,1.273163691E0
3.374123481E0,-1.630399942E0,2.644999921E-1,2.186999917E-1,1.666131419E0
3.384123481E0,-2.066200018E0,4.587999880E-1,1.111999974E-1,2.119444593E0
3.394123481E0,-2.523699999E0,5.297999978E-1,-1.023999974E-1,2.580743203E0
3.404123481E0,-2.836099863E0,5.076999664E-1,-3.916999996E-1,2.907688185E0
3.414123481E0,-3.082000017E0,5.119000077E-1,-7.160999775E-1,3.205240225E0
3.424123481E0,-3.133299828E0,4.757999778E-1,-9.186999798E-1,3.299691362E0
3.434123481E0,-3.057899952E0,3.815999925E-1,-1.098699927E0,3.271622258E0
3.444123481E0,-3.002799988E0,3.175999820E-1,-1.236299992E0,3.262838516E0
3.454123481E0,-2.958799839E0,2.639999986E-1,-1.241799951E0,3.219667623E0
3.464123481E0,-2.857899904E0,1.622999907E-1,-1.191299915E0,3.100504578E0
3.474123481E0,-2.787899971E0,4.329999909E-2,-9.574999809E-1,2.948061626E0
3.484123481E0,-2.610699892E0,3.549999744E-2,-5.421999693E-1,2.666644893E0
3.494123481E0,-2.443099976E0,8.049999923E-2,-8.479999751E-2,2.445896314E0
3.504123481E0,-2.156299829E0,1.683999896E-1,2.823999822E-1,2.181223799E0
3.514123481E0,-1.807799935E0,3.773999810E-1,1.919000000E-1,1.856716716E0
3.524123481E0,-1.642699957E0,5.877999663E-1,-2.398999929E-1,1.761114407E0
3.534123481E0,-1.662400007E0,7.479999661E-1,-6.685000062E-1,1.941641056E0
3.544123481E0,-1.632799983E0,8.572999835E-1,-8.542999625E-1,2.032443719E0
3.554123481E0,-1.584100008E0,8.567000031E-1,-8.633999825E-1,1.997189841E0
3.564123481E0,-1.409199953E0,7.070999742E-1,-7.227999568E-1,1.734437851E0
3.574123481E0,-1.363799930E0,4.275999963E-1,-5.674999952E-1,1.537806311E0
3.584123481E0,-1.124099970E0,8.899999410E-2,-3.279999793E-1,1.174353323E0
3.594123481E0,-6.007999778E-1,-3.055999875E-1,-3.429999948E-2,6.749284819E-1
3.604123481E0,-6.790000200E-2,-6.759999990E-1,1.661999971E-1,6.994346631E-1
3.614123481E0,5.827999711E-1,-9.138999581E-1,2.629999816E-1,1.115364483E0
3.624123481E0,1.449100018E0,-1.057500005E0,5.227999687E-1,1.868560122E0
3.634123481E0,2.422799826E0,-1.067700028E0,9.278999567E-1,2.805519680E0
3.644123481E0,3.297899961E0,-1.005699992E0,1.231299996E0,3.661103155E0
3.654123481E0,3.868499994E0,-8.463000059E-1,1.458400011E0,4.220005509E0
3.664128169E0,4.056299686E0,-6.128000021E-1,1.595699906E0,4.401743879E0
3.674123481E0,3.861299992E0,-5.036000013E-1,1.718699932E0,4.256428085E0
3.684123481E0,3.500399828E0,-5.288000107E-1,1.685199976E0,3.920755969E0
3.694123481E0,3.209999800E0,-8.736000061E-1,1.374199986E0,3.599402907E0
3.704123481E0,2.980000019E0,-1.555799961E0,1.072499990E0,3.528621524E0
3.714123481E0,2.681999922E0,-2.090800047E0,1.072099924E0,3.565664968E0
3.724123481E0,2.268399954E0,-2.199399948E0,1.264999986E0,3.403413499E0
3.734123481E0,1.760699987E0,-2.006899834E0,1.330799937E0,2.983075571E0
3.744123481E0,1.227800012E0,-1.622999907E0,1.110700011E0,2.318464164E0
3.754123481E0,6.022999883E-1,-1.242599964E0,6.793999672E-1,1.538962073E0
3.764123481E0,-9.300000034E-3,-9.206999540E-1,2.712999880E-1,9.598846696E-1
3.774123481E0,-4.490999877E-1,-7.213000059E-1,-7.339999825E-2,8.528493755E-1
3.784123481E0,-8.378999829E-1,-7.567999959E-1,-2.181999981E-1,1.149971241E0
3.794123481E0,-9.897999763E-1,-9.373999834E-1,-1.319999993E-2,1.363303694E0
3.804123481E0,-7.087000012E-1,-1.112599969E0,4.078999758E-1,1.380766734E0
3.814123481E0,-2.795000076E-1,-1.183399916E0,9.799000025E-1,1.561652852E0
3.824123481E0,3.750000000E-1,-1.062099934E0,1.637699962E0,1.987647462E0
3.834123481E0,1.106699944E0,-7.710999846E-1,2.205999851E0,2.585694355E0
3.844123481E0,1.816599965E0,-4.919999838E-1,2.407999992E0,3.056233528E0
3.854123481E0,2.150500059E0,-2.126999944E-1,2.112400055E0,3.021940731E0
3.864123481E0,1.930899978E0,2.129999921E-2,1.355299950E0,2.359166456E0
3.874123481E0,1.323799968E0,2.579999864E-1,5.489999652E-1,1.456163215E0
3.884123481E0,4.677999914E-1,3.534999788E-1,-2.283999920E-1,6.292579942E-1
3.894123481E0,-4.280000031E-1,3.524999917E-1,-9.721999764E-1,1.119201966E0
3.904123481E0,-1.145599961E0,3.872999847E-1,-1.538599968E0,1.956959481E0
3.914123481E0,-1.899299979E0,4.127999842E-1,-1.751399994E0,2.616323026E0
3.924123481E0,-2.512300014E0,4.306999743E-1,-1.658599973E0,3.041070157E0
3.934123481E0,-2.945600033E0,4.315999746E-1,-1.592399955E0,3.376177677E0
3.944123481E0,-3.376299858E0,4.054999948E-1,-1.668399930E0,3.787794781E0
3.954123481E0,-3.648399830E0,4.221999943E-1,-1.765299916E0,4.074967233E0
3.964123481E0,-3.694399834E0,5.417999625E-1,-1.828799963E0,4.157721327E0
3.974123481E0,-3.486899853E0,7.641999722E-1,-1.873399973E0,4.031389294E0
3.984123481E0,-3.086799860E0,1.067700028E0,-1.767599940E0,3.713855985E0
3.994123481E0,-2.516199827E0,1.321999907E0,-1.506500006E0,3.216906525E0
4.004123481E0,-1.864699960E0,1.367200017E0,-1.147699952E0,2.581386644E0
4.014123481E0,-1.435099959E0,1.190899968E0,-9.513999820E-1,2.093541629E0
4.024123481E0,-1.155699968E0,9.506999850E-1,-8.868999481E-1,1.739558679E0
4.034123481E0,-1.150900006E0,5.996999741E-1,-9.906999469E-1,1.632696318E0
4.044123481E0,-1.310299993E0,2.592000067E-1,-1.002900004E0,1.670293128E0
4.054123481E0,-1.357900023E0,1.109999940E-1,-7.087999582E-1,1.535776954E0
4.064123481E0,-1.215099931E0,2.076999992E-1,-1.055999994E-1,1.237238252E0
4.074123481E0,-9.117999673E-1,4.900999963E-1,3.064999878E-1,1.079592251E0
4.084123481E0,-4.961999953E-1,8.870999813E-1,4.262000024E-1,1.102182950E0
4.094123481E0,-5.759999901E-2,1.384699941E0,2.824999988E-1,1.414396668E0
4.104123481E0,1.474999934E-1,1.830599904E0,-5.519999936E-2,1.837362048E0
4.114123481E0,3.940000013E-2,2.063999891E0,-4.578000009E-1,2.114528021E0
4.124123481E0,-1.675999910E-1,2.025199890E0,-9.121999741E-1,2.227472367E0
4.134123481E0,-3.075999916E-1,1.784099936E0,-1.228600025E0,2.187941581E0
4.144123481E0,-3.027999997E-1,1.333299994E0,-1.452299953E0,1.994630760E0
4.154123481E0,8.179999888E-2,8.741999865E-1,-1.265200019E0,1.540015566E0
4.164123481E0,7.874000072E-1,4.784999788E-1,-9.197999835E-1,1.301918972E0
4.174123481E0,1.470899940E0,1.560999900E-1,-4.855999947E-1,1.556830496E0
4.184123481E0,2.289899826E0,1.439999975E-2,7.409999520E-2,2.291143684E0
4.194123481E0,2.990200043E0,7.140000165E-2,5.501999855E-1,3.041235650E0
4.204123481E0,3.376799822E0,2.263000011E-1,7.809999585E-1,3.473319689E0
4.214123481E0,3.362099886E0,3.878999949E-1,7.034999728E-1,3.456746196E0
4.224123481E0,3.025199890E0,4.371999800E-1,5.600000024E-1,3.107503532E0
4.234123481E0,2.681299925E0,2.872999907E-1,2.985000014E-1,2.713118652E0
4.244123481E0,2.575799942E0,-2.565999925E-1,-6.149999797E-2,2.589280044E0
4.254123481E0,2.532500029E0,-9.766999483E-1,1.020999998E-1,2.716233347E0
4.264123481E0,2.582700014E0,-1.363499999E0,1.008000016E0,3.089585028E0
4.274123481E0,2.331699848E0,-1.279699922E0,1.846899986E0,3.238131503E0
4.284123481E0,1.742499948E0,-8.571999669E-1,2.076799870E0,2.843271979E0
4.294123481E0,1.100199938E0,-6.195999980E-1,1.448400021E0,1.921511561E0
4.304132856E0,7.342999578E-1,-6.683999896E-1,9.222999811E-1,1.355209294E0
4.314123481E0,6.787999868E-1,-7.773999572E-1,8.759999871E-1,1.353697194E0
4.324123481E0,9.516999722E-1,-8.463999629E-1,1.059800029E0,1.656895240E0
4.334123481E0,1.258899927E0,-8.472999930E-1,1.001600027E0,1.818226861E0
4.344123481E0,1.600199938E0,-8.417999744E-1,4.353999794E-1,1.859795736E0
4.354123481E0,1.886299968E0,-8.619999886E-1,-1.865999997E-1,2.082304279E0
4.364123481E0,1.940299988E0,-8.588999510E-1,-4.611999989E-1,2.171446202E0
4.374123481E0,1.802299976E0,-8.912000060E-1,-5.467999578E-1,2.083629729E0
4.384123481E0,1.603500009E0,-1.005100012E0,-5.593999624E-1,1.973414966E0
4.394123481E0,1.464900017E0,-1.128499985E0,-3.687999845E-1,1.885592136E0
4.404123481E0,1.349399924E0,-1.210199952E0,-1.899999939E-2,1.812684495E0
4.414123481E0,1.003799915E0,-1.269500017E0,4.551999867E-1,1.681205398E0
4.424123481E0,3.895999789E-1,-1.179199934E0,7.762999535E-1,1.464562134E0
4.434123481E0,-2.879000008E-1,-9.394999743E-1,9.067999721E-1,1.337098651E0
4.444123481E0,-8.926999569E-1,-6.196999550E-1,8.890999556E-1,1.404079762E0
4.454123481E0,-1.455500007E0,-3.195999861E-1,6.678000093E-1,1.632967015E0
4.464123481E0,-1.967799902E0,-2.080000006E-2,2.942999899E-1,1.989794356E0
4.474123481E0,-2.479899883E0,2.074999958E-1,-1.294000000E-1,2.491927776E0
4.484123481E0,-2.875000000E0,3.554999828E-1,-5.123999715E-1,2.941863180E0
4.494123481E0,-3.173799992E0,4.338999987E-1,-7.731999755E-1,3.295316950E0
4.504123481E0,-3.376799822E0,3.155999780E-1,-1.027699947E0,3.543804109E0
4.514123481E0,-3.562500000E0,1.693999916E-1,-1.019899964E0,3.709487639E0
4.524123481E0,-3.623099804E0,8.549999446E-2,-6.995999813E-1,3.691016469E0
4.534123481E0,-3.549199820E0,-2.369999886E-2,-2.712999880E-1,3.559632668E0
4.544123481E0,-3.389799833E0,-1.588999927E-1,1.567000002E-1,3.397138061E0
4.554123481E0,-3.389899969E0,-2.813999951E-1,7.111999989E-1,3.475113408E0
4.564123481E0,-3.352499962E0,-2.633000016E-1,1.115599990E0,3.543041945E0
4.574123481E0,-3.051899910E0,-1.432999969E-1,1.399500012E0,3.360539872E0
4.584123481E0,-2.703699827E0,-6.920000166E-2,1.542699933E0,3.113632040E0
4.594123481E0,-2.277400017E0,1.252000034E-1,1.463699937E0,2.710100253E0
4.604123481E0,-1.859999895E0,4.205999970E-1,1.129499912E0,2.216365046E0
4.614123481E0,-1.538499951E0,8.169999719E-1,5.557999611E-1,1.828492453E0
4.624123481E0,-1.223500013E0,1.382799983E0,3.329999745E-2,1.846671862E0
4.634123481E0,-1.101799965E0,1.968699932E0,-2.619999945E-1,2.271208177E0
4.644123481E0,-9.384999871E-1,2.424599886E0,-3.795999885E-1,2.627463222E0
4.654123481E0,-8.418999910E-1,2.501499891E0,-4.482999742E-1,2.677175782E0
4.664123481E0,-6.947999597E-1,2.256700039E0,-4.872999787E-1,2.410996333E0
4.674123481E0,-4.000999928E-1,1.809199929E0,-2.870000005E-1,1.875007570E0
4.684123481E0,-5.629999936E-2,1.170300007E0,5.739999935E-2,1.173058633E0
4.694123481E0,2.868999839E-1,5.370999575E-1,4.005999863E-1,7.288815501E-1
4.704123481E0,7.665999532E-1,-3.949999809E-2,6.671999693E-1,1.017050410E0
4.714123481E0,1.244300008E0,-5.288999677E-1,8.707999587E-1,1.608200937E0
4.724123481E0,1.759099960E0,-9.010999799E-1,9.925999641E-1,2.211711675E0
4.734123481E0,2.330600023E0,-1.174499989E0,1.210199952E0,2.876756962E0
4.744123481E0,2.646800041E0,-1.376599908E0,1.243999958E0,3.232354198E0
4.754123481E0,2.570699930E0,-1.403800011E0,1.031999946E0,3.105507445E0
4.764123481E0,2.118000031E0,-1.301299930E0,8.179999590E-1,2.616950433E0
4.774123481E0,1.539299965E0,-1.227599978E0,8.743999600E-1,2.154302991E0
4.784123481E0,1.168599963E0,-1.168499947E0,1.093999982E0,1.981881419E0
4.794123481E0,1.230700016E0,-1.231499910E0,1.194899917E0,2.111634526E0
4.804123481E0,1.929199934E0,-1.535799980E0,1.173699975E0,2.730945916E0
4.814123481E0,2.809799910E0,-1.847000003E0,1.177500010E0,3.562708354E0
4.824123481E0,3.350899935E0,-1.793999910E0,1.436800003E0,4.063417318E0
4.834123481E0,3.093199968E0,-1.387599945E0,1.603599906E0,3.750313628E0
4.844123481E0,2.090299845E0,-7.270999551E-1,1.074299932E0,2.460111406E0
4.854123481E0,1.001999974E0,-1.861999929E-1,3.389999866E-1,1.074055574E0
4.864123481E0,3.068999946E-1,2.549000084E-1,5.099999905E-2,4.021972413E-1
4.874123481E0,1.315999925E-1,6.560999751E-1,1.553999931E-1,6.869751766E-1
4.884123481E0,3.396999836E-1,6.929000020E-1,2.458999902E-1,8.099217844E-1
4.894123481E0,6.376999617E-1,4.518999755E-1,1.820999980E-1,8.025180610E-1
4.904123481E0,7.892999649E-1,2.946999967E-1,1.615999937E-1,8.578794091E-1
4.914123481E0,9.599999785E-1,1.925999969E-1,1.697999984E-1,9.937438086E-1
4.924123481E0,1.266899943E0,1.365000010E-1,4.844999909E-1,1.363234374E0
4.934123481E0,1.571999907E0,1.158999950E-1,8.815000057E-1,1.806006306E0
4.944123481E0,1.767799973E0,8.969999850E-2,1.035400033E0,2.050662348E0
4.954123481E0,1.874799967E0,1.779999956E-2,9.908999801E-1,2.120630691E0
4.964123481E0,1.736999989E0,-1.397999972E-1,8.129999638E-1,1.922935761E0
4.974123481E0,1.257399917E0,-2.456000000E-1,5.960999727E-1,1.413049570E0
4.984123481E0,5.741999745E-1,-2.879999876E-1,4.064999819E-1,7.601919750E-1
4.994123481E0,-1.840000004E-1,-3.529999852E-1,2.621999979E-1,4.766695172E-1
5.004123481E0,-1.007300019E0,-3.800999820E-1,3.509999812E-2,1.077200694E0
5.014123481E0,-1.796899915E0,-3.581999838E-1,-1.862999946E-1,1.841701447E0
5.024123481E0,-2.573299885E0,-3.155999780E-1,-4.770999849E-1,2.636114572E0
5.034123481E0,-3.190199852E0,-2.909999788E-1,-9.210000038E-1,3.333211228E0
5.044123481E0,-3.541199923E0,-2.931999862E-1,-1.306699991E0,3.785964605E0
5.054123481E0,-3.755699873E0,-3.312000036E-1,-1.509599924E0,4.061264201E0
5.064123481E0,-3.795799971E0,-3.558999896E-1,-1.643199921E0,4.151489877E0
5.074123481E0,-3.623299837E0,-3.376999795E-1,-1.774099946E0,4.048428535E0
5.084123481E0,-3.444599867E0,-3.359999955E-1,-1.802500010E0,3.902200728E0
5.094123481E0,-3.259599924E0,-4.104999900E-1,-1.759899974E0,3.727029625E0
5.104123481E0,-3.047799826E0,-5.315999985E-1,-1.511299968E0,3.443212153E0
5.114123481E0,-3.063199997E0,-6.987999678E-1,-1.207099915E0,3.365799433E0
5.124123481E0,-3.136999846E0,-8.416000009E-1,-9.217000008E-1,3.376179717E0
5.134123481E0,-3.139799833E0,-9.278999567E-1,-6.800999641E-1,3.343931411E0
5.144123481E0,-2.884199858E0,-8.860999942E-1,-4.849999845E-1,3.055978895E0
5.154123481E0,-2.497699976E0,-6.761999726E-1,-4.733999968E-1,2.630562512E0
5.164123481E0,-2.099299908E0,-2.612999976E-1,-6.409999728E-1,2.210479305E0
5.174123481E0,-1.701900005E0,1.674000025E-1,-9.019999504E-1,1.933414156E0
5.184123481E0,-1.317399979E0,4.786999822E-1,-1.142499924E0,1.808314810E0
5.194123481E0,-8.987999558E-1,7.189999819E-1,-1.102299929E0,1.593696165E0
5.204123481E0,-3.870999813E-1,9.059999585E-1,-8.414999843E-1,1.295686900E0
5.214123481E0,2.359999903E-2,1.000000000E0,-5.430999994E-1,1.138206734E0
5.224123481E0,1.100999936E-1,9.893999696E-1,-3.722999990E-1,1.062845990E0
5.234123481E0,-1.056999937E-1,8.542000055E-1,-3.662000000E-1,9.353783075E-1
5.244123481E0,-2.307000011E-1,5.478000045E-1,-4.594999850E-1,7.512972592E-1
5.254123481E0,-2.460999936E-1,2.004999965E-1,-4.517999887E-1,5.521672621E-1
5.264123481E0,5.799999833E-2,-4.600000102E-3,-2.757000029E-1,2.817723397E-1
5.274123481E0,6.017000079E-1,-1.053999960E-1,-1.011999995E-1,6.191877733E-1
5.284123481E0,1.197099924E0,-2.410999984E-1,-3.189999983E-2,1.221554357E0
5.294123481E0,1.763399959E0,-3.265999854E-1,1.546999961E-1,1.800049736E0
5.304132856E0,2.327499866E0,-3.838999867E-1,5.446000099E-1,2.420996489E0
5.314123481E0,2.682499886E0,-4.345999956E-1,8.653999567E-1,2.851946682E0
5.324123481E0,2.721599817E0,-4.702999890E-1,1.014699936E0,2.942431580E0
5.334123481E0,2.347899914E0,-4.327999949E-1,8.995999694E-1,2.551319256E0
5.344123481E0,1.769099951E0,-3.601000011E-1,7.505999804E-1,1.955194869E0
5.354123481E0,1.270900011E0,-2.987000048E-1,5.145999789E-1,1.403289589E0
5.364123481E0,1.178099990E0,-4.531999826E-1,1.694999933E-1,1.273593365E0
5.374123481E0,1.724699974E0,-9.795999527E-1,8.320000023E-2,1.985227520E0
5.384123481E0,2.476799965E0,-1.434999943E0,6.369999647E-1,2.932495841E0
5.394123481E0,2.739099979E0,-1.504199982E0,1.210899949E0,3.351352707E0
5.404123481E0,2.347599983E0,-1.346099973E0,1.225499988E0,2.970700429E0
5.414123481E0,1.665699959E0,-1.188699961E0,5.322999954E-1,2.114451994E0
5.424123481E0,9.651999474E-1,-1.346599936E0,-1.347000003E-1,1.662253416E0
5.434123481E0,5.867999792E-1,-1.630599976E0,-2.757999897E-1,1.754780935E0
5.444123481E0,5.002999902E-1,-1.850199938E0,-1.911000013E-1,1.926151370E0
5.454123481E0,5.486999750E-1,-1.886299968E0,-9.569999576E-2,1.966814104E0
5.464132856E0,7.110999823E-1,-1.779500008E0,8.190000057E-2,1.918069621E0
5.474123481E0,8.783999681E-1,-1.670799971E0,9.879999608E-2,1.890217047E0
5.484123481E0,9.814999700E-1,-1.612100005E0,-6.409999728E-2,1.888469599E0
5.494123481E0,9.718999863E-1,-1.515299916E0,-1.439999938E-1,1.805951112E0
5.504123481E0,1.008899927E0,-1.348299980E0,1.059999969E-2,1.684014329E0
5.514123481E0,1.045899987E0,-1.120299935E0,2.166999876E-1,1.547881653E0
5.524123481E0,9.179999828E-1,-9.795999527E-1,3.100000024E-1,1.377838901E0
5.534123481E0,6.462999582E-1,-9.465000033E-1,3.546999991E-1,1.199740798E0
5.544123481E0,3.779999912E-1,-8.438999653E-1,4.772999883E-1,1.040608679E0
5.554123481E0,1.134999990E-1,-6.509000063E-1,6.669999957E-1,9.388514591E-1
5.564123481E0,-1.959999949E-1,-4.268999994E-1,6.487999558E-1,8.009999939E-1
5.574123481E0,-5.023999810E-1,-1.239999980E-1,4.733999968E-1,7.013481998E-1
5.584123481E0,-9.150999784E-1,1.375999898E-1,1.645999998E-1,9.399121702E-1
5.594123481E0,-1.298200011E0,3.375999928E-1,-1.363999993E-1,1.348295956E0
5.604123481E0,-1.682299972E0,4.650999904E-1,-4.460999966E-1,1.801515030E0
5.614123481E0,-2.087699890E0,5.494999886E-1,-6.050999761E-1,2.242005140E0
5.624123481E0,-2.426100016E0,5.329999924E-1,-6.818999648E-1,2.575856720E0
5.634123481E0,-2.638099909E0,4.860000014E-1,-6.771999598E-1,2.766652655E0
5.644123481E0,-2.782099962E0,4.003999829E-1,-5.717999935E-1,2.868336727E0
5.654123481E0,-2.730700016E0,3.364000022E-1,-3.747999966E-1,2.776753964E0
5.664123481E0,-2.581300020E0,3.044999838E-1,-2.148000002E-1,2.608058488E0
5.674123481E0,-2.382799864E0,3.235999942E-1,-5.389999971E-2,2.405276981E0
5.684123481E0,-2.292299986E0,3.240999877E-1,1.019999944E-2,2.315120746E0
5.694123481E0,-2.212100029E0,3.350999951E-1,7.639999688E-2,2.238641442E0
5.704123481E0,-2.034399986E0,3.470999897E-1,2.628999949E-1,2.080475454E0
5.714123481E0,-1.807999969E0,4.290999770E-1,5.105999708E-1,1.927097041E0
5.724123481E0,-1.552199960E0,5.318999887E-1,6.121000051E-1,1.751259184E0
5.734123481E0,-1.237100005E0,6.739000082E-1,5.260999799E-1,1.503774861E0
5.744123481E0,-9.707999825E-1,8.436999917E-1,4.190999866E-1,1.352747974E0
5.754123481E0,-8.019999862E-1,9.497999549E-1,2.055999935E-1,1.259998131E0
5.764123481E0,-8.106999993E-1,9.007999897E-1,-3.599999845E-2,1.212423651E0
5.774123481E0,-8.969999552E-1,8.755999804E-1,-9.139999747E-2,1.256836586E0
5.784123481E0,-1.002499938E0,8.789999485E-1,7.660000026E-2,1.335482907E0
5.794123481E0,-1.018899918E0,7.841999531E-1,1.832999885E-1,1.298739964E0
5.804123481E0,-8.485999703E-1,6.793999672E-1,2.786000073E-1,1.122196146E0
5.814123481E0,-6.389999986E-1,5.643999577E-1,2.854000032E-1,8.990670010E-1
5.824123481E0,-4.098999798E-1,4.687999785E-1,1.156999990E-1,6.333860616E-1
5.834123481E0,-1.523000002E-1,3.236999810E-1,-7.050000131E-2,3.646192780E-1
5.844123481E0,1.817999929E-1,7.129999995E-2,-1.718000025E-1,2.600964595E-1
5.854123481E0,5.828999877E-1,-1.297999918E-1,-1.282999963E-1,6.108038331E-1
5.864123481E0,1.090499997E0,-3.468999863E-1,1.384999901E-1,1.152697745E0
5.874123481E0,1.675699949E0,-4.614999890E-1,5.885999799E-1,1.835048363E0
5.884123481E0,2.191999912E0,-5.227999687E-1,9.552999735E-1,2.447607293E0
5.894123481E0,2.709199905E0,-5.410000086E-1,1.263899922E0,3.038073098E0
5.904123481E0,3.238399982E0,-4.084999859E-1,1.558599949E0,3.617090058E0
5.914123481E0,3.348699808E0,-1.669999957E-1,1.747299910E0,3.780838052E0
5.924123481E0,3.108799934E0,2.102999985E-1,1.630800009E0,3.516869601E0
5.934123481E0,2.881399870E0,3.987999856E-1,1.081200004E0,3.103304704E0
5.944123481E0,2.988399982E0,2.113000005E-1,3.881999850E-1,3.020907376E0
5.954123481E0,3.347399950E0,-1.561999917E-1,2.228000015E-1,3.358440814E0
5.964123481E0,3.631799936E0,-2.122000009E-1,8.614999652E-1,3.738606934E0
5.974123481E0,3.460899830E0,3.576999903E-1,1.867100000E0,3.948650317E0
5.984123481E0,2.896600008E0,1.039700031E0,2.165999889E0,3.763352665E0
5.994123481E0,2.194900036E0,1.278999925E0,1.542699933E0,2.972095230E0
6.004123481E0,1.531599998E0,1.359099984E0,8.811999559E-1,2.229229617E0
6.014123481E0,8.374999762E-1,1.408399940E0,5.381000042E-1,1.724687860E0
6.024123481E0,3.488000035E-1,1.282699943E0,5.615000129E-1,1.443004799E0
6.034123481E0,1.260000020E-1,9.253999591E-1,7.423999906E-1,1.193062794E0
6.044123481E0,1.004999951E-1,5.634999871E-1,8.557999730E-1,1.029575679E0
6.054123481E0,3.111999929E-1,2.676999867E-1,1.013399959E0,1.093383828E0
6.064123481E0,5.706999898E-1,4.749999940E-2,1.150799990E0,1.285416409E0
6.074123481E0,9.066999555E-1,-2.155999988E-1,1.273100019E0,1.577774327E0
6.084123481E0,1.151099920E0,-5.230000019E-1,1.257699966E0,1.783358975E0
6.094123481E0,1.284500003E0,-8.158999681E-1,1.182399988E0,1.927096974E0
6.104123481E0,1.327799916E0,-1.063699961E0,1.151000023E0,2.054096219E0
6.114123481E0,1.028299928E0,-1.185099959E0,1.070099950E0,1.899204191E0
6.124123481E0,5.647000074E-1,-1.108799934E0,8.642999530E-1,1.515037228E0
6.134123481E0,-9.039999545E-2,-9.018999934E-1,6.850000024E-1,1.136142931E0
6.144123481E0,-8.484999537E-1,-6.125999689E-1,4.124999940E-1,1.124894279E0
6.154123481E0,-1.503099918E0,-3.386999965E-1,3.649999946E-2,1.541220069E0
6.164123481E0,-2.034800053E0,-5.079999939E-2,-3.732999861E-1,2.069382704E0
6.174123481E0,-2.562999964E0,1.316999942E-1,-8.111999631E-1,2.691534708E0
6.184123481E0,-2.972100019E0,1.979999989E-1,-1.162699938E0,3.197569963E0
6.194123481E0,-3.283499956E0,1.973000020E-1,-1.490199924E0,3.611231793E0
6.204123481E0,-3.508599997E0,1.201999933E-1,-1.671299934E0,3.888182795E0
6.214123481E0,-3.540799856E0,7.519999892E-2,-1.544799924E0,3.863848530E0
6.224123481E0,-3.489199877E0,-1.599999890E-2,-1.245299935E0,3.704800090E0
6.234123481E0,-3.255100012E0,-1.732999980E-1,-1.030099988E0,3.418598391E0
6.244123481E0,-2.896399975E0,-2.588000000E-1,-1.049099922E0,3.091394653E0
6.254123481E0,-2.503799915E0,-2.525999844E-1,-1.073799968E0,2.736031275E0
6.264123481E0,-2.165899992E0,-2.751999795E-1,-9.547999501E-1,2.382960501E0
6.274123481E0,-2.077600002E0,-3.535999954E-1,-8.051999807E-1,2.256058894E0
6.284123481E0,-2.096699953E0,-3.814999759E-1,-6.656999588E-1,2.232677621E0
6.294123481E0,-2.242199898E0,-4.268999994E-1,-5.284999609E-1,2.342864955E0
6.304132856E0,-2.336499929E0,-4.976999760E-1,-2.786999941E-1,2.405121800E0
6.314123481E0,-2.280699968E0,-4.930999875E-1,-5.529999733E-2,2.334051849E0
6.324123481E0,-2.036099911E0,-4.030999839E-1,5.799999926E-3,2.075626672E0
6.334123481E0,-1.740799904E0,-2.487999946E-1,-9.250000119E-2,1.760920780E0
6.344123481E0,-1.582599998E0,-8.229999989E-2,-3.571999967E-1,1.624496193E0
6.354123481E0,-1.592399955E0,8.419999480E-2,-6.274999976E-1,1.713646259E0
6.364123481E0,-1.574699998E0,2.406999916E-1,-8.032000065E-1,1.784025454E0
6.374123481E0,-1.539099932E0,3.190999925E-1,-8.651999831E-1,1.794219723E0
6.384123481E0,-1.435699940E0,3.200999796E-1,-8.158999681E-1,1.682079389E0
6.394123481E0,-1.165300012E0,2.647999823E-1,-5.796999931E-1,1.328192467E0
6.404123481E0,-7.369999886E-1,1.641999930E-1,-2.958000004E-1,8.109428223E-1
6.414123481E0,-1.797999889E-1,1.070000008E-1,-2.399999946E-1,3.183976030E-1
6.424123481E0,5.744000077E-1,3.999999724E-3,-2.935000062E-1,6.450531936E-1
6.434123481E0,1.200399995E0,-1.859999895E-1,-3.334999979E-1,1.259673923E0
6.444123481E0,1.736799955E0,-3.269000053E-1,-1.233999953E-1,1.771599632E0
6.454123481E0,2.026999950E0,-4.284999967E-1,3.166999817E-1,2.095862573E0
6.464123481E0,1.905200005E0,-5.498999953E-1,1.002900004E0,2.222157843E0
6.474123481E0,1.726199985E0,-5.034999847E-1,1.889999986E0,2.608712051E0
6.484123481E0,1.344399929E0,-3.762999773E-1,2.963999987E0,3.276325497E0
6.494123481E0,8.300999999E-1,-1.803999990E-1,3.550299883E0,3.650512214E0
6.504123481E0,6.547999978E-1,-2.126999944E-1,3.419299841E0,3.487924272E0
6.514123481E0,8.650999665E-1,-5.929999948E-1,3.039099932E0,3.214992277E0
6.524123481E0,1.105499983E0,-1.055599928E0,2.674399853E0,3.080395428E0
6.534123481E0,1.318499923E0,-1.362399936E0,2.038599968E0,2.783965779E0
6.544123481E0,1.544099927E0,-1.403800011E0,9.431999922E-1,2.290092854E0
6.554123481E0,2.015899897E0,-1.572099924E0,-5.552999973E-1,2.616048289E0
6.564123481E0,2.619999886E0,-1.858899951E0,-1.635399938E0,3.604780352E0
6.574123481E0,3.263199806E0,-1.950399995E0,-1.918499947E0,4.258306607E0
6.584123481E0,3.837499857E0,-1.736299992E0,-1.638899922E0,4.519638898E0
6.594123481E0,4.100999832E0,-1.432399988E0,-1.237800002E0,4.516870398E0
6.604123481E0,3.977899790E0,-1.003199935E0,-9.506999850E-1,4.211166977E0
6.614123481E0,3.577699900E0,-5.997999907E-1,-6.575999856E-1,3.686751191E0
6.624123481E0,3.030200005E0,-4.280999899E-1,-2.483000010E-1,3.070347628E0
6.634123481E0,2.368499994E0,-3.594000041E-1,7.779999822E-2,2.396875763E0
6.644123481E0,1.654299974E0,-3.826999962E-1,3.301999867E-1,1.729797596E0
6.654123481E0,9.964999557E-1,-5.846999884E-1,5.644999743E-1,1.285902974E0
6.664123481E0,6.001999974E-1,-8.342999816E-1,6.775999665E-1,1.231031361E0
6.674123481E0,4.350000024E-1,-8.632999659E-1,8.430999517E-1,1.282703926E0
6.684123481E0,2.342999876E-1,-6.035000086E-1,1.068099976E0,1.248978103E0
6.694123481E0,-1.809999943E-1,-2.057999969E-1,1.094499946E0,1.128292855E0
6.704123481E0,-8.032999635E-1,1.491999924E-1,8.093999624E-1,1.150078157E0
6.714123481E0,-1.634299994E0,3.217000067E-1,1.674999893E-1,1.674062009E0
6.724123481E0,-2.253200054E0,4.487999976E-1,-4.851000011E-1,2.348117104E0
6.734123481E0,-2.679899931E0,4.939999878E-1,-9.407999516E-1,2.882881228E0
6.744123481E0,-3.060400009E0,4.095999897E-1,-1.250699997E0,3.331376720E0
6.754123481E0,-3.392599821E0,2.712999880E-1,-1.384699941E0,3.674334110E0
6.764123481E0,-3.460399866E0,1.867999882E-1,-1.371399999E0,3.726928954E0
6.774123481E0,-3.408599854E0,1.251000017E-1,-1.244599938E0,3.630872069E0
6.784123481E0,-3.139400005E0,1.103999987E-1,-1.079100013E0,3.321517333E0
6.794123481E0,-2.732300043E0,2.298000008E-1,-8.919999599E-1,2.883389584E0
6.804123481E0,-2.335799932E0,3.630000055E-1,-7.098000050E-1,2.468105827E0
6.814123481E0,-1.970199943E0,5.368999839E-1,-5.414000154E-1,2.112596361E0
6.824123481E0,-1.852199912E0,6.011999846E-1,-5.332999825E-1,2.019033137E0
6.834123481E0,-1.825399995E0,5.741999745E-1,-4.878999889E-1,1.974800535E0
6.844123481E0,-1.762099981E0,4.372999966E-1,-3.763999939E-1,1.854158727E0
6.854123481E0,-1.650999904E0,3.104999959E-1,-8.379999548E-2,1.682032511E0
6.864123481E0,-1.568899989E0,2.443999946E-1,2.773000002E-1,1.611854157E0
6.874123481E0,-1.504099965E0,2.498999983E-1,5.744999647E-1,1.629360894E0
6.884123481E0,-1.475299954E0,3.370999992E-1,7.552999854E-1,1.691338060E0
6.894123481E0,-1.521499991E0,5.449999571E-1,7.997999787E-1,1.803237972E0
6.904123481E0,-1.555400014E0,7.446999550E-1,6.704999804E-1,1.850247943E0
6.914123481E0,-1.549099922E0,8.757999539E-1,5.286999941E-1,1.856410464E0
6.924123481E0,-1.298399925E0,9.667999744E-1,4.966000021E-1,1.693267881E0
6.934123481E0,-1.069299936E0,9.771999717E-1,4.890999794E-1,1.528901870E0
6.944123481E0,-5.875999928E-1,8.378999829E-1,5.175999999E-1,1.146847807E0
6.954123481E0,-8.879999816E-2,6.570999622E-1,5.819000006E-1,8.821980564E-1
6.964123481E0,3.887999952E-1,4.444999993E-1,4.831999838E-1,7.630386032E-1
6.974123481E0,1.022300005E0,2.893999815E-1,3.871999979E-1,1.130828673E0
6.984123481E0,1.693799973E0,2.539999969E-2,3.244999945E-1,1.724790930E0
6.994123481E0,2.393699884E0,-1.995999962E-1,3.631999791E-1,2.429311326E0
7.004123481E0,2.946499825E0,-2.085999995E-1,5.791999698E-1,3.010124214E0
7.014123481E0,3.460299969E0,-1.388999969E-1,8.535999656E-1,3.566735480E0
7.024123481E0,3.846999884E0,-7.169999927E-2,1.125299931E0,4.008846334E0
7.034123481E0,3.842199802E0,-1.970000006E-2,1.232999921E0,4.035241779E0
7.044123481E0,3.329399824E0,4.399999976E-2,1.003999949E0,3.477765818E0
7.054123481E0,2.505499840E0,3.150000051E-2,4.156999886E-1,2.539946491E0
7.064123481E0,2.027400017E0,-3.392999768E-1,-3.328000009E-1,2.082361914E0
7.074123481E0,2.000999928E0,-8.987999558E-1,-7.712000012E-1,2.325207843E0
7.084123481E0,2.197599888E0,-1.310099959E0,-6.794999838E-1,2.647173473E0
7.094123481E0,2.322200060E0,-1.285799980E0,-1.704999954E-1,2.659880628E0
7.104123481E0,2.160399914E0,-8.662999868E-1,1.216999963E-1,2.330796933E0
7.114123481E0,1.812099934E0,-5.752999783E-1,-3.998999894E-1,1.942832014E0
7.124123481E0,1.188899994E0,-4.758999944E-1,-1.081099987E0,1.675929945E0
7.134123481E0,5.548999906E-1,-5.180000067E-1,-1.320500016E0,1.523140932E0
7.144123481E0,8.789999783E-2,-6.584999561E-1,-1.060500026E0,1.251402775E0
7.154123481E0,-8.240000159E-2,-8.057000041E-1,-4.734999835E-1,9.381601629E-1
7.164123481E0,1.549999975E-2,-1.054700017E0,2.815999985E-1,1.091755895E0
7.174123481E0,3.522000015E-1,-1.267699957E0,1.039799929E0,1.676988943E0
7.184123481E0,7.305999994E-1,-1.200600028E0,1.607100010E0,2.134944315E0
7.194123481E0,1.070299983E0,-9.934999943E-1,2.057100058E0,2.522745516E0
7.204123481E0,1.340199947E0,-7.192999721E-1,2.225499868E0,2.695622009E0
7.214123481E0,1.254599929E0,-5.304999948E-1,1.897399902E0,2.335717794E0
7.224123481E0,7.630999684E-1,-4.717999995E-1,1.132699966E0,1.444965749E0
7.234123481E0,1.506000012E-1,-6.399999857E-1,2.251999974E-1,6.949786910E-1
7.244123481E0,-4.338999987E-1,-7.550999522E-1,-2.982999980E-1,9.205585454E-1
7.254123481E0,-9.805999994E-1,-7.555999756E-1,-5.368999839E-1,1.349358838E0
7.264123481E0,-1.579199910E0,-7.010999918E-1,-6.814999580E-1,1.857378730E0
7.274123481E0,-2.075700045E0,-6.541000009E-1,-9.581999779E-1,2.377924449E0
7.284123481E0,-2.449599981E0,-5.133000016E-1,-1.403899908E0,2.869660592E0
7.294123481E0,-2.604300022E0,-3.276000023E-1,-1.895399928E0,3.237628956E0
7.304132856E0,-2.661000013E0,-1.081999987E-1,-2.177999973E0,3.440394192E0
7.314123481E0,-2.700799942E0,1.132999957E-1,-2.302599907E0,3.550932771E0
7.324123481E0,-2.705899954E0,3.650999963E-1,-2.304499865E0,3.572941672E0
7.334123481E0,-2.716099977E0,5.090000033E-1,-2.133499861E0,3.491146194E0
7.344126606E0,-2.563799858E0,5.349999666E-1,-1.694899917E0,3.119612220E0
7.354123481E0,-2.364799976E0,4.931999743E-1,-1.032599926E0,2.627125378E0
7.364123481E0,-2.234799862E0,4.427999854E-1,-5.054999590E-1,2.333652172E0
7.374123481E0,-2.014899969E0,3.946999907E-1,-1.296000034E-1,2.057281247E0
7.384123481E0,-1.861199975E0,3.191999793E-1,1.516000032E-1,1.894448874E0
7.394123481E0,-1.734200001E0,3.050000072E-1,2.782000005E-1,1.782658096E0
7.404123481E0,-1.594299912E0,3.331999779E-1,2.495999932E-1,1.647760478E0
7.414123481E0,-1.648399949E0,3.437999785E-1,1.076999977E-1,1.687311503E0
7.424123481E0,-1.682199955E0,3.950999975E-1,-1.431999952E-1,1.733899344E0
7.434123481E0,-1.510599971E0,4.490000010E-1,-2.736999989E-1,1.599507725E0
7.444123481E0,-1.300499916E0,5.554000139E-1,-2.820999920E-1,1.441995011E0
7.454123481E0,-1.111099958E0,7.231999636E-1,-1.684999913E-1,1.336395732E0
7.464123481E0,-1.000699997E0,8.730999827E-1,5.570000038E-2,1.329212757E0
7.474123481E0,-7.335999608E-1,1.023999929E0,3.892999887E-1,1.318445766E0
7.484123481E0,-4.176999927E-1,1.203699946E0,5.561999679E-1,1.390224892E0
7.494123481E0,-1.601999998E-1,1.341599941E0,4.657000005E-1,1.429136429E0
7.504123481E0,1.468999982E-1,1.377599955E0,1.651999950E-1,1.395224814E0
7.514123481E0,4.639999866E-1,1.282099962E0,-3.240000010E-1,1.401446503E0
7.524123481E0,8.294999599E-1,1.085099936E0,-7.737999558E-1,1.569802034E0
7.534123481E0,1.046599984E0,8.266999722E-1,-9.854999781E-1,1.658316790E0
7.544123481E0,1.242499948E0,6.362000108E-1,-1.094900012E0,1.774080779E0
7.554123481E0,1.485899925E0,4.473999739E-1,-8.751999736E-1,1.781583655E0
7.564123481E0,1.806599975E0,3.402999938E-1,-3.951999843E-1,1.880369799E0
7.574123481E0,2.068599939E0,3.348000050E-1,4.690000042E-2,2.096043025E0
7.584123481E0,2.243900061E0,4.302999973E-1,2.703000009E-1,2.300718944E0
7.594123481E0,2.254799843E0,6.545000076E-1,2.714000046E-1,2.363503872E0
7.604123481E0,2.091500044E0,8.675000072E-1,-5.869999900E-2,2.265032977E0
7.614123481E0,1.841799974E0,8.025999665E-1,-5.141000152E-1,2.073811148E0
7.624123481E0,1.877399921E0,3.229999840E-1,-7.382000089E-1,2.043012165E0
7.634123481E0,2.088700056E0,-4.411000013E-1,-3.912999928E-1,2.170334725E0
7.644123481E0,2.387199879E0,-8.772999644E-1,2.847000062E-1,2.559185922E0
7.654123481E0,2.617899895E0,-9.624999762E-1,1.031299949E0,2.973783053E0
7.664123481E0,2.527699947E0,-7.569999695E-1,1.430199981E0,3.001297713E0
7.674123481E0,2.351699829E0,-4.694999754E-1,1.431399941E0,2.792817235E0
7.684123481E0,2.136800051E0,-2.608000040E-1,1.333899975E0,2.532433660E0
7.694123481E0,2.027899981E0,-2.539999969E-2,1.132399917E0,2.322789931E0
7.704123481E0,1.917099953E0,1.474999934E-1,7.681999803E-1,2.070545746E0
7.714123481E0,1.872799993E0,2.856999934E-1,3.094999790E-1,1.919581865E0
7.724123481E0,1.765699983E0,3.087999821E-1,1.489999983E-2,1.792561259E0
7.734123481E0,1.643799901E0,1.079999954E-1,-1.715999991E-1,1.656257430E0
7.744123481E0,1.644500017E0,-2.867999971E-1,-1.911999881E-1,1.680235692E0
7.754123481E0,1.695500016E0,-6.248999834E-1,-4.459999874E-2,1.807542380E0
7.764123481E0,1.657699943E0,-8.521999717E-1,9.139999747E-2,1.866163940E0
7.774123481E0,1.614799976E0,-1.048799992E0,3.069999814E-1,1.949822909E0
7.784123481E0,1.544099927E0,-1.196399927E0,5.970000029E-1,2.042553885E0
7.794123481E0,1.338699937E0,-1.255299926E0,7.713999748E-1,1.990716792E0
7.804123481E0,8.331999779E-1,-1.215899944E0,7.380999923E-1,1.648461852E0
7.814123481E0,1.165999994E-1,-1.058099985E0,4.946999848E-1,1.173839518E0
7.824123481E0,-6.834999919E-1,-8.891999722E-1,2.087999880E-1,1.140809478E0
7.834123481E0,-1.490199924E0,-6.891999841E-1,7.050000131E-2,1.643369307E0
7.844123481E0,-2.177299976E0,-4.970999956E-1,6.549999863E-2,2.234285980E0
7.854123481E0,-2.638200045E0,-2.538999915E-1,1.876000017E-1,2.657020595E0
7.864123481E0,-2.932999849E0,-1.040000003E-2,1.843999922E-1,2.938809220E0
7.874123481E0,-2.964999914E0,2.017000020E-1,5.889999866E-2,2.972436138E0
7.884123481E0,-2.784499884E0,3.515000045E-1,-4.311999977E-1,2.839529062E0
7.894123481E0,-2.597699881E0,3.592000008E-1,-1.177899957E0,2.874807405E0
7.904123481E0,-2.581500053E0,4.007999897E-1,-1.778899908E0,3.160580333E0
7.914123481E0,-2.627699852E0,3.797999918E-1,-2.027799845E0,3.340812290E0
7.924123481E0,-2.519500017E0,1.917999983E-1,-1.867199898E0,3.141831159E0
7.934123481E0,-2.333299875E0,-1.289999951E-2,-1.272099972E0,2.657572775E0
7.944123481E0,-2.126699924E0,-2.144999951E-1,-4.912999868E-1,2.193225591E0
7.954123481E0,-1.997099996E0,-4.324999750E-1,1.885999888E-1,2.052080548E0
7.964123481E0,-2.002599955E0,-5.795999765E-1,5.791000128E-1,2.163723535E0
7.974123481E0,-2.005599976E0,-6.556999683E-1,8.946999907E-1,2.291912255E0
7.984123481E0,-1.957499981E0,-5.819000006E-1,1.058300018E0,2.300089719E0
7.994123481E0,-1.858899951E0,-4.171999991E-1,9.833999872E-1,2.143977706E0
8.004123481E0,-1.828199983E0,-2.511999905E-1,6.714999676E-1,1.963753757E0
8.014123481E0,-1.984200001E0,-6.599999964E-2,2.231999934E-1,1.997804765E0
8.024123481E0,-2.112099886E0,2.089999989E-2,-4.449999705E-2,2.112672002E0
8.034123481E0,-2.182399988E0,8.989999443E-2,-9.239999950E-2,2.186204354E0
8.044123481E0,-2.184399843E0,1.614999920E-1,-1.069999952E-2,2.190387959E0
8.054123481E0,-2.029399872E0,1.767999977E-1,2.899999963E-3,2.037088729E0
8.064123481E0,-1.658800006E0,8.649999648E-2,-5.049999803E-2,1.661821278E0
8.074123481E0,-1.142300010E0,-1.092999950E-1,-8.999999613E-2,1.151041181E0
8.084123481E0,-5.877999663E-1,-3.614999950E-1,-9.529999644E-2,6.966154866E-1
8.094123481E0,-9.329999983E-2,-5.126000047E-1,-1.158000007E-1,5.337352292E-1
8.104123481E0,3.506999910E-1,-5.720999837E-1,-7.149999589E-2,6.748341459E-1
8.114123481E0,7.534999847E-1,-6.482999921E-1,1.939999871E-2,9.941989070E-1
8.124123481E0,1.144599915E0,-7.414999604E-1,2.060000002E-1,1.379263266E0
8.134123481E0,1.505199909E0,-8.317999840E-1,4.268999994E-1,1.771937242E0
8.144123481E0,1.885499954E0,-8.695999980E-1,7.092999816E-1,2.194178821E0
8.154123481E0,2.354199886E0,-8.933999538E-1,1.209399939E0,2.793397357E0
8.164123481E0,2.736199856E0,-8.154999614E-1,1.727100015E0,3.336870435E0
8.174123481E0,2.768399954E0,-5.891000032E-1,1.872699976E0,3.393830037E0
8.184123481E0,2.343999863E0,-2.958000004E-1,1.542999983E0,2.821822451E0
8.194123481E0,1.736499906E0,-1.238999963E-1,8.772000074E-1,1.949426322E0
8.204123481E0,1.424499989E0,-3.188999891E-1,8.749999851E-2,1.462379455E0
8.214123481E0,1.719099998E0,-7.707999945E-1,-4.921999872E-1,1.947228354E0
8.224123481E0,2.235299826E0,-1.142799973E0,-4.301999807E-1,2.547082471E0
8.234123481E0,2.541899920E0,-1.010200024E0,1.770000011E-1,2.741001330E0
8.244123481E0,2.298799992E0,-4.032999873E-1,6.028000116E-1,2.410497902E0
8.254123481E0,1.613499999E0,1.586999893E-1,2.666999996E-1,1.643075416E0
8.264123481E0,7.588999867E-1,3.234999776E-1,-3.799999952E-1,9.082848792E-1
8.274123481E0,5.920000002E-2,2.983999848E-1,-5.548999906E-1,6.328200301E-1
8.284123481E0,-3.549999893E-1,1.828999966E-1,-3.326999843E-1,5.197756061E-1
8.294123481E0,-3.159999847E-1,-9.699999355E-3,2.258999944E-1,3.885625919E-1
8.304132856E0,1.889999956E-2,-2.096000016E-1,8.087999821E-1,8.357312855E-1
8.314123481E0,3.066000044E-1,-3.497000039E-1,1.189999938E0,1.277651560E0
8.324123481E0,4.776999950E-1,-3.828999996E-1,1.350700021E0,1.482970074E0
8.334123481E0,7.857999802E-1,-4.470999837E-1,1.472599983E0,1.727984582E0
8.344123481E0,1.052999973E0,-4.637999833E-1,1.687899947E0,2.042773996E0
8.354123481E0,1.210299969E0,-3.359999955E-1,1.889400005E0,2.268822248E0
8.364123481E0,1.307099938E0,-2.115999907E-1,1.878999949E0,2.298679101E0
8.374123481E0,1.344200015E0,-1.709999889E-1,1.721300006E0,2.190659350E0
8.384123481E0,1.214499950E0,-8.760000020E-2,1.402699947E0,1.857485136E0
8.394123481E0,8.898999691E-1,1.960000023E-2,9.577999711E-1,1.307549961E0
8.404123481E0,2.636999786E-1,1.614999920E-1,4.324999750E-1,5.316729770E-1
8.414123481E0,-3.791999817E-1,2.997999787E-1,2.399999881E-3,4.834029513E-1
8.424123481E0,-1.009899974E0,4.159999788E-1,-3.197000027E-1,1.138051858E0
8.434123481E0,-1.570199966E0,5.202999711E-1,-5.805000067E-1,1.753060253E0
8.444123481E0,-2.031199932E0,5.539000034E-1,-8.355999589E-1,2.265128179E0
8.454123481E0,-2.423599958E0,6.741999984E-1,-1.169099927E0,2.774018211E0
8.464123481E0,-2.718999863E0,7.445999980E-1,-1.409799933E0,3.151971647E0
8.474123481E0,-2.800799847E0,7.558999658E-1,-1.476099968E0,3.254955553E0
8.484123481E0,-2.639799833E0,7.278999686E-1,-1.435400009E0,3.091723582E0
8.494123481E0,-2.442100048E0,6.406999826E-1,-1.376699924E0,2.875700227E0
8.504123481E0,-2.314899921E0,5.234999657E-1,-1.282499909E0,2.697706411E0
8.514123481E0,-2.100600004E0,3.870999813E-1,-1.174299955E0,2.437487879E0
8.524123481E0,-1.925799966E0,3.015999794E-1,-1.073599935E0,2.225372974E0
8.534123481E0,-1.809499979E0,2.879999876E-1,-9.724999666E-1,2.074365048E0
8.544123481E0,-1.603699923E0,3.076999784E-1,-8.534999490E-1,1.842551188E0
8.554123481E0,-1.366199970E0,3.720999956E-1,-6.899999976E-1,1.575138331E0
8.564123481E0,-1.175099969E0,5.000000000E-1,-7.092999816E-1,1.460810186E0
8.574123481E0,-1.149199963E0,6.791999936E-1,-8.988999724E-1,1.609345937E0
8.584123481E0,-1.241099954E0,7.313999534E-1,-1.087700009E0,1.805094540E0
8.594123481E0,-1.256399989E0,7.637000084E-1,-1.094200015E0,1.832771756E0
8.604123481E0,-1.352800012E0,7.274999619E-1,-9.159999490E-1,1.788401513E0
8.614123481E0,-1.392399907E0,7.220000029E-1,-5.054999590E-1,1.647905250E0
8.624123481E0,-1.354599953E0,7.479000092E-1,-7.090000063E-2,1.548974585E0
8.634123481E0,-1.120899916E0,8.634999990E-1,1.685999930E-1,1.424947307E0
8.644123481E0,-8.083999753E-1,8.912000060E-1,-6.329999864E-2,1.204887904E0
8.654123481E0,-4.657000005E-1,8.800999522E-1,-5.722999573E-1,1.148468396E0
8.664123481E0,-1.124999970E-1,8.798999786E-1,-1.112100005E0,1.422549346E0
8.674123481E0,1.809999943E-1,7.922999859E-1,-1.414099932E0,1.631005482E0
8.684123481E0,6.291999817E-1,4.409999847E-1,-1.168900013E0,1.398821234E0
8.694123481E0,1.103999972E0,3.499999875E-3,-4.925999939E-1,1.208918088E0
8.704123481E0,1.556299925E0,-3.721999824E-1,6.747999787E-1,1.736651172E0
8.714123481E0,2.133199930E0,-4.021999836E-1,2.029700041E0,2.971866253E0
8.724123481E0,2.943300009E0,-2.060000002E-1,3.039499998E0,4.236037202E0
8.734123481E0,3.469299793E0,2.620000020E-2,2.939399958E0,4.547174904E0
8.744123481E0,3.125000000E0,2.584999800E-1,1.542799950E0,3.494664351E0
8.754123481E0,2.082999945E0,3.544999957E-1,-3.379999846E-2,2.113220636E0
8.764123481E0,1.323199987E0,8.569999784E-2,-1.083400011E0,1.712296201E0
8.774123481E0,1.120000005E0,-5.263999701E-1,-1.344499946E0,1.827341523E0
8.784123481E0,1.516099930E0,-1.250800014E0,-6.753000021E-1,2.078241989E0
8.794123481E0,1.993499994E0,-1.581599951E0,6.462999582E-1,2.625491243E0
8.804123481E0,1.867199898E0,-1.422699928E0,1.790399909E0,2.952294426E0
8.814123481E0,1.236899972E0,-1.190899968E0,2.052899837E0,2.676296325E0
8.824123481E0,5.245000124E-1,-1.164499998E0,1.618299961E0,2.061566218E0
8.834123481E0,-6.689999998E-2,-1.216199994E0,8.994999528E-1,1.514172447E0
8.844123481E0,-4.230999947E-1,-1.205299973E0,4.676999748E-1,1.360332642E0
8.854123481E0,-3.008999825E-1,-1.109200001E0,3.307999969E-1,1.195949029E0
8.864123481E0,8.229999989E-2,-1.017400026E0,2.874000072E-1,1.060412593E0
8.874123481E0,5.192999840E-1,-1.061299920E0,3.398000002E-1,1.229428336E0
8.884123481E0,8.514999747E-1,-1.185299993E0,6.780999899E-1,1.609288003E0
8.894123481E0,1.099599957E0,-1.232499957E0,9.550999999E-1,1.907981190E0
8.904123481E0,1.325999975E0,-1.093599916E0,1.004099965E0,1.990591231E0
8.914123481E0,1.454399943E0,-8.955000043E-1,8.869999647E-1,1.924569664E0
8.924123481E0,1.447099924E0,-7.669000030E-1,6.965999603E-1,1.779743046E0
8.934123481E0,1.294799924E0,-7.378999591E-1,6.161000133E-1,1.612632140E0
8.944123481E0,1.027500033E0,-6.703000069E-1,7.425000072E-1,1.434003026E0
8.954123481E0,6.657999754E-1,-5.623999834E-1,9.453999996E-1,1.285832224E0
8.964123481E0,2.784999907E-1,-4.142999947E-1,1.106299996E0,1.213715952E0
8.974123481E0,-9.539999813E-2,-1.876999885E-1,1.284999967E0,1.302135692E0
8.984123481E0,-3.982999921E-1,3.689999878E-2,1.277999997E0,1.339137217E0
8.994123481E0,-8.073999882E-1,2.578999996E-1,1.018999934E0,1.325431257E0
9.004123481E0,-1.215999961E0,4.836999774E-1,5.400999784E-1,1.415743465E0
9.014123481E0,-1.664399981E0,6.452999711E-1,-1.351999938E-1,1.790228586E0
9.024123481E0,-2.006599903E0,6.450999975E-1,-6.310999990E-1,2.200200988E0
9.034123481E0,-2.380899906E0,6.610999703E-1,-8.940999508E-1,2.627765639E0
9.044123481E0,-2.591500044E0,5.968999863E-1,-8.737999797E-1,2.799229979E0
9.054123481E0,-2.677599907E0,5.719999671E-1,-6.674999595E-1,2.818205354E0
9.064123481E0,-2.629299879E0,5.478999615E-1,-2.947999835E-1,2.701910297E0
9.074123481E0,-2.426100016E0,4.862999916E-1,6.499999762E-2,2.475211904E0
9.084123481E0,-2.253099918E0,5.335999727E-1,3.105999827E-1,2.336163633E0
9.094123481E0,-2.168799877E0,5.712000132E-1,2.631999850E-1,2.258148931E0
9.104123481E0,-2.231199980E0,5.400999784E-1,3.819999844E-2,2.295957442E0
9.114123481E0,-2.332499981E0,5.291999578E-1,-9.889999777E-2,2.393823295E0
9.124123481E0,-2.267400026E0,5.302000046E-1,-6.749999523E-2,2.329543126E0
9.134123481E0,-1.996699929E0,6.229999661E-1,2.316000015E-1,2.104418714E0
9.144123481E0,-1.687500000E0,7.563999891E-1,5.042999983E-1,1.916798289E0
9.154123481E0,-1.388799906E0,8.391000032E-1,6.122999787E-1,1.734290996E0
9.164123481E0,-1.051599979E0,8.301999569E-1,7.795000076E-1,1.550069272E0
9.174123481E0,-8.519999981E-1,7.479000092E-1,8.080999851E-1,1.392222686E0
9.184123481E0,-9.558999538E-1,5.817999840E-1,5.081999898E-1,1.229025294E0
9.194123481E0,-1.078400016E0,3.630000055E-1,1.445000023E-1,1.146994267E0
9.204123481E0,-9.751999974E-1,1.141999960E-1,1.559999958E-2,9.819877973E-1
9.214123481E0,-6.080999970E-1,-2.113999873E-1,1.846999973E-1,6.697683555E-1
9.224123481E0,-9.529999644E-2,-5.155000091E-1,5.751999617E-1,7.782527511E-1
9.234123481E0,3.671999872E-1,-6.996999979E-1,8.244000077E-1,1.141950651E0
9.244123481E0,9.273999929E-1,-8.716999888E-1,9.881999493E-1,1.611356806E0
9.254123481E0,1.366599917E0,-9.347999692E-1,1.046800017E0,1.958886570E0
9.264123481E0,1.587099910E0,-1.004599929E0,9.853000045E-1,2.121066533E0
9.274123481E0,1.775299907E0,-1.074000001E0,9.836999774E-1,2.296264664E0
9.284123481E0,1.983699918E0,-1.081799984E0,1.177799940E0,2.548052054E0
9.294123481E0,2.154299974E0,-9.587000012E-1,1.624399900E0,2.863352774E0
9.304132856E0,2.238399982E0,-7.647999525E-1,2.193199873E0,3.225752491E0
9.314123481E0,2.197099924E0,-6.603999734E-1,2.390899897E0,3.313574885E0
9.324123481E0,1.833999991E0,-8.156999946E-1,1.951399922E0,2.799443535E0
9.334123481E0,1.451599956E0,-1.162400007E0,1.233199954E0,2.231389328E0
9.344123481E0,1.400299907E0,-1.658399940E0,8.165000081E-1,2.319008937E0
9.354123481E0,1.737100005E0,-2.122299910E0,7.996000051E-1,2.856752265E0
9.364123481E0,2.128900051E0,-2.167299986E0,1.203400016E0,3.267656080E0
9.374123481E0,2.362299919E0,-1.830599904E0,1.639099956E0,3.408548897E0
9.384123481E0,2.165799856E0,-1.301199913E0,1.583699942E0,2.981931544E0
9.394123481E0,1.492499948E0,-7.009999752E-1,1.104099989E0,1.984437916E0
9.404123481E0,7.543999553E-1,-2.088999897E-1,5.899999738E-1,9.802338840E-1
9.414123481E0,7.899999619E-2,2.043000013E-1,2.556999922E-1,3.366927025E-1
9.424123481E0,-4.057999849E-1,3.999999762E-1,4.079999775E-2,5.712602284E-1
9.434123481E0,-7.303000093E-1,3.278999925E-1,-1.014999971E-1,8.069440860E-1
9.444123481E0,-8.761999607E-1,1.167999953E-1,-2.239999920E-1,9.118906768E-1
9.454123481E0,-7.759999633E-1,-4.490000010E-2,-3.396999836E-1,8.482853481E-1
9.464123481E0,-2.745999992E-1,-1.261999905E-1,-4.494999945E-1,5.416473412E-1
9.474123481E0,6.352999806E-1,-1.889999956E-2,-3.290999830E-1,7.157304480E-1
9.484123481E0,1.589299917E0,1.955999881E-1,-1.289999951E-2,1.601343184E0
9.494123481E0,2.205100060E0,3.953000009E-1,7.279999554E-2,2.241434407E0
9.504123481E0,2.581599951E0,5.852000117E-1,-2.889999934E-2,2.647253779E0
9.514123481E0,2.426199913E0,6.157000065E-1,-3.064000010E-1,2.521787754E0
9.524123481E0,1.751099944E0,5.946999788E-1,-5.830999613E-1,1.939078298E0
9.534123481E0,7.846999764E-1,5.453999639E-1,-7.301999927E-1,1.202666705E0
9.544123481E0,-1.667999923E-1,4.820999801E-1,-6.837999821E-1,8.531266282E-1
9.554123481E0,-8.384000063E-1,4.655999839E-1,-6.295999885E-1,1.147211428E0
9.564123481E0,-1.476300001E0,3.788999915E-1,-7.680999637E-1,1.706752604E0
9.574123481E0,-2.023099899E0,1.819999963E-1,-9.751999974E-1,2.253235948E0
9.584123481E0,-2.510299921E0,-7.699999958E-3,-1.350899935E0,2.850718439E0
9.594123481E0,-2.910199881E0,-1.789999902E-1,-1.760299921E0,3.405871424E0
9.604123481E0,-3.302999973E0,-3.105999827E-1,-2.050099850E0,3.899896225E0
9.614123481E0,-3.621599913E0,-3.711999953E-1,-2.116799831E0,4.211248852E0
9.624123481E0,-3.572399855E0,-3.278999925E-1,-1.810499907E0,4.018391350E0
9.634123481E0,-3.057099819E0,-2.189999968E-1,-1.190899968E0,3.288170165E0
9.644123481E0,-2.574800014E0,-1.150999963E-1,-7.238000035E-1,2.677074816E0
9.654123481E0,-2.123600006E0,2.080000006E-2,-3.867000043E-1,2.158621440E0
9.664123481E0,-1.721499920E0,1.488000005E-1,-1.949999928E-1,1.738887119E0
9.674123481E0,-1.347599983E0,2.190999985E-1,-3.629999980E-2,1.365777513E0
9.684123481E0,-1.079499960E0,2.798999846E-1,5.680000037E-2,1.116642470E0
9.694123481E0,-9.372999668E-1,3.206000030E-1,1.735999882E-1,1.005709971E0
9.704123481E0,-8.524000049E-1,3.414999843E-1,3.540999889E-1,9.841721443E-1
9.714123481E0,-8.445999622E-1,4.602999985E-1,5.885999799E-1,1.127685737E0
9.724123481E0,-7.277999520E-1,6.378999949E-1,8.780999780E-1,1.306778001E0
9.734123481E0,-6.299999952E-1,7.839999795E-1,9.882999659E-1,1.410068362E0
9.744123481E0,-7.080999613E-1,8.763999939E-1,7.613999844E-1,1.359857507E0
9.754123481E0,-9.713999629E-1,8.722999692E-1,3.329999745E-2,1.305999240E0
9.764123481E0,-1.352999926E0,8.513999581E-1,-7.028999925E-1,1.746298682E0
9.774123481E0,-1.587599993E0,7.764999866E-1,-1.120199919E0,2.092432514E0
9.784123481E0,-1.548799992E0,6.546999812E-1,-1.277499914E0,2.111733769E0
9.794123481E0,-1.256299973E0,4.189999998E-1,-1.173599958E0,1.769516172E0
9.804123481E0,-8.077999949E-1,1.297999918E-1,-8.880999684E-1,1.207522432E0
9.814123481E0,-2.811999917E-1,-5.499999970E-2,-5.898000002E-1,6.557152397E-1
9.824123481E0,4.115999937E-1,-1.650999933E-1,-3.664000034E-1,5.752577902E-1
9.834123481E0,9.857999682E-1,-2.699999809E-1,-2.944999933E-1,1.063687836E0
9.844123481E0,1.539399981E0,-3.707000017E-1,-2.572000027E-1,1.604157921E0
9.854123481E0,2.023799896E0,-3.006999791E-1,-2.029999904E-2,2.046117931E0
9.864123481E0,2.282699823E0,-1.001999974E-1,1.190999970E-1,2.287999854E0
9.874123481E0,2.268100023E0,5.159999803E-2,1.375999898E-1,2.272855920E0
9.884123481E0,2.009799957E0,1.924999952E-1,1.013999954E-1,2.021542499E0
9.894123481E0,1.596499920E0,3.315999806E-1,1.366000026E-1,1.636285459E0
9.904123481E0,1.293499947E0,3.222000003E-1,2.604999840E-1,1.358239741E0
9.914123481E0,1.297099948E0,-1.196999997E-1,4.241999984E-1,1.369942336E0
9.924123481E0,1.546999931E0,-7.483999729E-1,8.482999802E-1,1.916487455E0
9.934123481E0,1.709199905E0,-1.188199997E0,1.447899938E0,2.535665155E0
9.944123481E0,1.676899910E0,-1.249499917E0,1.946199894E0,2.856735441E0
9.954123481E0,1.372299910E0,-9.125999808E-1,2.193099976E0,2.743306995E0
9.964123481E0,1.050400019E0,-4.544000030E-1,2.031699896E0,2.331871358E0
9.974123481E0,8.269999623E-1,-2.228000015E-1,1.378899932E0,1.623247917E0
9.984123481E0,7.878999710E-1,-2.687999904E-1,7.127000093E-1,1.095892833E0
9.994123481E0,8.734999895E-1,-3.362999856E-1,2.319999933E-1,9.643256239E-1
1.000412348E1,1.024199963E0,-2.760999799E-1,1.809999906E-2,1.060916760E0
1.001412348E1,1.014299989E0,-1.568999887E-1,-7.589999586E-2,1.029166110E0
1.002412348E1,1.010900021E0,-1.577000022E-1,-1.499999911E-1,1.034063895E0
1.003412348E1,1.072799921E0,-4.074999988E-1,-1.748999953E-1,1.160838459E0
1.004412348E1,1.131799936E0,-7.579999566E-1,-4.799999762E-3,1.362188706E0
1.005412348E1,1.307500005E0,-9.901999831E-1,2.967999876E-1,1.666776080E0
1.006412348E1,1.532999992E0,-1.101799965E0,6.759999990E-1,2.005250143E0
1.007412348E1,1.623199940E0,-1.260900021E0,9.806999564E-1,2.277371140E0
1.008412348E1,1.461099982E0,-1.369699955E0,1.129599929E0,2.299323188E0
1.009412348E1,1.223500013E0,-1.308899999E0,1.308599949E0,2.218694507E0
1.010412348E1,9.887999892E-1,-1.028800011E0,1.469200015E0,2.048097548E0
1.011412348E1,6.093999743E-1,-6.976999640E-1,1.455299973E0,1.725123642E0
1.012412348E1,1.609999873E-2,-4.171999991E-1,1.169499993E0,1.241791159E0
1.013412348E1,-6.150000095E-1,-1.691000015E-1,8.193999529E-1,1.038381483E0
1.014412348E1,-1.186599970E0,-3.229999915E-2,4.355999827E-1,1.264440637E0
1.015412348E1,-1.776899934E0,5.199999735E-2,7.750000060E-2,1.779349214E0
1.016412348E1,-2.406399965E0,1.231999993E-1,-2.428999990E-1,2.421763705E0
1.017412348E1,-2.918900013E0,9.359999746E-2,-5.126000047E-1,2.965045870E0
1.018412348E1,-3.265799999E0,4.299999680E-3,-7.393999696E-1,3.348459413E0
1.019412348E1,-3.437599897E0,-6.379999965E-2,-7.549999952E-1,3.520111999E0
1.020412348E1,-3.385399818E0,-8.969999850E-2,-6.757000089E-1,3.453338750E0
1.021412348E1,-3.188099861E0,-8.280000091E-2,-5.590999722E-1,3.237812432E0
1.022412348E1,-2.914700031E0,-1.499999966E-2,-3.461000025E-1,2.935214896E0
1.023412348E1,-2.692800045E0,7.220000029E-2,-1.340999901E-1,2.697103582E0
1.024412348E1,-2.493099928E0,1.194999963E-1,2.730000019E-2,2.496111534E0
1.025412348E1,-2.290199995E0,1.010999978E-1,5.579999834E-2,2.293109432E0
1.026412348E1,-2.028800011E0,1.530999988E-1,1.468999982E-1,2.039864874E0
1.027412348E1,-1.693499923E0,2.893999815E-1,4.232999980E-1,1.769428503E0
1.028412348E1,-1.376699924E0,3.764999807E-1,6.665999889E-1,1.575249334E0
1.029412348E1,-1.185500026E0,4.029999971E-1,7.753999829E-1,1.472774403E0
1.030413286E1,-1.217700005E0,3.770000041E-1,6.886999607E-1,1.448871954E0
1.031412348E1,-1.453899980E0,3.376999795E-1,4.957000017E-1,1.572763466E0
1.032412348E1,-1.639899969E0,3.163000047E-1,2.972999811E-1,1.696379934E0
1.033412348E1,-1.707799911E0,2.649999857E-1,2.642000020E-1,1.748315524E0
1.034412348E1,-1.619399905E0,1.250000000E-1,3.508999944E-1,1.661689459E0
1.035412348E1,-1.453599930E0,-5.370000005E-2,4.317999780E-1,1.517329123E0
1.036412348E1,-1.171000004E0,-1.428000033E-1,3.396999836E-1,1.227611066E0
1.037412348E1,-8.305000067E-1,-2.099999934E-1,1.733999997E-1,8.740124817E-1
1.038412348E1,-4.420000017E-1,-3.044999838E-1,5.130000040E-2,5.391807968E-1
1.039412348E1,-1.559999958E-2,-3.867000043E-1,6.279999763E-2,3.920766418E-1
1.040412348E1,4.095999897E-1,-5.151000023E-1,1.580999941E-1,6.768277270E-1
1.041412348E1,8.147000074E-1,-6.701999903E-1,3.752999902E-1,1.119711665E0
1.042412348E1,1.170599937E0,-8.122999668E-1,6.435999870E-1,1.563443761E0
1.043412348E1,1.487699986E0,-9.307999611E-1,9.620999694E-1,2.001318607E0
1.044412348E1,1.864799976E0,-8.477999568E-1,1.377599955E0,2.468607979E0
1.045412348E1,2.185199976E0,-5.927999616E-1,1.709599972E0,2.837118748E0
1.046412348E1,2.478799820E0,-3.255999982E-1,1.885800004E0,3.131565992E0
1.047412348E1,2.587999821E0,-2.669000030E-1,1.818499923E0,3.174259071E0
1.048412348E1,2.658599854E0,-5.570999980E-1,1.392499924E0,3.052469431E0
1.049412348E1,2.630300045E0,-9.596999884E-1,1.173900008E0,3.036040781E0
1.050412348E1,2.501999855E0,-1.108199954E0,1.334900022E0,3.044678715E0
1.051412348E1,2.441499949E0,-1.058399916E0,1.618499994E0,3.114590601E0
1.052412348E1,2.401099920E0,-8.683999777E-1,1.814399958E0,3.132322869E0
1.053412348E1,2.184799910E0,-4.713999927E-1,1.792699933E0,2.865194871E0
1.054412348E1,1.831999898E0,5.069999769E-2,1.639699936E0,2.459148226E0
1.055412348E1,1.470299959E0,4.012999833E-1,1.361699939E0,2.043783347E0
1.056412348E1,1.100199938E0,5.389999747E-1,8.280999660E-1,1.478752998E0
1.057412348E1,7.315999866E-1,3.745999932E-1,5.776999593E-1,1.004639706E0
1.058412348E1,4.721999764E-1,3.709999844E-2,5.429999828E-1,7.205540986E-1
1.059412348E1,5.677999854E-1,-2.630999982E-1,6.171000004E-1,8.788804486E-1
1.060412348E1,9.884999990E-1,-4.642999768E-1,7.159000039E-1,1.305840546E0
1.061412348E1,1.477299929E0,-5.677999854E-1,6.800000072E-1,1.722559698E0
1.062412348E1,1.718599916E0,-6.062999964E-1,4.258999825E-1,1.871517072E0
1.063412348E1,1.809799910E0,-6.003999710E-1,3.370000049E-2,1.907089806E0
1.064412348E1,1.652599931E0,-6.003000140E-1,-4.277999997E-1,1.809546760E0
1.065412348E1,1.267300010E0,-6.358000040E-1,-8.240999579E-1,1.639948688E0
1.066412348E1,7.240999937E-1,-6.656000018E-1,-1.140200019E0,1.505788912E0
1.067412348E1,8.399999887E-2,-6.269999743E-1,-1.313599944E0,1.457988265E0
1.068412348E1,-6.798999906E-1,-5.180000067E-1,-1.508999944E0,1.734263196E0
1.069412348E1,-1.439000010E0,-4.553999901E-1,-1.808999896E0,2.355969186E0
1.070412348E1,-2.066299915E0,-3.393999934E-1,-2.043200016E0,2.925654457E0
1.071412348E1,-2.504999876E0,-2.383999974E-1,-2.135099888E0,3.300077343E0
1.072412348E1,-2.619799852E0,-1.428999901E-1,-2.313199997E0,3.497808728E0
1.073412348E1,-2.520900011E0,-1.539999992E-2,-2.364199877E0,3.456098246E0
1.074412348E1,-2.435799837E0,9.219999611E-2,-2.440299988E0,3.449157247E0
1.075412348E1,-2.354899883E0,2.123999894E-1,-2.495499849E0,3.437758967E0
1.076412348E1,-2.268399954E0,1.835999936E-1,-2.503399849E0,3.383246682E0
1.077412348E1,-2.225399971E0,7.789999992E-2,-2.402499914E0,3.275741027E0
1.078412348E1,-2.065500021E0,3.189999983E-2,-2.141399860E0,2.975382548E0
1.079412348E1,-1.874899983E0,3.830000013E-2,-1.745499969E0,2.561930323E0
1.080412348E1,-1.652599931E0,8.729999512E-2,-1.297199965E0,2.102720992E0
1.081412348E1,-1.427699924E0,9.950000048E-2,-9.057999849E-1,1.693723984E0
1.082412348E1,-1.318400025E0,7.349999994E-2,-6.782000065E-1,1.484431247E0
1.083412348E1,-1.344799995E0,6.729999930E-2,-5.832999945E-1,1.467397424E0
1.084412348E1,-1.340899944E0,1.107999980E-1,-6.281999946E-1,1.484898829E0
1.085412348E1,-1.376500010E0,1.744000018E-1,-7.207999825E-1,1.563560122E0
1.086412348E1,-1.276099920E0,2.088999897E-1,-6.520999670E-1,1.448207367E0
1.087412348E1,-1.167599916E0,2.633000016E-1,-5.383999944E-1,1.312437050E0
1.088412348E1,-1.178099990E0,2.294999957E-1,-4.102999866E-1,1.268438376E0
1.089412348E1,-1.277499914E0,1.959999949E-1,-3.780999780E-1,1.346618588E0
1.090412348E1,-1.317999959E0,2.626999915E-1,-2.960999906E-1,1.376157833E0
1.091412348E1,-1.240399957E0,4.018999934E-1,-1.454000026E-1,1.311966775E0
1.092412348E1,-1.113299966E0,5.439000130E-1,-7.349999994E-2,1.241235791E0
1.093412348E1,-9.470999837E-1,6.086999774E-1,-1.480000019E-1,1.135525448E0
1.094412348E1,-6.534999609E-1,5.766000152E-1,-2.410999984E-1,9.042449810E-1
1.095412348E1,-3.012999892E-1,5.857999921E-1,-3.130999804E-1,7.293661028E-1
1.096412348E1,2.954999804E-1,5.289999843E-1,-4.016000032E-1,7.269413899E-1
1.097412348E1,9.204999804E-1,4.253000021E-1,-3.572999835E-1,1.075110964E0
1.098412348E1,1.573300004E0,2.939999998E-1,-1.200999990E-1,1.605033617E0
1.099412348E1,2.077399969E0,2.424999923E-1,1.525000036E-1,2.097058208E0
1.100412348E1,2.473299980E0,3.206000030E-1,4.280999899E-1,2.530467695E0
1.101412348E1,2.840800047E0,5.580999851E-1,6.428999901E-1,2.965626561E0
1.102412348E1,2.915799856E0,8.537999988E-1,8.712999821E-1,3.160700381E0
1.103412348E1,2.581199884E0,9.569999576E-1,9.222999811E-1,2.903287622E0
1.104412348E1,2.062599897E0,6.696000099E-1,8.526999950E-1,2.330188789E0
1.105412348E1,1.820799947E0,1.420999914E-1,8.608999848E-1,2.019072470E0
1.106412348E1,2.042399883E0,-4.727999866E-1,1.125999928E0,2.379666562E0
1.107412348E1,2.237599850E0,-1.004299998E0,1.578799963E0,2.916861481E0
1.108412348E1,2.299000025E0,-1.087599993E0,2.013299942E0,3.243709530E0
1.109412348E1,2.020400047E0,-8.217999935E-1,2.322499990E0,3.186122689E0
1.110412348E1,1.508599997E0,-5.142999887E-1,2.342299938E0,2.833151501E0
1.111412348E1,9.677000046E-1,-2.964999974E-1,2.233999968E0,2.452572405E0
1.112412348E1,5.332999825E-1,-1.796000004E-1,2.110199928E0,2.183943399E0
1.113412348E1,3.616999984E-1,-1.636999995E-1,1.756799936E0,1.801102605E0
1.114412348E1,3.635999858E-1,-1.902999878E-1,1.412099957E0,1.470525527E0
1.115412348E1,2.630999982E-1,-2.016000003E-1,1.000699997E0,1.054165382E0
1.116412348E1,9.919999540E-2,-1.986999959E-1,4.932999909E-1,5.409872535E-1
1.117412348E1,6.759999692E-2,-4.267999828E-1,-3.049999848E-2,4.331953772E-1
1.118412348E1,2.277999967E-1,-7.651999593E-1,-1.988999993E-1,8.227909977E-1
1.119412348E1,3.759999871E-1,-9.839999676E-1,-1.042999998E-1,1.058541646E0
1.120412348E1,5.543000102E-1,-9.829999804E-1,-2.919999883E-2,1.128888880E0
1.121412348E1,7.340999842E-1,-9.386999607E-1,1.359999925E-2,1.191740476E0
1.122412348E1,1.003600001E0,-8.913999796E-1,1.027999967E-1,1.346244675E0
1.123412348E1,1.048300028E0,-8.432999849E-1,2.588000000E-1,1.370060310E0
1.124412348E1,9.953999519E-1,-7.274999619E-1,5.503999591E-1,1.350191606E0
1.125412348E1,8.039999604E-1,-5.512999892E-1,9.053999782E-1,1.330449824E0
1.126412348E1,2.834999859E-1,-3.738999963E-1,1.016099930E0,1.119210667E0
1.127412348E1,-5.112000108E-1,-2.796999812E-1,7.802000046E-1,9.737913419E-1
1.128412348E1,-1.235999942E0,-2.102999985E-1,4.391999841E-1,1.328464742E0
1.129412348E1,-1.704899907E0,-1.537999958E-1,2.406999916E-1,1.728662667E0
1.130413286E1,-2.124099970E0,-9.989999980E-2,8.779999614E-2,2.128259742E0
1.131412348E1,-2.523099899E0,-1.665999889E-1,-2.349999994E-1,2.539490826E0
1.132412348E1,-2.813799858E0,-2.647999823E-1,-5.600999594E-1,2.881197778E0
1.133412348E1,-3.114399910E0,-3.734999895E-1,-7.963999510E-1,3.236238854E0
1.134412348E1,-3.307899952E0,-4.906999767E-1,-1.059000015E0,3.507772739E0
1.135412348E1,-3.316299915E0,-5.652999878E-1,-1.178699970E0,3.564651852E0
1.136412348E1,-3.159499884E0,-5.467999578E-1,-1.153800011E0,3.407738865E0
1.137412348E1,-2.936100006E0,-4.641999900E-1,-1.022199988E0,3.143414973E0
1.138412348E1,-2.665299892E0,-3.473999798E-1,-8.046000004E-1,2.805689117E0
1.139412348E1,-2.258299828E0,-1.772999913E-1,-4.341999888E-1,2.306487162E0
1.140412348E1,-2.008800030E0,-2.439999953E-2,-1.885000020E-1,2.017772329E0
1.141412348E1,-1.915799975E0,7.050000131E-2,-1.099999994E-1,1.920249931E0
1.142412348E1,-1.753299952E0,1.766999960E-1,-1.118999943E-1,1.765730788E0
1.143412348E1,-1.482499957E0,3.337000012E-1,2.290000021E-2,1.519765187E0
1.144412348E1,-1.162699938E0,4.817999899E-1,1.679999977E-1,1.269734766E0
1.145412348E1,-7.742999792E-1,6.198999882E-1,2.549000084E-1,1.024104715E0
1.146412348E1,-5.530999899E-1,8.147999644E-1,2.836000025E-1,1.024815858E0
1.147412348E1,-4.891999960E-1,9.274999499E-1,2.140000015E-1,1.070219040E0
1.148412348E1,-5.034999847E-1,9.771999717E-1,9.229999781E-2,1.103155161E0
1.149412348E1,-5.171999931E-1,8.861999512E-1,9.449999779E-2,1.030425367E0
1.150412348E1,-5.597999692E-1,6.359999776E-1,1.915999949E-1,8.686671025E-1
1.151412348E1,-4.343999922E-1,2.481999993E-1,2.255999893E-1,5.488186842E-1
1.152412348E1,-1.705999970E-1,-6.809999794E-2,2.079999894E-1,2.774994852E-1
1.153412348E1,2.407999933E-1,-2.324999869E-1,2.008999884E-1,3.903865853E-1
1.154412348E1,7.601999640E-1,-2.644000053E-1,2.254000008E-1,8.358328233E-1
1.155412348E1,1.151399970E0,-2.721999884E-1,3.233000040E-1,1.226514418E0
1.156412348E1,1.433099985E0,-3.656999767E-1,3.893999755E-1,1.529426161E0
1.157412348E1,1.653999925E0,-4.869000018E-1,5.024999976E-1,1.795910246E0
1.158412348E1,1.775799990E0,-5.457000136E-1,7.491999865E-1,2.003136223E0
1.159412348E1,1.975999951E0,-4.041000009E-1,1.175499916E0,2.334453399E0
1.160412348E1,2.059499979E0,-1.414999962E-1,1.581599951E0,2.600580861E0
1.161412348E1,1.958099961E0,3.209999949E-2,1.629099965E0,2.547381511E0
1.162412348E1,1.907299995E0,-3.280000016E-2,1.444299936E0,2.392670353E0
1.163412348E1,2.170699835E0,-4.536999762E-1,1.099099994E0,2.475035805E0
1.164412348E1,2.590699911E0,-9.445999861E-1,7.253999710E-1,2.851350606E0
1.165412348E1,2.803599834E0,-1.149899960E0,7.592999935E-1,3.123936368E0
1.166412348E1,2.623299837E0,-8.621999621E-1,1.122699976E0,2.980863306E0
1.167412348E1,2.227699995E0,-3.475999832E-1,1.132799983E0,2.523233802E0
1.168412348E1,1.773999929E0,-8.089999855E-2,5.993999839E-1,1.874273433E0
1.169412348E1,1.094200015E0,-6.639999896E-2,2.595999837E-1,1.126532194E0
1.170412348E1,4.238999784E-1,-4.769999906E-2,4.366999865E-1,6.104697861E-1
1.171412348E1,-7.789999992E-2,-2.277999967E-1,6.642999649E-1,7.065802798E-1
1.172412348E1,-2.039999962E-1,-5.152999759E-1,8.205999732E-1,9.902193593E-1
1.173412348E1,-3.269999847E-2,-7.508999705E-1,9.854999781E-1,1.239407222E0
1.174412348E1,2.583999932E-1,-8.650999665E-1,1.252099991E0,1.543671887E0
1.175412348E1,6.807000041E-1,-8.624999523E-1,1.471899986E0,1.836776588E0
1.176412348E1,1.115999937E0,-7.839999795E-1,1.552599907E0,2.066561951E0
1.177412348E1,1.433300018E0,-4.957999885E-1,1.381999969E0,2.051850503E0
1.178412348E1,1.561399937E0,-3.210999966E-1,8.754999638E-1,1.818674011E0
1.179412348E1,1.373399973E0,-1.539999992E-1,2.842999995E-1,1.410946482E0
1.180412348E1,9.873999953E-1,9.279999882E-2,-2.958000004E-1,1.034924263E0
1.181412348E1,4.729999900E-1,2.145999968E-1,-8.583999872E-1,1.003310863E0
1.182412348E1,-1.579999924E-1,2.818000019E-1,-1.379999995E0,1.417312677E0
1.183412348E1,-7.962999940E-1,3.646000028E-1,-1.777300000E0,1.981368752E0
1.184412348E1,-1.539299965E0,4.260999858E-1,-2.060899973E0,2.607357720E0
1.185412348E1,-2.092799902E0,4.587999880E-1,-2.080899954E0,2.986712821E0
1.186412348E1,-2.438699961E0,4.236999750E-1,-1.889999986E0,3.114302348E0
1.187412348E1,-2.803599834E0,2.119999975E-1,-1.906199932E0,3.396868295E0
1.188412348E1,-3.139199972E0,-9.399999864E-3,-1.940499902E0,3.690556150E0
1.189412348E1,-3.368000031E0,-1.992999911E-1,-1.890299916E0,3.867347730E0
1.190412348E1,-3.421899796E0,-2.272000015E-1,-1.605099916E0,3.786471153E0
1.191412348E1,-3.359999895E0,-2.391999960E-1,-1.269799948E0,3.599889976E0
1.192412348E1,-3.143399954E0,-2.161999941E-1,-9.334999919E-1,3.286202663E0
1.193412348E1,-2.869400024E0,-1.878999919E-1,-5.985999703E-1,2.937189955E0
1.194412348E1,-2.635099888E0,-8.569999784E-2,-2.491999865E-1,2.648244049E0
1.195412348E1,-2.360999823E0,8.020000160E-2,2.249999903E-2,2.362468720E0
1.196412348E1,-2.105399847E0,1.815000027E-1,2.239999920E-1,2.125047473E0
1.197412348E1,-1.828599930E0,2.269999981E-1,2.942000031E-1,1.865974369E0
1.198412348E1,-1.609099984E0,2.450999916E-1,3.407999873E-1,1.662955621E0
1.199412348E1,-1.584499955E0,2.151999921E-1,1.973000020E-1,1.611173000E0
1.200412348E1,-1.646999955E0,1.762999892E-1,1.139999926E-2,1.656448158E0
1.201412348E1,-1.679700017E0,1.987999976E-1,-1.719999872E-2,1.691510989E0
1.202412348E1,-1.546000004E0,2.339999974E-1,1.040999964E-1,1.567070139E0
1.203412348E1,-1.392799973E0,2.719999850E-1,1.791999936E-1,1.430380507E0
1.204412348E1,-1.239399910E0,3.614999950E-1,2.355999947E-1,1.312364942E0
1.205412348E1,-1.016099930E0,5.710999966E-1,1.525999904E-1,1.175542866E0
1.206412348E1,-7.620999813E-1,8.018999696E-1,-1.099999994E-1,1.111728358E0
1.207412348E1,-3.994999826E-1,1.042500019E0,-4.921000004E-1,1.220069234E0
1.208412348E1,1.189999953E-1,1.193599939E0,-8.129999638E-1,1.449072377E0
1.209412348E1,6.757999659E-1,1.156799912E0,-1.150499940E0,1.765939337E0
1.210412348E1,1.192399979E0,1.010200024E0,-1.455999970E0,2.135944220E0
1.211412348E1,1.707799911E0,8.331999779E-1,-1.561900020E0,2.459742753E0
1.212412348E1,2.241299868E0,6.955999732E-1,-1.387199998E0,2.726097624E0
1.213412348E1,2.772899866E0,5.590999722E-1,-1.008800030E0,3.003205612E0
1.214412348E1,3.273299932E0,5.309999585E-1,-5.351999998E-1,3.359001703E0
1.215412348E1,3.605999947E0,6.196999550E-1,-1.169999987E-1,3.660731163E0
1.216412348E1,3.712899923E0,8.233000040E-1,2.610000074E-1,3.812029609E0
1.217412348E1,3.466799974E0,1.050300002E0,5.069000125E-1,3.657701434E0
1.218412348E1,2.907599926E0,1.181200027E0,5.677999854E-1,3.189320877E0
1.219412348E1,2.262199879E0,1.177799940E0,3.998999894E-1,2.581604345E0
1.220412348E1,1.776699901E0,1.022699952E0,1.586000025E-1,2.056144861E0
1.221412348E1,1.725299954E0,6.488999724E-1,1.409000009E-1,1.848670852E0
1.222412348E1,1.988299966E0,2.809999883E-2,4.241999984E-1,2.033241747E0
1.223412348E1,2.231199980E0,-4.843999743E-1,1.013399959E0,2.497974412E0
1.224412348E1,1.984699965E0,-5.834999681E-1,1.503499985E0,2.557345961E0
1.225412348E1,1.384199977E0,-3.967999816E-1,1.709899902E0,2.235445700E0
1.226412348E1,8.009999990E-1,-4.855999947E-1,1.505999923E0,1.773539997E0
1.227412348E1,3.923999965E-1,-8.816999793E-1,1.215199947E0,1.551800091E0
1.228412348E1,3.052999973E-1,-1.307500005E0,1.274799943E0,1.851453279E0
1.229412348E1,4.211999774E-1,-1.563899994E0,1.581599951E0,2.263769206E0
1.230413286E1,6.416999698E-1,-1.592399955E0,1.861299992E0,2.532183668E0
1.231412348E1,9.957999587E-1,-1.552500010E0,1.976099968E0,2.703117630E0
1.232412348E1,1.306999922E0,-1.565199971E0,1.668499947E0,2.634765989E0
1.233412348E1,1.261299968E0,-1.623799920E0,1.103500009E0,2.333520100E0
1.234412348E1,1.045799971E0,-1.688099980E0,4.263999760E-1,2.031057868E0
1.235412348E1,9.663999677E-1,-1.743299961E0,7.799999788E-3,1.993259765E0
1.236412348E1,1.064599991E0,-1.735700011E0,-1.462000012E-1,2.041421590E0
1.237412348E1,1.234099984E0,-1.614300013E0,5.849999934E-2,2.032827969E0
1.238412348E1,1.162099957E0,-1.418599963E0,3.341999948E-1,1.864025698E0
1.239412348E1,8.387999535E-1,-1.003399968E0,4.825999737E-1,1.394022809E0
1.240412348E1,3.028999865E-1,-5.868999958E-1,4.158999920E-1,7.804952340E-1
1.241412348E1,-4.562999904E-1,-2.500999868E-1,1.058999971E-1,5.310127061E-1
1.242412348E1,-1.155300021E0,1.241999939E-1,-1.706999987E-1,1.174428485E0
1.243412348E1,-1.784799933E0,4.584999979E-1,-4.016000032E-1,1.886005200E0
1.244412348E1,-2.443300009E0,6.335999966E-1,-6.843999624E-1,2.615256622E0
1.245412348E1,-2.983999968E0,7.276999950E-1,-1.017799973E0,3.235694651E0
1.246412348E1,-3.388199806E0,7.515999675E-1,-1.320199966E0,3.713183054E0
1.247412348E1,-3.578199863E0,7.846999764E-1,-1.569299936E0,3.985219016E0
1.248412348E1,-3.632999897E0,7.295999527E-1,-1.772099972E0,4.107473999E0
1.249412348E1,-3.454799891E0,6.466000080E-1,-1.917599916E0,4.003863546E0
1.250412348E1,-3.083199978E0,5.457000136E-1,-1.857399940E0,3.640583078E0
1.251412348E1,-2.626600027E0,3.973999918E-1,-1.491999984E0,3.046804622E0
1.252412348E1,-2.201499939E0,2.313999981E-1,-1.177799940E0,2.507460995E0
1.253412348E1,-1.894299984E0,1.257999986E-1,-9.496999979E-1,2.122764272E0
1.254412348E1,-1.763000011E0,9.019999951E-2,-8.007999659E-1,1.938449294E0
1.255412348E1,-1.679199934E0,8.639999479E-2,-6.550999880E-1,1.804531344E0
1.256412348E1,-1.593500018E0,3.619999811E-2,-6.112999916E-1,1.707114650E0
1.257412348E1,-1.476400018E0,4.769999906E-2,-4.834999740E-1,1.554285858E0
1.258412348E1,-1.377499938E0,1.110999957E-1,-2.894999981E-1,1.411970091E0
1.259412348E1,-1.335999966E0,1.870999932E-1,-1.939999871E-2,1.349177036E0
1.260412348E1,-1.341599941E0,3.242000043E-1,2.265999913E-1,1.398693534E0
1.261412348E1,-1.168399930E0,5.124999881E-1,2.513000071E-1,1.300371611E0
1.262412348E1,-1.071699977E0,7.310999632E-1,1.533000022E-1,1.306349451E0
1.263412348E1,-9.941999912E-1,7.518000007E-1,-1.579999924E-2,1.246549840E0
1.264412348E1,-1.016700029E0,6.607999802E-1,-5.429999903E-2,1.213789131E0
1.265412348E1,-9.932999611E-1,4.396999776E-1,7.209999859E-2,1.088659402E0
1.266412348E1,-7.957999706E-1,2.188999951E-1,2.163999975E-1,8.532548037E-1
1.267412348E1,-2.863000035E-1,1.187999994E-1,4.569999874E-1,5.522047811E-1
1.268412348E1,3.980999887E-1,1.108999997E-1,8.236999512E-1,9.215552184E-1
1.269412348E1,1.139799953E0,1.659999974E-2,1.069899917E0,1.563363465E0
1.270412348E1,1.881099939E0,-1.259000003E-1,1.122599959E0,2.194223886E0
1.271412348E1,2.622999907E0,-1.400000006E-1,1.145099998E0,2.865481201E0
1.272412348E1,3.120899916E0,5.189999938E-2,9.684999585E-1,3.268134340E0
1.273412348E1,3.197899818E0,2.710999846E-1,5.525000095E-1,3.256580217E0
1.274412348E1,2.853600025E0,3.779000044E-1,2.395000011E-1,2.888460103E0
1.275412348E1,2.332999945E0,3.590999842E-1,-3.799999831E-3,2.360477914E0
1.276412348E1,2.098000050E0,9.219999611E-2,-8.609999716E-2,2.101789299E0
1.277412348E1,2.413100004E0,-3.443999887E-1,2.267999947E-1,2.448081130E0
1.278412348E1,3.335500002E0,-7.881000042E-1,5.839999914E-1,3.476739546E0
1.279412348E1,4.127799988E0,-8.578999639E-1,9.519000053E-1,4.322133583E0
1.280412348E1,4.406699657E0,-7.137999535E-1,1.360000014E0,4.666702506E0
1.281412348E1,4.155399799E0,-4.174000025E-1,9.036999941E-1,4.272966643E0
1.282412348E1,3.130199909E0,-1.198999956E-1,2.105000019E-1,3.139560117E0
1.283412348E1,1.850299954E0,1.182999983E-1,-1.996999979E-1,1.864801571E0
1.284412348E1,7.578999996E-1,1.146999970E-1,-3.066999912E-1,8.256109152E-1
1.285412348E1,2.149999887E-2,3.949999809E-2,-2.217999995E-1,2.263133659E-1
1.286412348E1,-4.273999929E-1,-9.559999406E-2,1.158000007E-1,4.530118685E-1
1.287412348E1,-3.939999938E-1,-2.983999848E-1,7.526999712E-1,9.004642096E-1
1.288412348E1,-2.689999901E-2,-3.228999972E-1,1.360899925E0,1.398941251E0
1.289412348E1,6.230999827E-1,-2.699999809E-1,1.826599956E0,1.948748567E0
1.290412348E1,1.406399965E0,-3.396999836E-1,2.145200014E0,2.587516192E0
1.291412348E1,1.663800001E0,-5.374000072E-1,2.015300035E0,2.668044873E0
1.292412348E1,1.601300001E0,-7.671999931E-1,1.581699967E0,2.377926052E0
1.293412348E1,1.446699977E0,-1.025599957E0,1.184499979E0,2.132565660E0
1.294412348E1,1.241599917E0,-1.218699932E0,8.982999921E-1,1.957994575E0
1.295412348E1,9.107999802E-1,-1.205199957E0,6.960999966E-1,1.663315588E0
1.296412348E1,4.183999896E-1,-9.722999930E-1,4.702999890E-1,1.158277992E0
1.297412348E1,-6.740000099E-2,-5.780999660E-1,2.259999961E-1,6.243543298E-1
1.298412348E1,-4.883999825E-1,-2.784999907E-1,-1.735999882E-1,5.884163013E-1
1.299412348E1,-1.238099933E0,-1.458999962E-1,-7.645999789E-1,1.462460728E0
1.300412348E1,-2.161900043E0,-1.469999924E-2,-1.432099938E0,2.593248565E0
1.301412348E1,-2.859299898E0,8.879999816E-2,-1.912599921E0,3.441150942E0
1.302412348E1,-3.194999933E0,1.371999979E-1,-2.041899920E0,3.794232952E0
1.303412348E1,-3.445199966E0,1.017000005E-1,-2.001399994E0,3.985642688E0
1.304412348E1,-3.493000031E0,3.119999915E-2,-1.828299999E0,3.942677205E0
1.305412348E1,-3.329099894E0,-6.399999559E-2,-1.453400016E0,3.633094233E0
1.306412348E1,-3.001199961E0,-1.533000022E-1,-1.056100011E0,3.185286381E0
1.307412348E1,-2.654099941E0,-1.881999969E-1,-9.186999798E-1,2.814902377E0
1.308412348E1,-2.462999821E0,-3.229999915E-2,-1.036800027E0,2.672520477E0
1.309412348E1,-2.192100048E0,1.577999890E-1,-1.195400000E0,2.501836249E0
1.310412348E1,-1.959599972E0,3.619000018E-1,-1.285300016E0,2.371286527E0
1.311412348E1,-1.815099955E0,5.392000079E-1,-1.198199987E0,2.240760519E0
1.312412348E1,-1.738999963E0,6.399999857E-1,-1.022199988E0,2.116273533E0
1.313412348E1,-1.613699913E0,7.322999835E-1,-7.379999757E-1,1.919618358E0
1.314412348E1,-1.459100008E0,8.746999502E-1,-4.724999964E-1,1.765595957E0
1.315412348E1,-1.245599985E0,9.193999767E-1,-2.560999990E-1,1.569204528E0
1.316412348E1,-1.051299930E0,1.012499928E0,-8.049999923E-2,1.461802961E0
1.317412348E1,-8.758999705E-1,1.133999944E0,-1.625999957E-1,1.442080230E0
1.318412348E1,-7.882999778E-1,1.224599957E0,-4.239999950E-1,1.516851313E0
1.319412348E1,-7.689999938E-1,1.273999929E0,-7.854999900E-1,1.682690419E0
1.320412348E1,-6.814000010E-1,1.243199944E0,-9.899999499E-1,1.729147757E0
1.321412348E1,-4.179999828E-1,1.094300032E0,-1.094399929E0,1.603099420E0
1.322412348E1,-1.162999943E-1,8.966999650E-1,-1.048699975E0,1.384690635E0
1.323412504E1,3.805999756E-1,6.908000112E-1,-8.226000071E-1,1.139619133E0
1.324412348E1,8.668999672E-1,4.482999742E-1,-4.640999734E-1,1.080683675E0
1.325412504E1,1.428900003E0,2.115999907E-1,-1.026999950E-1,1.448128815E0
1.326412348E1,2.014199972E0,1.483999938E-1,2.834999859E-1,2.039459813E0
1.327412348E1,2.431299925E0,2.866999805E-1,7.573999763E-1,2.562629690E0
1.328412348E1,2.594300032E0,5.018000007E-1,1.001699924E0,2.825880152E0
1.329412348E1,2.445199966E0,7.220000029E-1,8.349999785E-1,2.682817892E0
1.330413286E1,1.973899961E0,8.860999942E-1,3.642999828E-1,2.194121403E0
1.331412348E1,1.601799965E0,7.202000022E-1,-1.338000000E-1,1.761349940E0
1.332412348E1,1.631999969E0,1.009999961E-2,-2.630999982E-1,1.653102392E0
1.333412348E1,1.778800011E0,-9.664999843E-1,4.341000021E-1,2.070433411E0
1.334412348E1,1.827499986E0,-1.488999963E0,1.319700003E0,2.701570873E0
1.335412348E1,1.859699965E0,-1.552299976E0,1.984099984E0,3.131257243E0
1.336412348E1,1.896699905E0,-1.214699984E0,2.157099962E0,3.118661063E0
1.337412348E1,1.908299923E0,-8.926999569E-1,1.731299996E0,2.726888609E0
1.338412348E1,1.753999949E0,-8.175999522E-1,1.164799929E0,2.258704136E0
1.339412348E1,1.578799963E0,-7.454999685E-1,6.994999647E-1,1.880872066E0
1.340412348E1,1.381799936E0,-6.464999914E-1,4.653999805E-1,1.594970359E0
1.341412348E1,1.201200008E0,-6.486999989E-1,3.182999790E-1,1.401787439E0
1.342412348E1,1.114400029E0,-7.430999875E-1,2.216999978E-1,1.357658243E0
1.343412348E1,1.032599926E0,-9.595999718E-1,3.046000004E-1,1.442177476E0
1.344412348E1,9.947999716E-1,-1.239399910E0,4.987999797E-1,1.665695212E0
1.345412348E1,9.830999970E-1,-1.481899977E0,7.224000096E-1,1.919472563E0
1.346412348E1,1.058899999E0,-1.517899990E0,7.040999532E-1,1.980163208E0
1.347412348E1,1.293200016E0,-1.414299965E0,5.256000161E-1,1.987175395E0
1.348412348E1,1.451599956E0,-1.239599943E0,2.617000043E-1,1.926716726E0
1.349412348E1,1.318599939E0,-1.015699983E0,-9.910000116E-2,1.667385098E0
1.350412348E1,8.147000074E-1,-8.039999604E-1,-2.710999846E-1,1.176285357E0
1.351412348E1,1.350999922E-1,-6.631999612E-1,-1.727999896E-1,6.985313399E-1
1.352412348E1,-5.534999967E-1,-5.837000012E-1,-1.909999922E-2,8.046320574E-1
1.353412348E1,-1.329399943E0,-4.769999981E-1,1.105000004E-1,1.416701612E0
1.354412348E1,-2.094500065E0,-4.114999771E-1,8.839999884E-2,2.136370125E0
1.355412348E1,-2.750000000E0,-3.666999936E-1,-6.669999659E-2,2.775142839E0
1.356412348E1,-3.208199978E0,-3.709999919E-1,-2.060000002E-1,3.236143398E0
1.357412348E1,-3.499499798E0,-4.037999809E-1,-2.472999990E-1,3.531389323E0
1.358412348E1,-3.496899843E0,-4.440999925E-1,-3.152999878E-1,3.539060242E0
1.359412348E1,-3.309099913E0,-4.715999961E-1,-3.384999931E-1,3.359632574E0
1.360412348E1,-3.113199949E0,-5.263000131E-1,-3.060999811E-1,3.172176355E0
1.361413598E1,-2.977599859E0,-6.080999970E-1,-3.267999887E-1,3.056580567E0
1.362412348E1,-2.794199944E0,-6.970999837E-1,-3.127999902E-1,2.896781929E0
1.363412348E1,-2.504099846E0,-8.016999960E-1,-2.819999866E-2,2.629455107E0
1.364412348E1,-2.273599863E0,-9.210000038E-1,3.789999783E-1,2.482164041E0
1.365412348E1,-2.121399879E0,-9.172999859E-1,6.904000044E-1,2.412141969E0
1.366412348E1,-1.860899925E0,-6.916999817E-1,1.003199935E0,2.224366765E0
1.367412348E1,-1.589999914E0,-3.139999807E-1,1.228600025E0,2.033753608E0
1.368412348E1,-1.337899923E0,5.579999834E-2,1.227100015E0,1.816277592E0
1.369412348E1,-1.055500031E0,3.563999832E-1,1.124400020E0,1.582838168E0
1.370412348E1,-7.919999957E-1,6.153999567E-1,9.104999900E-1,1.354618519E0
1.371412348E1,-6.947999597E-1,7.816999555E-1,6.046000123E-1,1.208032690E0
1.372412348E1,-9.014999866E-1,7.651999593E-1,1.480000019E-1,1.191695097E0
1.373412348E1,-1.216400027E0,6.940999627E-1,-1.732999980E-1,1.411182722E0
1.374412348E1,-1.404199958E0,6.696999669E-1,-1.608999968E-1,1.564021859E0
1.375412348E1,-1.435699940E0,6.046999693E-1,-2.009999938E-2,1.557979583E0
1.376412348E1,-1.407499909E0,5.022999644E-1,2.089999989E-2,1.494589596E0
1.377412348E1,-1.252399921E0,2.806999981E-1,6.309999526E-2,1.285021269E0
1.378412348E1,-9.016000032E-1,2.049999870E-2,1.561999917E-1,9.152602107E-1
1.379412348E1,-4.239999950E-1,-1.297999918E-1,2.920999825E-1,5.309862836E-1
1.380412348E1,1.894000024E-1,-2.488999963E-1,3.845999837E-1,4.957224188E-1
1.381412348E1,7.129999995E-1,-3.969999850E-1,2.964999974E-1,8.682685275E-1
1.382412348E1,1.009799957E0,-6.042000055E-1,1.543999910E-1,1.186841589E0
1.383412348E1,1.178200006E0,-7.813000083E-1,9.439999610E-2,1.416861432E0
1.384412348E1,1.297399998E0,-8.963999748E-1,2.330999970E-1,1.594087600E0
1.385412348E1,1.544699907E0,-8.883000016E-1,5.593999624E-1,1.867646384E0
1.386412348E1,1.812799931E0,-7.663999796E-1,1.071499944E0,2.240920491E0
1.387412348E1,1.994300008E0,-5.717999935E-1,1.442899942E0,2.527082903E0
1.388412348E1,2.070400000E0,-3.757999837E-1,1.424299955E0,2.540947097E0
1.389412348E1,1.990999937E0,-2.996999919E-1,1.095000029E0,2.291926242E0
1.390412348E1,1.970199943E0,-5.218999982E-1,6.365999579E-1,2.135258047E0
1.391412348E1,2.192699909E0,-9.914000034E-1,5.080999732E-1,2.459465885E0
1.392412348E1,2.412600040E0,-1.273599982E0,8.611999750E-1,2.860832268E0
1.393412348E1,2.327199936E0,-1.130699992E0,1.398199916E0,2.940970081E0
1.394412348E1,1.918999910E0,-8.089999557E-1,1.630299926E0,2.644791000E0
1.395412348E1,1.296800017E0,-6.153999567E-1,1.473299980E0,2.056944390E0
1.396412348E1,7.152000070E-1,-3.841999769E-1,1.437699914E0,1.651091068E0
1.397412348E1,2.043999881E-1,-1.235999987E-1,1.520599961E0,1.539246750E0
1.398412348E1,-2.930999994E-1,1.557999998E-1,1.520699978E0,1.556505597E0
1.399412348E1,-6.991999745E-1,2.074999958E-1,1.348999977E0,1.533537672E0
1.400412348E1,-8.090999722E-1,-1.158000007E-1,1.040400028E0,1.323058814E0
1.401412348E1,-5.852999687E-1,-6.067000031E-1,8.967999816E-1,1.230817271E0
1.402412348E1,-9.300000034E-3,-1.006500006E0,9.650999904E-1,1.394470058E0
1.403412348E1,9.079999924E-1,-1.165699959E0,1.260399938E0,1.942145304E0
1.404412348E1,1.891199946E0,-1.124099970E0,1.403499961E0,2.609607273E0
1.405412348E1,2.665699959E0,-9.153999686E-1,1.411199927E0,3.152046733E0
1.406412348E1,3.134199858E0,-5.830999613E-1,1.071200013E0,3.363136004E0
1.407412348E1,2.954399824E0,-3.379999995E-1,3.366000056E-1,2.992661338E0
1.408412348E1,2.245399952E0,-2.513000071E-1,-5.153999925E-1,2.317457613E0
1.409412348E1,1.371799946E0,-1.331000030E-1,-1.068499923E0,1.743915935E0
1.410412348E1,5.314999819E-1,2.159999870E-2,-1.364799976E0,1.464799565E0
1.411412348E1,-1.958999932E-1,1.662999988E-1,-1.454800010E0,1.477320400E0
1.412412348E1,-9.192000031E-1,3.499999940E-1,-1.393499970E0,1.705658468E0
1.413412348E1,-1.660099983E0,4.727999866E-1,-1.477699995E0,2.272238776E0
1.414412348E1,-2.332000017E0,4.745999873E-1,-1.788800001E0,2.977125236E0
1.415412348E1,-2.760200024E0,4.435999990E-1,-2.016399860E0,3.446933931E0
1.416412348E1,-2.985399961E0,4.005999863E-1,-2.174799919E0,3.715218428E0
1.417412348E1,-3.194700003E0,2.477999926E-1,-2.408699989E0,4.008659200E0
1.418412348E1,-3.162199974E0,6.589999795E-2,-2.591199875E0,4.088785673E0
1.419412348E1,-2.946099997E0,-7.400000095E-2,-2.615200043E0,3.940082798E0
1.420412348E1,-2.682600021E0,-1.898999959E-1,-2.385699987E0,3.594992255E0
1.421412348E1,-2.350600004E0,-2.020999938E-1,-2.034699917E0,3.115472442E0
1.422412348E1,-2.223599911E0,-2.380999923E-1,-1.693699956E0,2.805299932E0
1.423412348E1,-2.163699865E0,-1.708000004E-1,-1.413599968E0,2.590180422E0
1.424412348E1,-1.935699940E0,-1.919999905E-2,-1.017199993E0,2.186778160E0
1.425412348E1,-1.666499972E0,1.701999903E-1,-6.912999749E-1,1.812204693E0
1.426412348E1,-1.448799968E0,3.437999785E-1,-4.782999754E-1,1.563966316E0
1.427412348E1,-1.200999975E0,4.824999869E-1,-4.609999955E-1,1.373946205E0
1.428412348E1,-9.836999774E-1,6.003000140E-1,-5.976999998E-1,1.298179896E0
1.429412348E1,-8.853999972E-1,6.373999715E-1,-6.530999541E-1,1.271515406E0
1.430413286E1,-8.763999939E-1,5.738999844E-1,-5.396000147E-1,1.178391411E0
1.431412348E1,-9.460999966E-1,5.485999584E-1,-4.746999741E-1,1.192227824E0
1.432412348E1,-9.168999791E-1,5.735999942E-1,-4.411999881E-1,1.168066759E0
1.433412348E1,-9.649999738E-1,7.076999545E-1,-3.522000015E-1,1.247440987E0
1.434412348E1,-1.051399946E0,7.445999980E-1,-4.030999839E-1,1.349948370E0
1.435412348E1,-9.605999589E-1,8.320999742E-1,-4.749999940E-1,1.356748924E0
1.436412348E1,-6.936999559E-1,8.427000046E-1,-3.384000063E-1,1.142749969E0
1.437412348E1,-3.689999878E-1,8.244000077E-1,-2.470999956E-1,9.364052390E-1
1.438412348E1,-5.529999733E-2,7.277999520E-1,-1.026999950E-1,7.370876127E-1
1.439412348E1,4.047999978E-1,6.520999670E-1,1.031999961E-1,7.744337573E-1
1.440412348E1,7.178999782E-1,6.068999767E-1,2.613999844E-1,9.757243013E-1
1.441412348E1,1.040599942E0,5.131999850E-1,3.908999860E-1,1.224346872E0
1.442412348E1,1.323899984E0,3.315999806E-1,4.921000004E-1,1.450803959E0
1.443412348E1,1.597499967E0,2.489999980E-1,5.738999844E-1,1.715624765E0
1.444412348E1,1.851899981E0,3.441999853E-1,8.517000079E-1,2.067220374E0
1.445412348E1,2.018599987E0,4.985999763E-1,1.157199979E0,2.379592325E0
1.446412348E1,2.029599905E0,5.629000068E-1,1.202600002E0,2.425361614E0
1.447412348E1,1.816399932E0,5.845000148E-1,1.221400023E0,2.265561077E0
1.448412348E1,1.643899918E0,5.144999623E-1,1.213099957E0,2.106829052E0
1.449412348E1,1.424199939E0,3.849999979E-2,1.068300009E0,1.780756195E0
1.450412348E1,1.402499914E0,-6.358999610E-1,1.141399980E0,1.916812115E0
1.451412348E1,1.646699905E0,-1.209699988E0,1.781399965E0,2.710789641E0
1.452412348E1,1.804799914E0,-1.492900014E0,2.457999945E0,3.395263894E0
1.453412348E1,1.701499939E0,-1.357299924E0,2.912699938E0,3.636094891E0
1.454412348E1,1.592399955E0,-9.404999614E-1,2.819799900E0,3.372172782E0
1.455412348E1,1.494699955E0,-5.618999600E-1,2.331399918E0,2.825824675E0
1.456412348E1,1.423799992E0,-5.324000120E-1,1.701499939E0,2.281613077E0
1.457412348E1,1.397400022E0,-5.286999941E-1,1.209399939E0,1.922211933E0
1.458412348E1,1.298599958E0,-3.826999962E-1,6.676999927E-1,1.509517943E0
1.459412348E1,1.304600000E0,-2.316000015E-1,1.449999958E-2,1.325077346E0
1.460412348E1,1.200099945E0,-2.136999965E-1,-7.224999666E-1,1.417008740E0
1.461412348E1,1.073099971E0,-2.809999883E-1,-1.416000009E0,1.798766401E0
1.462412348E1,8.159999847E-1,-5.489999652E-1,-1.829800010E0,2.077360107E0
1.463412348E1,6.755999923E-1,-8.369999528E-1,-1.877599955E0,2.163882127E0
1.464412348E1,5.848999619E-1,-1.052500010E0,-1.543099999E0,1.957299631E0
1.465412348E1,6.525999904E-1,-1.164299965E0,-8.266999722E-1,1.570004458E0
1.466412348E1,7.901999950E-1,-1.231799960E0,-2.091999948E-1,1.478347663E0
1.467412348E1,8.800999522E-1,-1.266600013E0,2.398999929E-1,1.560898307E0
1.468412348E1,7.055000067E-1,-1.133899927E0,5.020999908E-1,1.426731827E0
1.469412348E1,5.016999841E-1,-9.223999977E-1,6.168000102E-1,1.217771277E0
1.470412348E1,2.584999800E-1,-6.032999754E-1,6.926000118E-1,9.541948838E-1
1.471412348E1,-1.223999932E-1,-3.260000050E-1,6.409999728E-1,7.294783936E-1
1.472412348E1,-7.487999797E-1,-1.709000021E-1,3.712999821E-1,8.530954794E-1
1.473412348E1,-1.295799971E0,-9.759999812E-2,-1.099999994E-3,1.299470867E0
1.474412348E1,-1.723799944E0,1.359999925E-2,-2.998999953E-1,1.749746043E0
1.475412348E1,-2.109400034E0,3.319999948E-2,-5.807999969E-1,2.188149762E0
1.476412348E1,-2.448999882E0,3.859999776E-2,-8.098999858E-1,2.579734166E0
1.477412348E1,-2.706899881E0,-1.659999974E-2,-1.049399972E0,2.903243501E0
1.478412348E1,-2.965099812E0,1.789999940E-2,-1.238199949E0,3.213296814E0
1.479412348E1,-3.175499916E0,-3.799999831E-3,-1.352699995E0,3.451609977E0
1.480412348E1,-3.113799810E0,6.899999920E-3,-1.360299945E0,3.397971867E0
1.481412348E1,-2.819999933E0,4.189999774E-2,-1.199199915E0,3.064675459E0
1.482412348E1,-2.401700020E0,-7.699999958E-3,-1.075899959E0,2.631688241E0
1.483412348E1,-1.995499969E0,2.400000021E-2,-8.265999556E-1,2.160061020E0
1.484412348E1,-1.531599998E0,1.480000019E-1,-5.223999619E-1,1.624993623E0
1.485412348E1,-1.195099950E0,2.849999964E-1,-2.058999985E-1,1.245746241E0
1.486412348E1,-8.870999813E-1,5.115000010E-1,9.919999540E-2,1.028795056E0
1.487412348E1,-7.841999531E-1,6.782000065E-1,3.328000009E-1,1.088889644E0
1.488412348E1,-9.251999855E-1,7.533999681E-1,3.547999859E-1,1.244784943E0
1.489412348E1,-1.045099974E0,7.767999768E-1,4.199000001E-1,1.368198878E0
1.490412348E1,-1.065699935E0,8.673999906E-1,5.881999731E-1,1.494683346E0
1.491412348E1,-1.095199943E0,9.763000011E-1,8.016999960E-1,1.671929272E0
1.492412348E1,-1.182999969E0,1.072499990E0,8.254999518E-1,1.797552593E0
1.493412348E1,-1.074800014E0,1.146099925E0,8.181999922E-1,1.771494097E0
1.494412348E1,-1.026600003E0,1.078400016E0,6.741999984E-1,1.634441739E0
1.495412348E1,-9.013999701E-1,8.686999679E-1,2.570999861E-1,1.277991370E0
1.496412348E1,-6.699000001E-1,6.566999555E-1,-7.840000093E-2,9.413646487E-1
1.497412348E1,-3.027999997E-1,5.430999994E-1,-6.509999931E-2,6.252067331E-1
1.498412348E1,1.900999993E-1,4.111999869E-1,7.199999690E-2,4.587019060E-1
1.499412348E1,6.425999999E-1,2.311999947E-1,2.333999872E-1,7.217089105E-1
1.500412348E1,1.104300022E0,4.250000045E-2,4.271999896E-1,1.184814171E0
1.501412348E1,1.722599983E0,-1.246999949E-1,7.807999849E-1,1.895402176E0
1.502412348E1,2.320799828E0,-2.504999936E-1,1.255499959E0,2.650498488E0
1.503412348E1,2.977999926E0,-3.161999881E-1,1.524899960E0,3.360622841E0
1.504412348E1,3.420099974E0,-3.242999911E-1,1.595799923E0,3.787985178E0
1.505412348E1,3.451299906E0,-3.060999811E-1,1.308200002E0,3.703586840E0
1.506412348E1,2.847499847E0,-1.539999992E-1,5.978999734E-1,2.913667064E0
1.507412348E1,2.128499985E0,-7.379999757E-2,-2.489999868E-2,2.129924561E0
1.508412348E1,1.695699930E0,-5.239999890E-1,-4.093999863E-1,1.821423232E0
1.509412348E1,1.577199936E0,-1.265799999E0,-4.113999903E-1,2.063748829E0
1.510412348E1,2.026599884E0,-1.469900012E0,4.098999798E-1,2.536874283E0
1.511412348E1,2.622099876E0,-1.053799987E0,1.626099944E0,3.260383904E0
1.512412348E1,2.757299900E0,-2.109999955E-1,2.128499985E0,3.489661290E0
1.513412348E1,2.068799973E0,2.324000001E-1,1.487900019E0,2.558864895E0
1.514412348E1,8.391999602E-1,4.178999960E-1,8.534999490E-1,1.267816683E0
1.515412348E1,-1.852999926E-1,4.867999852E-1,6.173999906E-1,8.077704260E-1
1.516412348E1,-8.255999684E-1,3.565999866E-1,7.062999606E-1,1.143520220E0
1.517412348E1,-1.158599973E0,7.979999483E-2,9.207999706E-1,1.482091266E0
1.518412504E1,-1.202999949E0,-3.111000061E-1,1.172599912E0,1.708503042E0
1.519412348E1,-9.795999527E-1,-5.597000122E-1,1.398299932E0,1.796697769E0
1.520412348E1,-4.809999764E-1,-7.246999741E-1,1.635499954E0,1.852406848E0
1.521412348E1,3.786999881E-1,-7.782999873E-1,1.881599903E0,2.071130789E0
1.522412348E1,1.293299913E0,-5.561999679E-1,2.014699936E0,2.457844361E0
1.523412348E1,1.938299894E0,-2.885999978E-1,1.749799967E0,2.627184113E0
1.524412348E1,2.117699862E0,-1.771999896E-1,1.170799971E0,2.426278037E0
1.525412348E1,1.975799918E0,-1.723999977E-1,6.043999791E-1,2.073356315E0
1.526412348E1,1.635699987E0,-2.465999871E-1,1.158000007E-1,1.658232687E0
1.527412348E1,1.067700028E0,-3.465999961E-1,-2.383999974E-1,1.147584187E0
1.528412348E1,4.060999751E-1,-3.902999759E-1,-4.824999869E-1,7.416586130E-1
1.529412348E1,-2.201999873E-1,-2.856999934E-1,-5.299000144E-1,6.410199263E-1
1.530413286E1,-6.650999784E-1,-1.396999955E-1,-5.819999576E-1,8.947614323E-1
1.531412348E1,-1.097499967E0,-3.399999812E-3,-7.700999975E-1,1.340735523E0
1.532412348E1,-1.607800007E0,6.239999831E-2,-9.691999555E-1,1.878367157E0
1.533412348E1,-2.070800066E0,1.063999981E-1,-1.172999978E0,2.382322988E0
1.534412348E1,-2.428699970E0,6.979999691E-2,-1.328599930E0,2.769229741E0
1.535412348E1,-2.760799885E0,3.170000017E-2,-1.403999925E0,3.097456486E0
1.536412348E1,-2.939499855E0,-1.589999907E-2,-1.320299983E0,3.222437626E0
1.537412348E1,-3.041899920E0,-7.140000165E-2,-1.228500009E0,3.281381622E0
1.538412348E1,-3.036399841E0,-1.327999979E-1,-1.094699979E0,3.230437723E0
1.539412348E1,-2.872400045E0,-1.097999960E-1,-9.037999511E-1,3.013236202E0
1.540412348E1,-2.725499868E0,-1.493999958E-1,-8.546999693E-1,2.860276548E0
1.541412348E1,-2.742599964E0,-1.944999993E-1,-9.784999490E-1,2.918415146E0
1.542412348E1,-2.855899811E0,-2.157999873E-1,-1.115499973E0,3.073609206E0
1.543412348E1,-2.889499903E0,-2.217999995E-1,-1.037599921E0,3.078151803E0
1.544412348E1,-2.785599947E0,-1.429999918E-1,-7.513999939E-1,2.888705249E0
1.545412348E1,-2.515899897E0,-1.869999990E-2,-3.120999932E-1,2.535253121E0
1.546412348E1,-2.110699892E0,1.198999956E-1,1.740000024E-2,2.114174260E0
1.547412348E1,-1.639199972E0,3.195999861E-1,2.080999911E-1,1.682981374E0
1.548412348E1,-1.346499920E0,4.700999856E-1,1.604999900E-1,1.435206005E0
1.549412348E1,-1.182999969E0,5.207999945E-1,-7.880000025E-2,1.294963706E0
1.550412348E1,-1.127900004E0,5.899999738E-1,-2.384999990E-1,1.295044647E0
1.551412348E1,-9.639999866E-1,7.384999990E-1,-2.827000022E-1,1.246834999E0
1.552412348E1,-7.590000033E-1,8.679999709E-1,-2.833999991E-1,1.187358629E0
1.553412348E1,-5.715000033E-1,8.890999556E-1,-3.201999962E-1,1.104372683E0
1.554412348E1,-3.624999821E-1,7.621999979E-1,-3.046999872E-1,8.973277863E-1
1.555412348E1,-8.339999616E-2,6.552999616E-1,-1.070000008E-1,6.691954865E-1
1.556412348E1,2.945999801E-1,6.079999804E-1,1.177999973E-1,6.858060687E-1
1.557412348E1,6.530999541E-1,5.212000012E-1,1.463000029E-1,8.482880892E-1
1.558412348E1,1.079200029E0,4.329999983E-1,1.186999977E-1,1.168867568E0
1.559412348E1,1.522799969E0,3.425999880E-1,9.619999677E-2,1.563825098E0
1.560412348E1,1.768199921E0,2.989999950E-1,1.279999912E-1,1.797864276E0
1.561412348E1,1.874499917E0,3.120999932E-1,2.816999853E-1,1.921070334E0
1.562412348E1,1.921299934E0,2.251999974E-1,4.752999842E-1,1.991988592E0
1.563412348E1,1.753600001E0,1.271999925E-1,6.258000135E-1,1.866257876E0
1.564412348E1,1.519799948E0,1.464999914E-1,7.677999735E-1,1.709026310E0
1.565412348E1,1.211300015E0,1.858000010E-1,8.398999572E-1,1.485665274E0
1.566412348E1,9.749999642E-1,6.719999760E-2,7.339000106E-1,1.222190654E0
1.567412348E1,8.585000038E-1,-3.062999845E-1,6.319999695E-1,1.109173520E0
1.568412348E1,1.066200018E0,-7.062999606E-1,8.242999911E-1,1.521549404E0
1.569412348E1,1.529099941E0,-9.733999968E-1,1.234899998E0,2.193315342E0
1.570412348E1,1.727199912E0,-1.000999928E0,1.648399949E0,2.588907643E0
1.571412348E1,1.542799950E0,-8.300999999E-1,1.847599983E0,2.546158556E0
1.572412348E1,1.240899920E0,-6.683999896E-1,1.644999981E0,2.166244699E0
1.573412348E1,1.134299994E0,-5.952999592E-1,1.385999918E0,1.887329937E0
1.574412348E1,1.153200030E0,-4.736999869E-1,1.181699991E0,1.717753433E0
1.575412348E1,1.380899906E0,-3.547999859E-1,7.967999578E-1,1.633296591E0
1.576412348E1,1.549899936E0,-2.816999853E-1,2.337999940E-1,1.592547371E0
1.577412348E1,1.602499962E0,-2.149000019E-1,-3.502999842E-1,1.654357343E0
1.578412348E1,1.671499968E0,-1.913999915E-1,-5.943999887E-1,1.784336696E0
1.579412348E1,1.638700008E0,-2.795999944E-1,-4.772000015E-1,1.729518348E0
1.580412348E1,1.672199965E0,-4.090999961E-1,8.299999870E-3,1.721535483E0
1.581412348E1,1.744499922E0,-5.199999809E-1,7.299000025E-1,1.961232768E0
1.582412348E1,1.798799992E0,-5.823999643E-1,1.358500004E0,2.328173831E0
1.583412348E1,1.708099961E0,-6.674000025E-1,1.714699984E0,2.510622288E0
1.584412348E1,1.501599908E0,-7.768999934E-1,1.847299933E0,2.504175099E0
1.585412348E1,1.139699936E0,-9.398999810E-1,1.669600010E0,2.229325483E0
1.586412348E1,7.109999657E-1,-9.880999923E-1,1.161599994E0,1.682610202E0
1.587412348E1,1.467999965E-1,-8.707000017E-1,7.071999907E-1,1.131282705E0
1.588412348E1,-3.770000041E-1,-6.259999871E-1,3.971000016E-1,8.316810676E-1
1.589412348E1,-9.298999906E-1,-4.513999820E-1,1.735999882E-1,1.048147362E0
1.590412348E1,-1.560899973E0,-3.969999850E-1,-1.199999973E-1,1.615059662E0
1.591412348E1,-2.142600060E0,-2.658999860E-1,-5.131999850E-1,2.219191754E0
1.592412348E1,-2.626199961E0,-2.621999979E-1,-9.156000018E-1,2.793563752E0
1.593412348E1,-2.825799942E0,-2.760999799E-1,-1.246799946E0,3.100949309E0
1.594412348E1,-2.821099997E0,-3.454999924E-1,-1.327000022E0,3.136702806E0
1.595412348E1,-2.652099848E0,-4.221999943E-1,-1.311299920E0,2.988543779E0
1.596412348E1,-2.465699911E0,-4.574999809E-1,-1.317999959E0,2.833038329E0
1.597412348E1,-2.389499903E0,-4.817999899E-1,-1.465499997E0,2.844210129E0
1.598412348E1,-2.295099974E0,-4.948000014E-1,-1.647899985E0,2.868429063E0
1.599412348E1,-2.299799919E0,-4.851000011E-1,-1.727999926E0,2.917256489E0
1.600412348E1,-2.363899946E0,-4.808999896E-1,-1.628600001E0,2.910605731E0
1.601412348E1,-2.211799860E0,-3.436999917E-1,-1.321999907E0,2.599590749E0
1.602412348E1,-2.009799957E0,-1.220999956E-1,-8.970999718E-1,2.204312282E0
1.603412348E1,-1.865599990E0,1.031999961E-1,-6.010999680E-1,1.962762016E0
1.604412348E1,-1.769699931E0,2.514999807E-1,-4.043999910E-1,1.832656389E0
1.605412348E1,-1.693300009E0,3.401999772E-1,-3.454999924E-1,1.761354930E0
1.606412348E1,-1.499699950E0,4.177999794E-1,-3.348999918E-1,1.592424180E0
1.607412348E1,-1.287400007E0,5.038999915E-1,-4.302999973E-1,1.447919911E0
1.608412348E1,-1.174000025E0,5.579999685E-1,-6.323999763E-1,1.445534418E0
1.609412348E1,-1.325899959E0,5.701999664E-1,-8.242999911E-1,1.662109857E0
1.610412348E1,-1.439199924E0,5.026999712E-1,-9.169999957E-1,1.779014524E0
1.611412348E1,-1.336699963E0,3.192999959E-1,-7.930999994E-1,1.586734662E0
1.612412348E1,-9.496999979E-1,1.596999913E-1,-5.205999613E-1,1.094741290E0
1.613412348E1,-4.838999808E-1,-5.359999835E-2,-3.070000000E-2,4.878264458E-1
1.614412348E1,1.876999885E-1,-1.840000004E-1,4.123999774E-1,4.890409259E-1
1.615412348E1,8.488999605E-1,-3.116999865E-1,7.414000034E-1,1.169385304E0
1.616412348E1,1.361400008E0,-4.475999773E-1,1.036800027E0,1.768815993E0
1.617412348E1,1.685799956E0,-5.149999857E-1,1.308099985E0,2.195056275E0
1.618412348E1,1.989299893E0,-5.920999646E-1,1.603500009E0,2.622805504E0
1.619412348E1,2.223799944E0,-6.390999556E-1,2.077499866E0,3.109620658E0
1.620412348E1,2.204900026E0,-6.369000077E-1,2.410500050E0,3.328323337E0
1.621412348E1,1.992699981E0,-5.375999808E-1,2.558399916E0,3.287138129E0
1.622412348E1,1.744699955E0,-3.508999944E-1,2.539099932E0,3.100667219E0
1.623412348E1,1.411799908E0,-1.063999981E-1,2.165899992E0,2.587590136E0
1.624412348E1,1.042299986E0,2.444999963E-1,1.627099991E0,1.947722744E0
1.625412192E1,8.809999824E-1,4.211999774E-1,1.033900023E0,1.422153173E0
1.626412348E1,1.029600024E0,1.715999991E-1,2.184999883E-1,1.066426282E0
1.627412348E1,1.567099929E0,-4.325999916E-1,-3.030999899E-1,1.653727470E0
1.628412348E1,2.166800022E0,-9.898999929E-1,-7.059999555E-2,2.383255901E0
1.629412348E1,2.369099855E0,-9.964999557E-1,8.158999681E-1,2.696542053E0
1.630413286E1,2.257099867E0,-6.585999727E-1,1.284399986E0,2.679167232E0
1.631412348E1,1.795099974E0,-2.827000022E-1,8.112999797E-1,1.990103229E0
1.632412348E1,1.170699954E0,-6.619999558E-2,-1.999999949E-4,1.172570195E0
