"Time (s)","Linear Acceleration x (m/s^2)","Linear Acceleration y (m/s^2)","Linear Acceleration z (m/s^2)","Absolute acceleration (m/s^2)"
9.693376000E-3,-5.141000152E-1,4.629999772E-2,-1.851199985E0,1.921817863E0
1.969337600E-2,-6.730199814E0,-2.682999849E0,3.546999931E0,8.066925451E0
2.969337600E-2,-7.132199764E0,-2.859499931E0,3.537299871E0,8.459166845E0
3.969181400E-2,-7.504600048E0,-2.967299938E0,3.429899931E0,8.768586222E0
4.970431400E-2,-7.876899719E0,-3.123999834E0,3.538699865E0,9.182990847E0
5.969337600E-2,-8.003999710E0,-3.466499805E0,3.628199816E0,9.446928928E0
6.969337600E-2,-7.915799618E0,-4.032499790E0,3.532199860E0,9.560197383E0
7.969337600E-2,-7.749699593E0,-4.478399754E0,3.495599985E0,9.609012820E0
8.969337600E-2,-6.742399693E0,-5.142999649E0,3.126799822E0,9.038101356E0
9.970587600E-2,-4.315599918E0,-6.697399616E0,2.631000042E0,8.390573609E0
1.096918140E-1,-4.615999758E-1,-8.002799988E0,2.329099894E0,8.347609747E0
1.196933760E-1,6.187299728E0,-1.112720013E1,2.806799889E0,1.303746088E1
1.296918140E-1,1.493949986E1,-1.499819946E1,4.655099869E0,2.167497631E1
1.396918140E-1,2.665289879E1,-1.971979904E1,9.037799835E0,3.436465210E1
1.496980640E-1,3.682500076E1,-2.194400024E1,1.399329948E1,4.509359443E1
1.596933760E-1,3.972929764E1,-1.888479996E1,1.458029938E1,4.634261419E1
1.696933760E-1,3.660530090E1,-1.378859997E1,1.037389946E1,4.046839919E1
1.796933760E-1,3.180009842E1,-9.956500053E0,5.373300076E0,3.375278517E1
1.896933760E-1,2.642499924E1,-8.126099586E0,1.911099911E0,2.771220637E1
1.997043140E-1,2.247850037E1,-8.904399872E0,1.245700002E0,2.420997902E1
2.096933760E-1,1.979730034E1,-1.074179935E1,4.306699753E0,2.293179053E1
2.196933760E-1,1.739189911E1,-1.137510014E1,7.869899750E0,2.222175465E1
2.296933760E-1,1.432269955E1,-1.003590012E1,1.003069973E1,2.016119913E1
2.396933760E-1,1.013379955E1,-7.148900032E0,9.364799500E0,1.554027460E1
2.496933760E-1,4.808000088E0,-3.936199903E0,6.553099632E0,9.030705915E0
2.596933760E-1,-9.454999566E-1,-1.331300020E0,2.961799860E0,3.382098213E0
2.696933760E-1,-5.837800026E0,2.264999896E-1,1.222999990E-1,5.843472313E0
2.796933760E-1,-9.530699730E0,7.779999971E-1,-1.729999900E0,9.717634537E0
2.896933760E-1,-1.201049995E1,4.411999881E-1,-1.872599959E0,1.216360955E1
2.996933760E-1,-1.360999966E1,-1.964999884E-1,-8.043999672E-1,1.363516638E1
3.096933760E-1,-1.436940002E1,-7.383999825E-1,4.635999799E-1,1.439582636E1
3.196933760E-1,-1.454589939E1,-1.082000017E0,1.491799951E0,1.466217515E1
3.296933760E-1,-1.416039944E1,-1.100899935E0,1.965999961E0,1.433855114E1
3.396933760E-1,-1.335039997E1,-1.009999990E0,1.824299932E0,1.351226663E1
3.496933760E-1,-1.237969971E1,-9.011999965E-1,1.496999979E0,1.250240518E1
3.596933760E-1,-1.137539959E1,-7.910000086E-1,1.124199986E0,1.145815092E1
3.696933760E-1,-1.039599991E1,-5.001999736E-1,1.082999945E0,1.046422013E1
3.796933760E-1,-9.451399803E0,-4.409999773E-2,1.061999917E0,9.510980332E0
3.896933760E-1,-8.513099670E0,5.038999915E-1,1.072399974E0,8.595162762E0
3.996933760E-1,-7.777899742E0,1.049600005E0,1.069299936E0,7.920908213E0
4.096933760E-1,-7.295799732E0,1.526799917E0,8.531999588E-1,7.502517037E0
4.196933760E-1,-7.106499672E0,1.849799991E0,7.792999744E-1,7.384538309E0
4.296933760E-1,-7.142299652E0,2.044399977E0,7.409999967E-1,7.465996021E0
4.396996260E-1,-7.364899635E0,2.217799902E0,5.406000018E-1,7.710553249E0
4.496933760E-1,-7.735299587E0,2.312399864E0,1.386999935E-1,8.074731607E0
4.596933760E-1,-8.096499443E0,2.398000002E0,-4.025999904E-1,8.453744377E0
4.696933760E-1,-8.339900017E0,2.468199968E0,-9.611999989E-1,8.750419922E0
4.796933760E-1,-8.454999924E0,2.486500025E0,-1.521499991E0,8.943414801E0
4.896996260E-1,-8.529899597E0,2.414899826E0,-1.989099979E0,9.085562560E0
4.996933760E-1,-8.702199936E0,2.263700008E0,-2.418900013E0,9.311482091E0
5.096933760E-1,-8.932700157E0,2.112900019E0,-2.465199947E0,9.504456290E0
5.196933760E-1,-9.217999458E0,1.940599918E0,-2.067299843E0,9.644229917E0
5.296933760E-1,-9.473799706E0,1.726699948E0,-1.451200008E0,9.738601287E0
5.397043140E-1,-9.513599396E0,1.432899952E0,-7.185999751E-1,9.647702403E0
5.496933760E-1,-9.317599297E0,1.257799983E0,-2.186999917E-1,9.404655610E0
5.596933760E-1,-8.748000145E0,8.212999701E-1,-1.902999878E-1,8.788529699E0
5.696933760E-1,-6.853499889E0,-1.685999930E-1,-4.821999967E-1,6.872510715E0
5.796933760E-1,-3.133299828E0,-1.512499928E0,-8.998999596E-1,3.593750656E0
5.897043140E-1,1.706699967E0,-2.805500031E0,-7.317999601E-1,3.364399855E0
5.996933760E-1,7.775499821E0,-4.318399906E0,6.844999790E-1,8.920510940E0
6.096918140E-1,1.445809937E1,-6.076099873E0,3.153699875E0,1.599692001E1
6.196933760E-1,2.178949928E1,-7.775899887E0,5.380799770E0,2.375289254E1
6.296933760E-1,2.808709908E1,-8.486999512E0,5.862499714E0,2.992128336E1
6.397011890E-1,3.137150002E1,-7.704799652E0,4.861399651E0,3.266753981E1
6.496933760E-1,3.178590012E1,-6.848499775E0,3.087899923E0,3.266160623E1
6.596933760E-1,3.039909935E1,-7.112199783E0,2.231099844E0,3.129962354E1
6.696933760E-1,2.863519859E1,-8.241600037E0,2.108700037E0,2.987214732E1
6.796933760E-1,2.645759964E1,-9.252099991E0,2.351799965E0,2.812715585E1
6.897058760E-1,2.304469872E1,-9.645799637E0,3.155400038E0,2.518047138E1
6.996933760E-1,1.878899956E1,-9.061599731E0,4.142099857E0,2.126725383E1
7.096933760E-1,1.372989941E1,-7.633299828E0,4.881499767E0,1.645011988E1
7.196933760E-1,8.407799721E0,-5.581500053E0,4.936699867E0,1.123455582E1
7.296933760E-1,2.971199989E0,-3.078199863E0,4.068200111E0,5.903693414E0
7.396949390E-1,-1.784299970E0,-7.087999582E-1,2.401700020E0,3.074782390E0
7.496933760E-1,-5.368799686E0,1.307099938E0,2.476999909E-1,5.531173077E0
7.596933760E-1,-7.813199997E0,2.851699829E0,-1.781399965E0,8.505978600E0
7.696933760E-1,-9.404600143E0,3.468899965E0,-3.103999853E0,1.049354973E1
7.796933760E-1,-1.058710003E1,3.175099850E0,-3.682999849E0,1.165042634E1
7.897027510E-1,-1.171459961E1,2.184000015E0,-3.511600018E0,1.242308475E1
7.996933760E-1,-1.278549957E1,1.034699917E0,-3.192199945E0,1.321853788E1
8.096933760E-1,-1.360169983E1,1.624999940E-1,-2.942299843E0,1.391724732E1
8.196933760E-1,-1.415219975E1,-3.831999898E-1,-2.706899881E0,1.441384428E1
8.296933760E-1,-1.423069954E1,-6.234999895E-1,-2.552899837E0,1.447131159E1
8.397058760E-1,-1.364069939E1,-3.955000043E-1,-2.279599905E0,1.383552224E1
8.496933760E-1,-1.245069981E1,7.649999857E-2,-1.882799983E0,1.259248640E1
8.596933760E-1,-1.110169983E1,5.625999570E-1,-1.451399922E0,1.121029971E1
8.696933760E-1,-9.642600060E0,1.064100027E0,-1.156299949E0,9.769804212E0
8.796933760E-1,-8.093500137E0,1.620499969E0,-8.352999687E-1,8.296293791E0
8.897043140E-1,-6.955399990E0,2.112599850E0,-4.253999889E-1,7.281595450E0
8.996933760E-1,-6.474999905E0,2.352099895E0,-3.096999824E-1,6.895934437E0
9.096933760E-1,-6.545899868E0,2.430899858E0,-5.432999730E-1,7.003802829E0
9.196933760E-1,-7.060699940E0,2.320099831E0,-9.617999792E-1,7.494091410E0
9.296933760E-1,-7.705199718E0,2.171900034E0,-1.474299908E0,8.140074488E0
9.397043140E-1,-8.262800217E0,2.003700018E0,-1.968599916E0,8.727202691E0
9.496933760E-1,-8.664299965E0,1.897899985E0,-2.381099939E0,9.183776737E0
9.596933760E-1,-9.095999718E0,1.894599915E0,-2.707999945E0,9.677808812E0
9.696933760E-1,-9.489299774E0,1.934799910E0,-2.875999928E0,1.010255594E1
9.796933760E-1,-9.795599937E0,1.850499988E0,-2.586799860E0,1.029901266E1
9.896965010E-1,-9.769800186E0,1.719499946E0,-1.860199928E0,1.009286974E1
9.996933760E-1,-9.754799843E0,1.463400006E0,-1.122099996E0,9.927576137E0
1.009693376E0,-1.007419968E1,1.032699943E0,-6.139000058E-1,1.014558236E1
1.019693376E0,-1.012930012E1,5.870999694E-1,-2.339999937E-2,1.014632716E1
1.029693376E0,-9.605099678E0,2.797999978E-1,2.352999896E-1,9.612054616E0
1.039693376E0,-8.334699631E0,-2.388999909E-1,2.869999968E-2,8.338172152E0
1.049693376E0,-6.534399986E0,-9.696999788E-1,-4.259999990E-1,6.619681052E0
1.059693376E0,-3.302299976E0,-2.452299833E0,-7.622999549E-1,4.183307403E0
1.069693376E0,2.224499941E0,-4.462299824E0,1.624999940E-1,4.988679780E0
1.079693376E0,9.715700150E0,-6.295399666E0,2.893100023E0,1.193301781E1
1.089693376E0,1.889080048E1,-7.249499798E0,5.490099907E0,2.096565732E1
1.099693376E0,2.952499962E1,-7.935400009E0,5.992399693E0,3.115453466E1
1.109693376E0,3.667549896E1,-7.863099575E0,2.916399956E0,3.762214704E1
1.119693376E0,3.749449921E1,-7.113299847E0,-5.482000113E-1,3.816722454E1
1.129693376E0,3.305479813E1,-6.431099892E0,-3.504000008E-1,3.367642358E1
1.139693376E0,2.667319870E1,-7.271800041E0,2.101199865E0,2.772640701E1
1.149693376E0,2.157539940E1,-9.239500046E0,4.550099850E0,2.390752243E1
1.159693376E0,1.845429993E1,-9.880799294E0,6.779599667E0,2.200350772E1
1.169693376E0,1.642949867E1,-8.746099472E0,7.575999737E0,2.009523462E1
1.179693376E0,1.451009941E1,-6.237699986E0,6.706299782E0,1.715885610E1
1.189693376E0,1.135129929E1,-2.783699989E0,4.399799824E0,1.248836337E1
1.199693376E0,7.412399769E0,5.417000055E-1,8.876000047E-1,7.484981162E0
1.209693376E0,3.220700026E0,3.050299883E0,-2.836199999E0,5.265099093E0
1.219693376E0,-6.678999662E-1,4.304399967E0,-5.560899734E0,7.063820163E0
1.229693376E0,-4.590600014E0,4.559000015E0,-6.716799736E0,9.325957770E0
1.239693376E0,-8.058400154E0,4.157599926E0,-6.316199780E0,1.105069364E1
1.249693376E0,-1.093299961E1,3.365399837E0,-5.245800018E0,1.258470557E1
1.259693376E0,-1.288819981E1,2.538399935E0,-4.004799843E0,1.373271970E1
1.269693376E0,-1.394129944E1,1.814099908E0,-2.859799862E0,1.434675029E1
1.279702751E0,-1.433609962E1,1.229200006E0,-1.494300008E0,1.446608508E1
1.289693376E0,-1.401270008E1,6.995999813E-1,-6.373999715E-1,1.404462468E1
1.299693376E0,-1.314739990E1,4.332999885E-1,-1.137999967E-1,1.315503035E1
1.309693376E0,-1.191629982E1,5.679000020E-1,2.143999934E-1,1.193175088E1
1.319693376E0,-1.035949993E1,1.020300031E0,3.017999828E-1,1.041399703E1
1.329694939E0,-9.066699982E0,1.565899968E0,6.359999627E-2,9.201148636E0
1.339693376E0,-8.431699753E0,1.978799939E0,-3.127000034E-1,8.666428977E0
1.349693376E0,-8.347499847E0,2.233199835E0,-7.026000023E-1,8.669577958E0
1.359693376E0,-8.598999977E0,2.267199993E0,-9.122999907E-1,8.939535094E0
1.369693376E0,-9.009399414E0,2.238199949E0,-9.261999726E-1,9.329344200E0
1.379702751E0,-9.509699821E0,2.167899847E0,-8.974999785E-1,9.794880635E0
1.389693376E0,-9.952400208E0,2.078099966E0,-6.707999706E-1,1.018914825E1
1.399693376E0,-1.021949959E1,1.923099995E0,-3.930999935E-1,1.040629680E1
1.409693376E0,-1.025129986E1,1.745999932E0,-1.359999925E-2,1.039893502E1
1.419693376E0,-1.008689976E1,1.784599900E0,3.504000008E-1,1.024954261E1
1.429707439E0,-9.883099556E0,1.862299919E0,6.402999759E-1,1.007739063E1
1.439693376E0,-9.679100037E0,1.969299912E0,7.770999670E-1,9.907926323E0
1.449693376E0,-9.386799812E0,2.135200024E0,8.484999537E-1,9.663904078E0
1.459693376E0,-9.035799980E0,2.407500029E0,7.080999613E-1,9.377800554E0
1.469693376E0,-8.862099648E0,2.527499914E0,3.649999797E-1,9.222705187E0
1.479705876E0,-8.679499626E0,2.415400028E0,-8.329999447E-2,9.009706430E0
1.489693376E0,-8.065999985E0,2.161000013E0,-7.069999576E-1,8.380341625E0
1.499693376E0,-6.834899902E0,1.746099949E0,-1.505100012E0,7.213185687E0
1.509693376E0,-4.976500034E0,6.707999706E-1,-2.152499914E0,5.463403799E0
1.519693376E0,-2.206399918E0,-9.716999531E-1,-1.904999971E0,3.072690399E0
1.529702751E0,2.065000057E0,-2.710799932E0,-8.874999881E-1,3.521408488E0
1.539693376E0,7.653899670E0,-3.902299881E0,1.208199978E0,8.675821097E0
1.549693376E0,1.547519970E1,-4.348599911E0,4.292500019E0,1.663783890E1
1.559693376E0,2.572699928E1,-3.695899963E0,6.312900066E0,2.674679188E1
1.569693376E0,3.374739838E1,-2.902199984E0,5.381299973E0,3.429676444E1
1.579701189E0,3.592689896E1,-2.573899984E0,8.399999738E-1,3.602877502E1
1.589693376E0,3.341489792E1,-2.687899828E0,-3.962299824E0,3.375618504E1
1.599693376E0,2.856719971E1,-2.996399879E0,-6.021299839E0,2.934824293E1
1.609693376E0,2.503520012E1,-3.576900005E0,-4.601599693E0,2.570467231E1
1.619693376E0,2.382279968E1,-4.224899769E0,-9.842000008E-1,2.421454547E1
1.629705876E0,2.337599945E1,-4.662399769E0,2.412099838E0,2.395816244E1
1.639693376E0,2.173419952E1,-4.414599895E0,4.510299683E0,2.263198896E1
1.649693376E0,1.765819931E1,-3.437899828E0,4.782299995E0,1.861455214E1
1.659693376E0,1.183399963E1,-2.054800034E0,3.560699940E0,1.252774260E1
1.669693376E0,5.293600082E0,-2.727999985E-1,1.888599992E0,5.627026888E0
1.679694939E0,-5.087000132E-1,1.374899983E0,2.551999986E-1,1.488036527E0
1.689693376E0,-5.257100105E0,2.690299988E0,-1.028100014E0,5.994314404E0
1.699693376E0,-8.334699631E0,3.165400028E0,-1.366599917E0,9.019676857E0
1.709693376E0,-1.018589973E1,3.057899952E0,-1.007399917E0,1.068261017E1
1.719693376E0,-1.157839966E1,2.593199968E0,-7.807999849E-1,1.189090717E1
1.729699626E0,-1.321850014E1,1.697600007E0,-1.336399913E0,1.339389997E1
1.739693376E0,-1.461459923E1,7.781999707E-1,-2.379199982E0,1.482743060E1
1.749693376E0,-1.543109989E1,2.449999936E-2,-3.320899963E0,1.578441702E1
1.759693376E0,-1.524489975E1,-1.876000017E-1,-3.406599998E0,1.562200646E1
1.769693376E0,-1.407509995E1,-7.779999822E-2,-2.710399866E0,1.433390243E1
1.779694939E0,-1.213749981E1,2.629999816E-1,-1.681800008E0,1.225628499E1
1.789693376E0,-9.864399910E0,7.752999663E-1,-6.647999883E-1,9.917128347E0
1.799693376E0,-8.051499367E0,1.142199993E0,2.104000002E-1,8.134834420E0
1.809693376E0,-7.239899635E0,1.213099957E0,5.273999572E-1,7.359749245E0
1.819693376E0,-7.362299919E0,1.116999984E0,5.764999986E-1,7.468835338E0
1.829693376E0,-8.065899849E0,9.320999980E-1,5.203999877E-1,8.136237885E0
1.839693376E0,-8.937799454E0,6.949999928E-1,5.615000129E-1,8.982347484E0
1.849693376E0,-9.692500114E0,4.928999841E-1,6.402999759E-1,9.726124250E0
1.859693376E0,-1.011329937E1,5.187000036E-1,6.017000079E-1,1.014445251E1
1.869693376E0,-1.036619949E1,6.977999806E-1,3.005999923E-1,1.039400679E1
1.879696501E0,-1.046119976E1,8.734999895E-1,-2.096999884E-1,1.049969889E1
1.889693376E0,-1.048670006E1,1.083400011E0,-7.200999856E-1,1.056707990E1
1.899693376E0,-1.044309998E1,1.286399961E0,-1.179199934E0,1.058790227E1
1.909693376E0,-1.021290016E1,1.559399962E0,-1.555299997E0,1.044767994E1
1.919693376E0,-9.934100151E0,1.683299899E0,-1.520699978E0,1.018981711E1
1.929694939E0,-9.695699692E0,1.663299918E0,-1.167199969E0,9.906337108E0
1.939693376E0,-9.713799477E0,1.544999957E0,-1.082499981E0,9.895288341E0
1.949693376E0,-1.001809978E1,1.415499926E0,-1.192099929E0,1.018759371E1
1.959693376E0,-1.032369995E1,1.277899981E0,-1.329699993E0,1.048713074E1
1.969701189E0,-1.045310020E1,9.407999516E-1,-1.522799969E0,1.060525003E1
1.979693376E0,-1.009179974E1,5.855000019E-1,-1.985599995E0,1.030193377E1
1.989693376E0,-8.611800194E0,1.175999939E-1,-2.395599842E0,8.939565478E0
1.999693376E0,-5.777599812E0,-9.114999771E-1,-2.413800001E0,6.327552626E0
2.009693376E0,-1.029999971E0,-2.389999866E0,-1.689799905E0,3.102970032E0
2.019705876E0,5.377299786E0,-3.821299791E0,-1.158000007E-1,6.597809843E0
2.029693376E0,1.458459949E1,-5.277999878E0,2.031199932E0,1.564268514E1
2.039693376E0,2.447559929E1,-6.562500000E0,4.861799717E0,2.580229570E1
2.049693376E0,3.155749893E1,-7.179100037E0,7.869999886E0,3.330693793E1
2.059693376E0,3.314459991E1,-5.322099686E0,7.929199696E0,3.449291893E1
2.069701189E0,3.169289970E1,-2.240299940E0,5.608900070E0,3.226327007E1
2.079693376E0,2.976369858E1,-7.203999758E-1,2.583400011E0,2.988428826E1
2.089693376E0,2.871150017E1,-1.652599931E0,1.344900012E0,2.879045127E1
2.099693376E0,2.743659973E1,-4.692800045E0,1.346099973E0,2.786756829E1
2.109693376E0,2.500339890E1,-7.171000004E0,2.416699886E0,2.612343078E1
2.119696501E0,2.089539909E1,-8.070599556E0,3.652400017E0,2.269564510E1
2.129693376E0,1.604999924E1,-7.248999596E0,3.969299793E0,1.805286159E1
2.139693376E0,1.055480003E1,-5.074299812E0,2.567699909E0,1.198938719E1
2.149693376E0,5.117399693E0,-2.033599854E0,9.869999439E-2,5.507544795E0
2.159693376E0,1.692999899E-1,1.239599943E0,-2.692499876E0,2.968977280E0
2.169705876E0,-3.890199900E0,3.890699863E0,-4.715899944E0,7.246441401E0
2.179693376E0,-6.291100025E0,5.585499763E0,-4.985199928E0,9.778955234E0
2.189693376E0,-7.626399994E0,6.088699818E0,-3.669899940E0,1.042604469E1
2.199693376E0,-8.674300194E0,5.615299702E0,-1.959699988E0,1.051739030E1
2.209693376E0,-9.512899399E0,4.759099960E0,-1.322600007E0,1.071884127E1
2.219704314E0,-1.014050007E1,3.630399942E0,-2.185299873E0,1.099022661E1
2.229693376E0,-1.105459976E1,2.618999958E0,-3.331099987E0,1.183890045E1
2.239693376E0,-1.200819969E1,1.929099917E0,-4.183399677E0,1.286153642E1
2.249693376E0,-1.241119957E1,1.423200011E0,-4.632100105E0,1.332365282E1
2.259693376E0,-1.208640003E1,1.168900013E0,-4.209700108E0,1.285180797E1
2.269702751E0,-1.128839970E1,1.248199940E0,-2.951200008E0,1.173437481E1
2.279693376E0,-1.013539982E1,1.776499987E0,-1.356699944E0,1.037896509E1
2.289693376E0,-9.315199852E0,2.587800026E0,6.289999932E-2,9.668175302E0
2.299693376E0,-8.976699829E0,3.316599846E0,1.036399961E0,9.625751879E0
2.309693376E0,-9.052399635E0,3.678200006E0,1.379099965E0,9.867979082E0
2.319694939E0,-9.405499458E0,3.658099890E0,1.005599976E0,1.014181178E1
2.329693376E0,-9.898200035E0,3.198499918E0,2.069999874E-1,1.040421139E1
2.339693376E0,-1.014750004E1,2.609999895E0,-5.393999815E-1,1.049165425E1
2.349693376E0,-9.966300011E0,2.076799870E0,-1.105999947E0,1.024028659E1
2.359693376E0,-9.638400078E0,1.751500010E0,-1.399799943E0,9.895754050E0
2.369704314E0,-9.359000206E0,1.695699930E0,-1.453799963E0,9.621840647E0
2.379693376E0,-9.235199928E0,1.791399956E0,-1.579499960E0,9.539017331E0
2.389693376E0,-9.070799828E0,2.056299925E0,-1.890299916E0,9.491101763E0
2.399693376E0,-8.777899742E0,2.281899929E0,-2.298300028E0,9.356322685E0
2.409693376E0,-8.651599884E0,2.240399837E0,-2.771100044E0,9.356739146E0
2.419696501E0,-8.800899506E0,2.007099867E0,-2.999300003E0,9.512101897E0
2.429693376E0,-8.961199760E0,2.004799843E0,-2.723299980E0,9.578031444E0
2.439693376E0,-8.906399727E0,2.178299904E0,-2.373899937E0,9.471237906E0
2.449693376E0,-8.763599396E0,2.174499989E0,-2.179699898E0,9.288714454E0
2.459693376E0,-8.209799767E0,1.756599903E0,-1.853399992E0,8.597764067E0
2.469701189E0,-6.421299934E0,6.134999990E-1,-1.241899967E0,6.569002255E0
2.479693376E0,-3.416800022E0,-7.170999646E-1,-3.203999996E-1,3.505910853E0
2.489693376E0,7.366999984E-1,-1.668999910E0,6.924999952E-1,1.951369732E0
2.499696501E0,6.021299839E0,-2.424499989E0,1.536299944E0,6.670417488E0
2.509693376E0,1.316199970E1,-2.954499960E0,2.316200018E0,1.368693131E1
2.519696501E0,2.091160011E1,-3.608599901E0,2.820499897E0,2.140729390E1
2.529693376E0,2.735599899E1,-4.958899975E0,2.590899944E0,2.792228738E1
2.539693376E0,3.080729866E1,-5.755699635E0,2.132200003E0,3.141280003E1
2.549693376E0,3.177619934E1,-5.375699997E0,1.001799941E0,3.224327214E1
2.559693376E0,3.129299927E1,-5.030600071E0,7.559999824E-2,3.169486481E1
2.569702751E0,3.025070000E1,-5.114299774E0,1.047199965E0,3.069784260E1
2.579693376E0,2.880639839E1,-5.319599628E0,3.690399885E0,2.952500262E1
2.589693376E0,2.622389984E1,-5.531499863E0,6.455100060E0,2.756734899E1
2.599693376E0,2.174759865E1,-5.527100086E0,8.067299843E0,2.384508773E1
2.609693376E0,1.606379890E1,-5.188499928E0,7.135299683E0,1.832699289E1
2.619693376E0,1.031629944E1,-3.922299862E0,4.292200089E0,1.184202060E1
2.629693376E0,5.268099785E0,-1.945699930E0,1.065899968E0,5.716184593E0
2.639693376E0,6.446999907E-1,2.444999963E-1,-1.797699928E0,1.925394338E0
2.649693376E0,-3.330399990E0,1.880999923E0,-3.674999952E0,5.304276525E0
2.659693376E0,-6.718800068E0,2.723399878E0,-4.166800022E0,8.361901917E0
2.669693376E0,-9.286199570E0,3.093600035E0,-3.193199873E0,1.029564903E1
2.679693376E0,-1.103189945E1,3.130399942E0,-1.803699970E0,1.160842551E1
2.689693376E0,-1.199310017E1,2.993299961E0,-8.989999890E-1,1.239364745E1
2.699693376E0,-1.248219967E1,2.633599997E0,-9.237999916E-1,1.279040906E1
2.709705876E0,-1.254799938E1,2.246899843E0,-1.272400022E0,1.281092695E1
2.719693376E0,-1.221059990E1,2.030299902E0,-1.919600010E0,1.252620181E1
2.729693376E0,-1.147060013E1,1.906599998E0,-2.700099945E0,1.193735023E1
2.739693376E0,-1.053469944E1,1.817600012E0,-3.124699831E0,1.113765286E1
2.749693376E0,-9.541600227E0,1.712099910E0,-3.088599920E0,1.017412750E1
2.759702751E0,-8.747499466E0,1.526899934E0,-2.519700050E0,9.230333616E0
2.769693376E0,-8.308899879E0,1.278699994E0,-1.826900005E0,8.602932902E0
2.779693376E0,-8.126299858E0,9.666999578E-1,-1.258999944E0,8.279875546E0
2.789693376E0,-8.335899353E0,6.398999691E-1,-9.156000018E-1,8.410411010E0
2.799693376E0,-8.858399391E0,5.837000012E-1,-7.152000070E-1,8.906371681E0
2.809699626E0,-9.408899307E0,6.829999685E-1,-7.469999790E-1,9.463185727E0
2.819693376E0,-9.810799599E0,7.052999735E-1,-9.782999754E-1,9.884650103E0
2.829693376E0,-1.003489971E1,7.500000000E-1,-1.166700006E0,1.013029620E1
2.839693376E0,-1.008189964E1,9.156999588E-1,-1.472100019E0,1.022987220E1
2.849693376E0,-1.000109959E1,1.242200017E0,-2.116699934E0,1.029783824E1
2.859694939E0,-9.841799736E0,1.680400014E0,-2.842900038E0,1.038108120E1
2.869693376E0,-9.673699379E0,2.079799891E0,-3.569299936E0,1.051883688E1
2.879693376E0,-9.625299454E0,2.348000050E0,-3.910199881E0,1.065125142E1
2.889693376E0,-9.736100197E0,2.483599901E0,-3.866099834E0,1.076599477E1
2.899693376E0,-9.916899681E0,2.536399841E0,-3.581599951E0,1.084463377E1
2.909699626E0,-9.813699722E0,2.557099819E0,-2.717399836E0,1.049912966E1
2.919693376E0,-9.484700203E0,2.242599964E0,-1.740700006E0,9.900445902E0
2.929693376E0,-8.683499336E0,2.211699963E0,-1.260299921E0,9.048929955E0
2.939693376E0,-8.038199425E0,2.471999884E0,-1.198799968E0,8.494736887E0
2.949693376E0,-7.304499626E0,2.206199884E0,-1.551800013E0,7.786598487E0
2.959704314E0,-4.767099857E0,1.152699947E0,-1.951799989E0,5.278587066E0
2.969693376E0,2.884999812E-1,-4.463999867E-1,-1.549399972E0,1.638030971E0
2.979693376E0,7.410399914E0,-2.566499949E0,-1.119300008E0,7.921728434E0
2.989693376E0,1.699079895E1,-5.242199898E0,-2.881000042E-1,1.778344484E1
2.999693376E0,2.730539894E1,-8.267000198E0,2.480299950E0,2.863703880E1
3.009707439E0,3.481999969E1,-1.125369930E1,6.508499622E0,3.716771037E1
3.019693376E0,3.680310059E1,-1.167999935E1,9.120800018E0,3.967467190E1
3.029693376E0,3.436969757E1,-9.505899429E0,8.707200050E0,3.670767723E1
3.039693376E0,2.955629921E1,-7.587999821E0,7.644999981E0,3.145788596E1
3.049693376E0,2.405869865E1,-7.294099808E0,5.937299728E0,2.583169373E1
3.059707439E0,1.956309891E1,-7.955799580E0,4.859399796E0,2.167079491E1
3.069693376E0,1.612779999E1,-8.177800179E0,4.924599648E0,1.874123875E1
3.079693376E0,1.347019958E1,-7.046199799E0,4.454999924E0,1.584115630E1
3.089693376E0,1.058329964E1,-4.616899967E0,3.044199944E0,1.194106988E1
3.099693376E0,6.653899670E0,-1.002499938E0,1.709000021E-1,6.731165854E0
3.109704314E0,2.096499920E0,2.559900045E0,-3.660799980E0,4.934557392E0
3.119693376E0,-2.284399986E0,5.081500053E0,-6.635699749E0,8.664446736E0
3.129694939E0,-5.626599789E0,6.348700047E0,-7.754499912E0,1.149334096E1
3.139693376E0,-8.192099571E0,6.457499981E0,-7.240099907E0,1.269759221E1
3.149693376E0,-9.962299347E0,5.654999733E0,-5.647599697E0,1.277191499E1
3.159694939E0,-1.129939938E1,4.542599678E0,-3.940899849E0,1.280009100E1
3.169693376E0,-1.245629978E1,3.388299942E0,-2.658499956E0,1.317981801E1
3.179693376E0,-1.333109951E1,2.417000055E0,-2.034499884E0,1.370033916E1
3.189693376E0,-1.353739929E1,1.887099981E0,-1.640999913E0,1.376645222E1
3.199693376E0,-1.275859928E1,1.917299986E0,-1.329299927E0,1.297015548E1
3.209696501E0,-1.114139938E1,2.253499985E0,-1.139999986E0,1.142403792E1
3.219693376E0,-9.295100212E0,2.711999893E0,-1.192199945E0,9.755776344E0
3.229693376E0,-7.898999691E0,3.125099897E0,-1.211899996E0,8.580742805E0
3.239693376E0,-6.984899998E0,3.474499941E0,-1.277799964E0,7.905298892E0
3.249693376E0,-6.642399788E0,3.843199968E0,-1.234200001E0,7.772702913E0
3.259693376E0,-6.587100029E0,3.994099855E0,-1.173499942E0,7.792292510E0
3.269693376E0,-6.759599686E0,3.945999861E0,-1.317299962E0,7.937152008E0
3.279693376E0,-7.277299881E0,3.768599987E0,-1.578199983E0,8.345786638E0
3.289693376E0,-7.973299980E0,3.630399942E0,-1.895299911E0,8.963563916E0
3.299702751E0,-8.327199936E0,3.643899918E0,-2.058199883E0,9.319680903E0
3.309693376E0,-8.181599617E0,3.664799929E0,-2.201799870E0,9.231319162E0
3.319693376E0,-7.968599796E0,3.535199881E0,-2.510999918E0,9.072008680E0
3.329693376E0,-7.816599846E0,3.380699873E0,-2.580600023E0,8.898756164E0
3.339693376E0,-7.746399879E0,3.218999863E0,-2.299200058E0,8.697987820E0
3.349707439E0,-7.895299911E0,3.010299921E0,-1.696299911E0,8.618300279E0
3.359693376E0,-8.389900208E0,2.685099840E0,-1.259199977E0,8.898638729E0
3.369693376E0,-9.198900223E0,2.243900061E0,-9.292999506E-1,9.514118519E0
3.379693376E0,-9.799599648E0,1.720899940E0,-1.010699987E0,1.000075819E1
3.389693376E0,-1.011129951E1,1.004599929E0,-1.526299953E0,1.027507618E1
3.399702751E0,-9.967399597E0,-1.779999956E-2,-2.269999981E0,1.022263525E1
3.409693376E0,-8.692699432E0,-1.417999983E0,-2.860399961E0,9.260433862E0
3.419693376E0,-5.475399971E0,-3.027199984E0,-2.375900030E0,6.692446902E0
3.429693376E0,-2.076999992E-1,-4.332499981E0,-8.448999524E-1,4.418998903E0
3.439693376E0,7.753299713E0,-5.000400066E0,1.358899951E0,9.325463331E0
3.449705876E0,1.699329948E1,-5.493199825E0,2.964999914E0,1.810355479E1
3.459693376E0,2.615979958E1,-5.367700100E0,2.304800034E0,2.680409337E1
3.469693376E0,3.141629982E1,-4.640699863E0,-6.408999562E-1,3.176367017E1
3.479693376E0,3.236100006E1,-4.377699852E0,-1.904899955E0,3.271127061E1
3.489693376E0,3.175119972E1,-5.328700066E0,4.458999932E-1,3.219833156E1
3.499701189E0,3.127319908E1,-6.492199898E0,4.782999992E0,3.229611013E1
3.509693376E0,3.097839928E1,-7.044699669E0,8.302899361E0,3.283636936E1
3.519693376E0,2.942879868E1,-6.528899670E0,9.591799736E0,3.163357938E1
3.529693376E0,2.549549866E1,-5.406699657E0,8.652699471E0,2.746128295E1
3.539693376E0,1.976659966E1,-4.368099689E0,6.406799793E0,2.123313073E1
3.549698064E0,1.266539955E1,-3.281299829E0,3.481299877E0,1.353878588E1
3.559693376E0,6.116499901E0,-2.124399900E0,6.823999882E-1,6.510784570E0
3.569693376E0,8.473999500E-1,-1.413399935E0,-1.564999938E0,2.272666024E0
3.579693376E0,-3.564299822E0,-7.192999721E-1,-2.858899832E0,4.625465806E0
3.589693376E0,-7.002799988E0,2.364999950E-1,-3.019899845E0,7.629871230E0
3.599705876E0,-9.685299873E0,1.191799998E0,-2.444200039E0,1.005979795E1
3.609693376E0,-1.154710007E1,2.039200068E0,-1.630599976E0,1.183861112E1
3.619693376E0,-1.265979958E1,2.452899933E0,-9.817999601E-1,1.293256257E1
3.629693376E0,-1.290289974E1,2.352399826E0,-5.048999786E-1,1.312530117E1
3.639693376E0,-1.289929962E1,2.149399996E0,-4.807999730E-1,1.308598562E1
3.649702751E0,-1.279529953E1,1.813099980E0,-1.014199972E0,1.296285552E1
3.659693376E0,-1.255179977E1,1.462899923E0,-1.680599928E0,1.274802612E1
3.669693376E0,-1.201239967E1,1.396099925E0,-2.178400040E0,1.228789110E1
3.679693376E0,-1.122679996E1,1.517399907E0,-2.361799955E0,1.157245173E1
3.689693376E0,-1.014750004E1,1.638399959E0,-2.321599960E0,1.053783364E1
3.699696501E0,-9.168000221E0,1.704599977E0,-2.164599895E0,9.573054990E0
3.709693376E0,-8.582699776E0,1.671800017E0,-1.974399924E0,8.964145570E0
3.719693376E0,-8.223799706E0,1.468699932E0,-1.603399992E0,8.506400685E0
3.729693376E0,-8.374799728E0,1.368999958E0,-1.335600019E0,8.590416683E0
3.739693376E0,-8.847999573E0,1.452899933E0,-1.276600003E0,9.056915712E0
3.749701189E0,-9.250499725E0,1.596099973E0,-1.271099925E0,9.472854655E0
3.759693376E0,-9.239500046E0,1.790899992E0,-1.018100023E0,9.466372670E0
3.769693376E0,-9.021900177E0,2.084399939E0,-7.483999729E-1,9.289752872E0
3.779693376E0,-8.794799805E0,2.452100039E0,-8.568999767E-1,9.170363994E0
3.789693376E0,-9.069499969E0,2.643599987E0,-1.462499976E0,9.559464251E0
3.799699626E0,-9.640999794E0,2.607599974E0,-2.158499956E0,1.021800258E1
3.809693376E0,-1.012709999E1,2.512899876E0,-2.311800003E0,1.068724657E1
3.819693376E0,-1.062449932E1,2.118799925E0,-2.178599834E0,1.105059257E1
3.829693376E0,-1.103359985E1,1.860799909E0,-2.007999897E0,1.136815577E1
3.839693376E0,-1.108869934E1,1.683499932E0,-1.938499928E0,1.138205636E1
3.849698064E0,-1.048470020E1,2.004099846E0,-1.920499921E0,1.084590589E1
3.859693376E0,-9.260899544E0,2.302999973E0,-1.686899900E0,9.690908137E0
3.869693376E0,-7.331199646E0,1.974499941E0,-1.431699991E0,7.726247675E0
3.879693376E0,-4.844999790E0,1.041700006E0,-8.726999760E-1,5.031974475E0
3.889693376E0,-1.684899926E0,-2.309999913E-1,-2.597999871E-1,1.720390883E0
3.899705876E0,2.169100046E0,-1.720199943E0,6.997999549E-1,2.855486444E0
3.909693376E0,7.377799988E0,-2.825500011E0,1.857800007E0,8.115836608E0
3.919693376E0,1.539669991E1,-3.719199896E0,2.990599871E0,1.611938285E1
3.929693376E0,2.460039902E1,-4.192100048E0,3.179800034E0,2.515679755E1
3.939693376E0,3.127820015E1,-4.009999752E0,2.218499899E0,3.161214394E1
3.949698064E0,3.238039780E1,-3.329499960E0,1.402300000E0,3.258131638E1
3.959693376E0,2.951709938E1,-3.843299866E0,1.967700005E0,2.983122446E1
3.969693376E0,2.600510025E1,-6.169300079E0,3.578299999E0,2.696534319E1
3.979693376E0,2.268849945E1,-8.483499527E0,5.114399910E0,2.475671339E1
3.989693376E0,1.980239868E1,-8.922699928E0,5.635399818E0,2.243896831E1
3.999693376E0,1.800809860E1,-7.454999924E0,5.552899837E0,2.026581693E1
4.009693376E0,1.641289902E1,-5.278299809E0,4.387199879E0,1.779020027E1
4.019693376E0,1.491580009E1,-2.528800011E0,1.967999935E0,1.525611175E1
4.029693376E0,1.272799969E1,5.543000102E-1,-1.367999911E0,1.281329966E1
4.039693376E0,9.638099670E0,3.135900021E0,-4.452699661E0,1.107038249E1
4.049693376E0,5.355599880E0,5.279900074E0,-5.893199921E0,9.554559130E0
4.059693376E0,6.502000093E-1,6.254099846E0,-5.344199657E0,8.252090336E0
4.069693376E0,-3.546199799E0,6.395699978E0,-3.003499985E0,7.905790497E0
4.079693376E0,-6.857999802E0,5.720799923E0,-4.073999822E-1,8.940116766E0
4.089693376E0,-9.369899750E0,4.832699776E0,1.109799981E0,1.060102186E1
4.099693376E0,-1.134299946E1,3.885699987E0,1.226999998E0,1.205271049E1
4.109693376E0,-1.252509975E1,2.796000004E0,7.519999892E-2,1.283360413E1
4.119693376E0,-1.300839996E1,1.774899960E0,-1.543099999E0,1.321930017E1
4.129693376E0,-1.269909954E1,1.146399975E0,-3.214099884E0,1.314959315E1
4.139693376E0,-1.172119999E1,1.241500020E0,-4.186699867E0,1.250824957E1
4.149693376E0,-1.048779964E1,1.705399990E0,-4.611899853E0,1.158326166E1
4.159693376E0,-9.324799538E0,2.058399916E0,-4.244299889E0,1.045002288E1
4.169693376E0,-8.301599503E0,2.076699972E0,-3.148299932E0,9.118170296E0
4.179693376E0,-8.202699661E0,1.743299961E0,-1.818699956E0,8.580853455E0
4.189704314E0,-8.928500175E0,1.418599963E0,-6.268000007E-1,9.062197277E0
4.199693376E0,-1.003609943E1,1.214900017E0,3.191999793E-1,1.011440372E1
4.209693376E0,-1.065079975E1,1.189700007E0,9.689999819E-1,1.076075659E1
4.219693376E0,-1.058539963E1,1.202099919E0,1.307399988E0,1.073336034E1
4.229693376E0,-1.024300003E1,1.251199961E0,1.243799925E0,1.039382457E1
4.239707439E0,-9.987500191E0,1.411700010E0,4.091999829E-1,1.009507314E1
4.249693376E0,-9.859199524E0,1.621099949E0,-8.488999605E-1,1.002758253E1
4.259693376E0,-9.848899841E0,1.790399909E0,-2.085500002E0,1.022524670E1
4.269693376E0,-9.927599907E0,1.929199934E0,-2.973599911E0,1.054141114E1
4.279693376E0,-1.013479996E1,1.997699976E0,-3.453699827E0,1.089187853E1
4.289701189E0,-1.036250019E1,1.955999970E0,-3.340600014E0,1.106195980E1
4.299693376E0,-1.067939949E1,1.980499983E0,-2.594300032E0,1.116702048E1
4.309693376E0,-1.111439991E1,2.062900066E0,-1.925599933E0,1.146705617E1
4.319693376E0,-1.137239933E1,2.194099903E0,-1.330399990E0,1.165828054E1
4.329693376E0,-1.124679947E1,2.178799868E0,-9.200999737E-1,1.149279127E1
4.339694939E0,-1.018820000E1,1.704999924E0,-1.049199939E0,1.038302771E1
4.349693376E0,-7.843599796E0,5.295999646E-1,-1.896600008E0,8.087003492E0
4.359693376E0,-4.086299896E0,-9.196999669E-1,-2.424700022E0,4.839717457E0
4.369693376E0,1.946099997E0,-2.515799999E0,-1.934799910E0,3.722902836E0
4.379693376E0,9.802599907E0,-4.368899822E0,-6.310999990E-1,1.075065290E1
4.389696501E0,1.832659912E1,-6.540699959E0,1.713400006E0,1.953409150E1
4.399693376E0,2.549109840E1,-8.512800217E0,4.628999710E0,2.727070780E1
4.409693376E0,2.939620018E1,-8.248999596E0,7.111799717E0,3.134900755E1
4.419693376E0,2.883239937E1,-6.048699856E0,7.553400040E0,3.041295572E1
4.429693376E0,2.668859863E1,-4.088200092E0,5.367799759E0,2.752831181E1
4.439701189E0,2.517829895E1,-4.096499920E0,3.109599829E0,2.569820345E1
4.449693376E0,2.493649864E1,-5.424900055E0,2.536099911E0,2.564547344E1
4.459693376E0,2.523799896E1,-6.678299904E0,4.091799736E0,2.642534969E1
4.469693376E0,2.500759888E1,-7.461799622E0,5.536499977E0,2.667791759E1
4.479693376E0,2.272729874E1,-7.412699699E0,5.454199791E0,2.451992088E1
4.489698064E0,1.817070007E1,-6.500899792E0,3.733099937E0,1.965634947E1
4.499693376E0,1.249559975E1,-5.227399826E0,1.030799985E0,1.358411832E1
4.509693376E0,6.362400055E0,-3.374799967E0,-1.947799921E0,7.460786407E0
4.519693376E0,9.602999687E-1,-1.007499933E0,-3.471799850E0,3.740404570E0
4.529693376E0,-3.170899868E0,1.400799990E0,-3.267199993E0,4.763553545E0
4.539696501E0,-5.690199852E0,3.219899893E0,-1.911599994E0,6.811779812E0
4.549693376E0,-7.366099834E0,4.327499866E0,-5.008000135E-1,8.557890074E0
4.559693376E0,-8.683199883E0,4.590199947E0,5.227000117E-1,9.835705926E0
4.569693376E0,-9.937299728E0,4.166699886E0,9.598999619E-1,1.081816629E1
4.579693376E0,-1.120559978E1,3.294399977E0,8.030999899E-1,1.170741250E1
4.589707439E0,-1.213219929E1,2.306099892E0,6.619999558E-2,1.234960480E1
4.599693376E0,-1.266479969E1,1.469799995E0,-8.305999637E-1,1.277682901E1
4.609693376E0,-1.249679947E1,9.649999738E-1,-1.921700001E0,1.268046343E1
4.619693376E0,-1.185659981E1,8.766999841E-1,-2.913199902E0,1.224068199E1
4.629693376E0,-1.108469963E1,1.087899923E0,-3.704899788E0,1.173798852E1
4.639699626E0,-1.039019966E1,1.417599916E0,-4.114099979E0,1.126461971E1
4.649693376E0,-9.715499878E0,1.753099918E0,-4.089399815E0,1.068585458E1
4.659693376E0,-9.149700165E0,2.012199879E0,-3.748799801E0,1.009056299E1
4.669693376E0,-8.614299774E0,2.241799831E0,-3.410399914E0,9.532190444E0
4.679693376E0,-8.158399582E0,2.537299871E0,-3.196099997E0,9.122084716E0
4.689702751E0,-7.704199791E0,2.767799854E0,-2.899899960E0,8.684746987E0
4.699693376E0,-7.547099590E0,2.762899876E0,-2.737699986E0,8.490425735E0
4.709693376E0,-7.854199886E0,2.696399927E0,-2.601500034E0,8.702116458E0
4.719693376E0,-8.409600258E0,2.500499964E0,-2.550999880E0,9.136819849E0
4.729693376E0,-8.770799637E0,2.257200003E0,-2.529700041E0,9.403257968E0
4.739696501E0,-9.191599846E0,2.067699909E0,-2.500799894E0,9.747558194E0
4.749693376E0,-9.690599442E0,1.954199910E0,-2.497299910E0,1.019623076E1
4.759693376E0,-1.010019970E1,1.920199990E0,-2.284999847E0,1.053197162E1
4.769693376E0,-1.016519928E1,1.888999939E0,-1.813899994E0,1.049713439E1
4.779693376E0,-9.993100166E0,1.899799943E0,-1.106400013E0,1.023207759E1
4.789693376E0,-9.729999542E0,2.069200039E0,-9.099999666E-1,9.989123076E0
4.799693376E0,-9.699399948E0,2.286099911E0,-1.406799912E0,1.006398023E1
4.809693376E0,-9.609199524E0,2.262199879E0,-2.211599827E0,1.011659219E1
4.819693376E0,-8.835000038E0,1.654399991E0,-2.414599895E0,9.307231471E0
4.829693376E0,-6.711299896E0,6.944999695E-1,-1.791299939E0,6.980876161E0
4.839693376E0,-3.265499830E0,-2.848999798E-1,-1.255100012E0,3.509976236E0
4.849693376E0,1.758999944E0,-7.996000051E-1,-9.693999887E-1,2.161753295E0
4.859693376E0,7.694099903E0,-1.393000007E0,-1.324999928E-1,7.820305530E0
4.869693376E0,1.488179970E1,-2.742300034E0,8.203999996E-1,1.515457779E1
4.879693376E0,2.129220009E1,-4.877799988E0,1.374599934E0,2.188698797E1
4.889693376E0,2.553310013E1,-7.218899727E0,1.637300014E0,2.658444031E1
4.899693376E0,2.742000008E1,-8.781799316E0,2.387599945E0,2.889077771E1
4.909693376E0,2.767219925E1,-9.675299644E0,4.057899952E0,2.959440127E1
4.919693376E0,2.706849861E1,-9.776800156E0,6.022899628E0,2.940348208E1
4.929693376E0,2.634770012E1,-8.402400017E0,6.915999889E0,2.850671293E1
4.939693376E0,2.534210014E1,-6.006000042E0,7.366499901E0,2.706583450E1
4.949693376E0,2.344009972E1,-3.184299946E0,7.748299599E0,2.489205069E1
4.959693376E0,2.045089912E1,-7.251999974E-1,7.417099953E0,2.176645496E1
4.969693376E0,1.619470024E1,1.216400027E0,5.880599976E0,1.727221471E1
4.979693376E0,1.124800014E1,2.554299831E0,3.332099915E0,1.200603368E1
4.989693376E0,6.404999733E0,3.575500011E0,6.688999534E-1,7.365843404E0
4.999693376E0,2.481199980E0,4.394700050E0,-1.317399979E0,5.215868535E0
5.009693376E0,-1.199499965E0,4.985599995E0,-2.751099825E0,5.819240304E0
5.019693376E0,-4.598799706E0,5.031799793E0,-3.366099834E0,7.602538786E0
5.029693376E0,-7.726999760E0,4.374799728E0,-3.401700020E0,9.508783359E0
5.039693376E0,-1.029010010E1,3.282500029E0,-2.840699911E0,1.116828288E1
5.049693376E0,-1.220829964E1,2.274499893E0,-1.888599992E0,1.256115997E1
5.059693376E0,-1.334209919E1,1.754899979E0,-1.101699948E0,1.350203790E1
5.069693376E0,-1.356159973E1,1.497599959E0,-1.044099927E0,1.368392990E1
5.079701189E0,-1.302279949E1,1.790199995E0,-1.111699939E0,1.319219464E1
5.089693376E0,-1.212809944E1,2.209800005E0,-1.027899981E0,1.237055336E1
5.099693376E0,-1.087869930E1,2.553400040E0,-7.365999818E-1,1.119859499E1
5.109693376E0,-9.537099838E0,2.924000025E0,-1.464999914E-1,9.976347614E0
5.119693376E0,-8.554399490E0,3.016199827E0,4.251999855E-1,9.080529008E0
5.129709001E0,-8.089799881E0,2.885099888E0,3.028999865E-1,8.594208043E0
5.139693376E0,-8.028699875E0,2.899899960E0,-4.490999877E-1,8.548165432E0
5.149693376E0,-7.820999622E0,2.827899933E0,-1.626599908E0,8.474130066E0
5.159693376E0,-7.623699665E0,2.789499998E0,-2.793699980E0,8.585270316E0
5.169693376E0,-7.721799850E0,2.862699986E0,-3.609999895E0,8.991848719E0
5.179704314E0,-8.126199722E0,2.879499912E0,-3.803299904E0,9.422936476E0
5.189693376E0,-8.601799965E0,2.752799988E0,-3.458199978E0,9.670988445E0
5.199693376E0,-9.059499741E0,2.661000013E0,-2.987799883E0,9.903656131E0
5.209693376E0,-9.488699913E0,2.664799929E0,-2.269199848E0,1.011364685E1
5.219693376E0,-9.878499985E0,2.686899900E0,-1.740199924E0,1.038424233E1
5.229694939E0,-1.019889927E1,2.639199972E0,-1.622499943E0,1.065905384E1
5.239693376E0,-1.060639954E1,2.650099993E0,-1.731699944E0,1.106876352E1
5.249693376E0,-1.095389938E1,2.573400021E0,-2.261299849E0,1.147709791E1
5.259693376E0,-1.087899971E1,2.478299856E0,-2.931299925E0,1.153633929E1
5.269693376E0,-1.019670010E1,2.453899860E0,-3.197899818E0,1.096452829E1
5.279696501E0,-8.800099373E0,2.070499897E0,-2.775399923E0,9.456826293E0
5.289693376E0,-6.511699677E0,1.261799932E0,-1.764199972E0,6.863437425E0
5.299693376E0,-3.163300037E0,2.159999907E-1,-5.762999654E-1,3.222614586E0
5.309693376E0,8.728999496E-1,-1.036800027E0,4.794999957E-1,1.437646989E0
5.319693376E0,5.852599621E0,-2.329200029E0,1.197000027E0,6.411778549E0
5.329696501E0,1.264820004E1,-3.835599899E0,1.898199916E0,1.335260101E1
5.339693376E0,2.060249901E1,-5.615399837E0,2.215499878E0,2.146867766E1
5.349693376E0,2.830299950E1,-7.304100037E0,1.724299908E0,2.928110087E1
5.359693376E0,3.288420105E1,-8.092399597E0,1.491899967E0,3.389813233E1
5.369693376E0,3.374519730E1,-8.082900047E0,1.878799915E0,3.475056119E1
5.379705876E0,3.096339989E1,-8.005999565E0,3.034399986E0,3.212531315E1
5.389693376E0,2.712969971E1,-7.950500011E0,4.331699848E0,2.860060629E1
5.399693376E0,2.356099892E1,-7.961599827E0,5.442599773E0,2.545839025E1
5.409693376E0,2.036619949E1,-7.833599567E0,6.307999611E0,2.271427355E1
5.419693376E0,1.664360046E1,-7.445999622E0,5.916899681E0,1.916929964E1
5.429701189E0,1.209019947E1,-6.328700066E0,3.807199955E0,1.416757351E1
5.439693376E0,7.098399639E0,-4.334399700E0,8.912000060E-1,8.364719699E0
5.449693376E0,2.962999821E0,-1.898699999E0,-1.742699981E0,3.927013222E0
5.459693376E0,-3.455999792E-1,5.109999776E-1,-3.616499901E0,3.668737093E0
5.469693376E0,-3.006000042E0,2.023999929E0,-4.356400013E0,5.666642131E0
5.479702751E0,-6.012099743E0,2.484699965E0,-4.246099949E0,7.768425967E0
5.489693376E0,-9.562500000E0,2.040199995E0,-4.036900043E0,1.057829779E1
5.499693376E0,-1.274489975E1,1.274899960E0,-3.682399988E0,1.332733691E1
5.509693376E0,-1.490009975E1,3.933999836E-1,-2.854699850E0,1.517620003E1
5.519693376E0,-1.590819931E1,-1.363999993E-1,-1.629099965E0,1.599197852E1
5.529705876E0,-1.584609985E1,-1.392000020E-1,-4.319999814E-1,1.585259856E1
5.539693376E0,-1.486929989E1,4.100000020E-3,2.189999968E-1,1.487091312E1
5.549693376E0,-1.351609993E1,3.502999842E-1,9.899999946E-2,1.352100101E1
5.559693376E0,-1.185470009E1,7.267999649E-1,-7.705999613E-1,1.190193164E1
5.569693376E0,-9.915399551E0,1.342700005E0,-1.546700001E0,1.012473567E1
5.579702751E0,-8.111800194E0,1.924199939E0,-2.352699995E0,8.662508012E0
5.589693376E0,-7.083499908E0,2.382499933E0,-3.069799900E0,8.079353211E0
5.599693376E0,-6.802899837E0,2.797899961E0,-3.568899870E0,8.175863054E0
5.609693376E0,-7.122399807E0,2.996399879E0,-3.647599936E0,8.544704590E0
5.619693376E0,-7.514699936E0,2.961499929E0,-3.251699924E0,8.707166552E0
5.629693376E0,-7.859499931E0,2.798799992E0,-2.635299921E0,8.749275755E0
5.639693376E0,-8.037899971E0,2.727799892E0,-2.007299900E0,8.722269262E0
5.649693376E0,-8.176499367E0,2.701299906E0,-1.577700019E0,8.754501723E0
5.659693376E0,-8.481399536E0,2.679899931E0,-1.445799947E0,9.011455999E0
5.669693376E0,-8.766399384E0,2.625000000E0,-1.509299994E0,9.274608866E0
5.679693376E0,-8.992899895E0,2.557499886E0,-1.438499928E0,9.459510358E0
5.689693376E0,-9.072799683E0,2.477799892E0,-1.308099985E0,9.495594345E0
5.699693376E0,-9.153100014E0,2.366099834E0,-1.286299944E0,9.541081481E0
5.709693376E0,-9.341400146E0,2.223099947E0,-1.168099999E0,9.673075399E0
5.719693376E0,-9.245499611E0,2.049099922E0,-1.100199938E0,9.533546740E0
5.729693376E0,-9.042200089E0,1.834800005E0,-8.332999945E-1,9.264030569E0
5.739693376E0,-8.760700226E0,1.365700006E0,-7.202999592E-1,8.895720150E0
5.749693376E0,-7.820699692E0,9.511999488E-1,-1.002399921E0,7.941846801E0
5.759693376E0,-5.338799953E0,2.547000051E-1,-1.421999931E0,5.530799295E0
5.769693376E0,-1.266999960E0,-2.985999882E-1,-1.414999962E0,1.922674113E0
5.779693376E0,4.178100109E0,-8.883000016E-1,-8.597999811E-1,4.357161165E0
5.789693376E0,1.042579937E1,-2.171299934E0,-1.942999959E-1,1.065127168E1
5.799693376E0,1.696369934E1,-3.812699795E0,8.854999542E-1,1.740941944E1
5.809693376E0,2.300860023E1,-5.281699657E0,2.612099886E0,2.375110738E1
5.819705876E0,2.812290001E1,-5.835899830E0,4.740799904E0,2.911065811E1
5.829693376E0,3.247459793E1,-5.328399658E0,6.973999977E0,3.363967939E1
5.839693376E0,3.400079727E1,-4.169499874E0,8.138699532E0,3.520905245E1
5.849693376E0,3.262849808E1,-3.528299809E0,7.257699966E0,3.361163482E1
5.859693376E0,2.977890015E1,-3.490799904E0,5.543399811E0,3.049094717E1
5.869702751E0,2.567049980E1,-4.085299969E0,4.571399689E0,2.639245974E1
5.879693376E0,2.068939972E1,-5.051399708E0,4.604000092E0,2.178909628E1
5.889693376E0,1.491729927E1,-5.716300011E0,4.703799725E0,1.665315691E1
5.899693376E0,8.954199791E0,-5.996900082E0,3.741999865E0,1.140802645E1
5.909693376E0,4.045899868E0,-5.592000008E0,1.978799939E0,7.180210236E0
5.919702751E0,1.418000013E-1,-4.017899990E0,-1.988999993E-1,4.025318469E0
5.929693376E0,-2.327499866E0,-1.741199970E0,-2.062000036E0,3.563828996E0
5.939693376E0,-4.127599716E0,7.955999970E-1,-3.035599947E0,5.185067580E0
5.949693376E0,-6.072999954E0,2.759199858E0,-3.238999844E0,7.415229753E0
5.959693376E0,-8.056599617E0,3.886999846E0,-2.925199986E0,9.411395228E0
5.969699626E0,-9.912399292E0,4.208799839E0,-2.543200016E0,1.106514899E1
5.979693376E0,-1.096389961E1,3.726300001E0,-2.198199987E0,1.178662333E1
5.989693376E0,-1.138770008E1,3.307699919E0,-1.976899981E0,1.202201004E1
5.999693376E0,-1.132189941E1,3.004499912E0,-1.946199894E0,1.187434714E1
6.009693376E0,-1.101319981E1,2.500999928E0,-1.976399899E0,1.146523995E1
6.019704314E0,-1.092369938E1,1.832999945E0,-2.121700048E0,1.127779713E1
6.029693376E0,-1.114099979E1,1.247900009E0,-2.042599916E0,1.139523344E1
6.039693376E0,-1.133909988E1,1.017099977E0,-1.887699962E0,1.154006454E1
6.049693376E0,-1.147669983E1,9.995999932E-1,-1.687699914E0,1.164311686E1
6.059693376E0,-1.144479942E1,1.228600025E0,-1.448599935E0,1.160135051E1
6.069696501E0,-1.111559963E1,1.596599936E0,-9.649999738E-1,1.127106523E1
6.079693376E0,-1.042119980E1,1.875299931E0,-3.710999787E-1,1.059508708E1
6.089693376E0,-9.450900078E0,2.128999949E0,1.289999951E-2,9.687740679E0
6.099693376E0,-8.401999474E0,2.428900003E0,-1.164999977E-1,8.746812141E0
6.109693376E0,-7.772999763E0,2.526199818E0,-9.519000053E-1,8.228446054E0
6.119698064E0,-7.887499809E0,2.655599833E0,-2.000000000E0,8.559489688E0
6.129693376E0,-8.641300201E0,2.806799889E0,-2.701599836E0,9.478862614E0
6.139693376E0,-9.133799553E0,2.789399862E0,-2.871899843E0,9.972705479E0
6.149693376E0,-9.284999847E0,2.726599932E0,-2.650799990E0,1.003355919E1
6.159693376E0,-9.241099358E0,2.669499874E0,-2.093400002E0,9.844108415E0
6.169704314E0,-9.256799698E0,2.499199867E0,-1.419999957E0,9.692819017E0
6.179693376E0,-9.390600204E0,2.273499966E0,-1.057500005E0,9.719592613E0
6.189693376E0,-9.563699722E0,1.993299961E0,-8.508999944E-1,9.806203542E0
6.199693376E0,-9.481900215E0,1.737699986E0,-6.809999943E-1,9.663839502E0
6.209693376E0,-9.458999634E0,1.409699917E0,-8.773999810E-1,9.603632576E0
6.219699626E0,-8.926599503E0,7.753999829E-1,-1.326499939E0,9.057870936E0
6.229693376E0,-7.305699825E0,-3.150999844E-1,-1.578799963E0,7.480985714E0
6.239693376E0,-4.732800007E0,-1.510499954E0,-1.089499950E0,5.086060967E0
6.249693376E0,-7.655000091E-1,-2.626999855E0,-3.403999805E-1,2.757352108E0
6.259693376E0,4.900499821E0,-3.404999971E0,9.399999976E-1,6.040904178E0
6.269704314E0,1.069619942E1,-4.012700081E0,1.803499937E0,1.156559795E1
6.279693376E0,1.727899933E1,-4.357999802E0,2.135200024E0,1.794756416E1
6.289693376E0,2.350189972E1,-4.708799839E0,2.323099852E0,2.408129729E1
6.299693376E0,2.886559868E1,-4.441999912E0,2.782799959E0,2.933765713E1
6.309693376E0,3.321220016E1,-3.624499798E0,3.113799810E0,3.355417989E1
6.319699626E0,3.568510056E1,-2.978099823E0,3.231299877E0,3.595464892E1
6.329693376E0,3.589799881E1,-2.312700033E0,3.031899929E0,3.609996284E1
6.339693376E0,3.334759903E1,-1.992999911E0,3.183699846E0,3.355846174E1
6.349693376E0,2.925939941E1,-2.205899954E0,3.837099791E0,2.959225884E1
6.359693376E0,2.413589859E1,-2.696399927E0,4.427700043E0,2.468636670E1
6.369699626E0,1.844159889E1,-2.990499973E0,4.443599701E0,1.920367772E1
6.379693376E0,1.189519978E1,-2.545199871E0,3.774899960E0,1.273670639E1
6.389693376E0,5.774199963E0,-1.435199976E0,1.992499948E0,6.274650605E0
6.399693376E0,6.873999834E-1,-5.529999733E-2,-2.294999957E-1,7.268060779E-1
6.409693376E0,-3.160399914E0,1.308599949E0,-2.340899944E0,4.144921470E0
6.419694939E0,-6.752299786E0,2.393699884E0,-3.948899984E0,8.180291108E0
6.429693376E0,-9.726999283E0,2.780599833E0,-4.354199886E0,1.101386885E1
6.439693376E0,-1.217309952E1,2.545500040E0,-3.255199909E0,1.285535876E1
6.449693376E0,-1.425659943E1,1.847899914E0,-1.638799906E0,1.446896770E1
6.459693376E0,-1.586839962E1,1.054899931E0,-3.358999789E-1,1.590697172E1
6.469696501E0,-1.691919899E1,3.606999815E-1,2.877999842E-1,1.692549047E1
6.479693376E0,-1.701659966E1,-3.240000010E-1,-1.365000010E-1,1.702023126E1
6.489693376E0,-1.586639977E1,-6.299999952E-1,-1.446799994E0,1.594467848E1
6.499693376E0,-1.410689926E1,-5.248999596E-1,-2.899799824E0,1.441141790E1
6.509693376E0,-1.182749939E1,-2.018999904E-1,-4.265699863E0,1.257484396E1
6.519693376E0,-9.951099396E0,2.603999972E-1,-4.856299877E0,1.107591242E1
6.529693376E0,-8.565500259E0,7.968999743E-1,-4.776899815E0,9.839797564E0
6.539693376E0,-7.640699863E0,1.295199990E0,-4.330899715E0,8.877754770E0
6.549693376E0,-7.127099991E0,1.751999974E0,-3.684099913E0,8.212043007E0
6.559693376E0,-6.690899849E0,2.175099850E0,-2.793900013E0,7.570011719E0
6.569693376E0,-6.372099876E0,2.265399933E0,-1.867499948E0,7.015928288E0
6.579693376E0,-6.603199959E0,2.153800011E0,-1.089299917E0,7.030482095E0
6.589693376E0,-7.218299866E0,1.848699927E0,-5.353999734E-1,7.470488438E0
6.599693376E0,-7.991399765E0,1.481299996E0,-7.580000162E-2,8.127881983E0
6.609707439E0,-8.588699341E0,1.187199950E0,-1.093999967E-1,8.671053480E0
6.619693376E0,-9.167499542E0,9.103999734E-1,-3.082999885E-1,9.217750531E0
6.629693376E0,-9.845799446E0,7.401999831E-1,-5.958999991E-1,9.891549907E0
6.639693376E0,-1.033850002E1,7.865999937E-1,-9.732999802E-1,1.041396347E1
6.649693376E0,-1.046899986E1,8.557999730E-1,-1.537699938E0,1.061587833E1
6.659693376E0,-1.030589962E1,8.394999504E-1,-2.004999876E0,1.053263270E1
6.669693376E0,-1.005469990E1,8.933999538E-1,-2.203699827E0,1.033205916E1
6.679693376E0,-1.006799984E1,8.378999829E-1,-2.376099825E0,1.037846557E1
6.689693376E0,-1.022809982E1,6.313999891E-1,-2.644399881E0,1.058326711E1
6.699693376E0,-9.936699867E0,1.477999985E-1,-2.771199942E0,1.031694714E1
6.709707439E0,-8.399999619E0,-6.667999625E-1,-2.766599894E0,8.868973489E0
6.719693376E0,-5.196399689E0,-1.826799989E0,-2.583199978E0,6.083805557E0
6.729693376E0,-2.976000011E-1,-2.934899807E0,-2.078899860E0,3.608881720E0
6.739693376E0,7.589900017E0,-4.240099907E0,-5.938000083E-1,8.714219870E0
6.749693376E0,1.726149940E1,-5.181799889E0,1.424700022E0,1.807872180E1
6.759698064E0,2.546419907E1,-5.134099960E0,3.377499819E0,2.619526525E1
6.769693376E0,2.881509972E1,-3.887599945E0,3.567600012E0,2.929421743E1
6.779693376E0,2.812369919E1,-2.492899895E0,2.886999846E0,2.838118697E1
6.789693376E0,2.630869865E1,-3.046099901E0,3.820099831E0,2.675854092E1
6.799693376E0,2.498119926E1,-4.923399925E0,5.451799870E0,2.603886144E1
6.809699626E0,2.434280014E1,-5.727799892E0,5.704999924E0,2.565008059E1
6.819693376E0,2.412139893E1,-5.225899696E0,4.133599758E0,2.502475895E1
6.829693376E0,2.350219917E1,-3.635399818E0,1.569899917E0,2.383346562E1
6.839693376E0,2.128699875E1,-1.611599922E0,-1.325199962E0,2.138900944E1
6.849693376E0,1.745439911E1,2.100999951E-1,-3.980299950E0,1.790371408E1
6.859698064E0,1.319999981E1,1.262300014E0,-5.390799999E0,1.431412313E1
6.869693376E0,9.219599724E0,1.746999979E0,-5.204799652E0,1.073046911E1
6.879693376E0,4.885600090E0,1.966699958E0,-4.292399883E0,6.794239746E0
6.889693376E0,2.764999866E-1,1.891899943E0,-2.512199879E0,3.157037515E0
6.899693376E0,-3.852199793E0,1.742599964E0,-3.041999936E-1,4.238942736E0
6.909705876E0,-7.088099957E0,1.622599959E0,1.844199896E0,7.501670806E0
6.919693376E0,-9.754799843E0,1.534500003E0,3.750599861E0,1.056303979E1
6.929693376E0,-1.198979950E1,1.231699944E0,4.564799786E0,1.288835808E1
6.939693376E0,-1.389169979E1,6.438999772E-1,4.033599854E0,1.447977410E1
6.949693376E0,-1.492099953E1,2.567999959E-1,2.662600040E0,1.515887899E1
6.959699626E0,-1.444009972E1,2.750000060E-1,8.982999921E-1,1.447062707E1
6.969693376E0,-1.309630013E1,6.105999947E-1,-8.539999723E-1,1.313831136E1
6.979693376E0,-1.183189964E1,7.143999934E-1,-2.585899830E0,1.213223370E1
6.989693376E0,-1.091179943E1,6.177999973E-1,-3.849200010E0,1.158729409E1
6.999693376E0,-1.011979961E1,7.039999962E-1,-4.207399845E0,1.098217527E1
7.009704314E0,-9.121699333E0,7.322999835E-1,-4.029599667E0,9.998966720E0
7.019693376E0,-8.436800003E0,7.604999542E-1,-3.774099827E0,9.273714680E0
7.029693376E0,-8.340099335E0,8.529999852E-1,-3.004199982E0,8.905620889E0
7.039693376E0,-8.675000191E0,6.451999545E-1,-1.678599954E0,8.859436161E0
7.049693376E0,-9.166899681E0,4.129999876E-1,-1.494999975E-1,9.177416249E0
7.059698064E0,-9.795899391E0,3.051999807E-1,1.601400018E0,9.930623038E0
7.069693376E0,-1.047369957E1,1.577000022E-1,3.158999920E0,1.094086525E1
7.079693376E0,-1.099399948E1,-4.509999976E-2,4.098000050E0,1.173301594E1
7.089693376E0,-1.132739925E1,-1.726000011E-1,4.091199875E0,1.204481968E1
7.099693376E0,-1.118909931E1,-5.460000038E-2,3.062199831E0,1.160068931E1
7.109702751E0,-1.051939964E1,2.509000003E-1,1.478999972E0,1.062582517E1
7.119693376E0,-9.762700081E0,6.211999655E-1,-2.155999988E-1,9.784819141E0
7.129693376E0,-9.387399673E0,8.241999745E-1,-1.786799908E0,9.591414501E0
7.139693376E0,-9.552199364E0,9.117999673E-1,-2.873899937E0,1.001674561E1
7.149693376E0,-9.776599884E0,9.420999885E-1,-3.223899841E0,1.033745558E1
7.159701189E0,-9.717100143E0,5.256999731E-1,-2.879699945E0,1.014845148E1
7.169693376E0,-8.863499641E0,-2.364999950E-1,-1.703599930E0,9.028832198E0
7.179693376E0,-6.940499783E0,-1.013000011E0,-8.223999739E-1,7.062085242E0
7.189693376E0,-3.564599991E0,-1.461099982E0,-5.102999806E-1,3.886076726E0
7.199693376E0,1.304199934E0,-1.457099915E0,-4.154999852E-1,1.999179298E0
7.209696501E0,8.167200089E0,-9.490999579E-1,2.578999996E-1,8.226205713E0
7.219693376E0,1.693630028E1,-7.836999893E-1,8.856999874E-1,1.697754155E1
7.229693376E0,2.553159904E1,-5.895999670E-1,1.749799967E0,2.559828076E1
7.239693376E0,3.245909882E1,-1.307999939E-1,1.723099947E0,3.250506542E1
7.249693376E0,3.596889877E1,2.584999800E-1,6.814999580E-1,3.597628307E1
7.259693376E0,3.680400085E1,-2.899000049E-1,1.697999984E-1,3.680553427E1
7.269693376E0,3.513109970E1,-1.437099934E0,1.463699937E0,3.519093406E1
7.279693376E0,3.185389900E1,-2.858999968E0,2.836999893E0,3.210752764E1
7.289693376E0,2.710209846E1,-4.443900108E0,3.037299871E0,2.763145273E1
7.299693376E0,2.130990028E1,-5.560599804E0,2.052299976E0,2.211886198E1
7.309693376E0,1.506809998E1,-5.881399632E0,4.880999923E-1,1.618260610E1
7.319693376E0,9.663700104E0,-5.437399864E0,-1.676800013E0,1.121445831E1
7.329693376E0,4.852399826E0,-4.459799767E0,-3.782799959E0,7.599024514E0
7.339693376E0,1.143599987E0,-3.053900003E0,-4.811299801E0,5.812291453E0
7.349693376E0,-1.924899936E0,-1.688099980E0,-4.275399685E0,4.983368717E0
7.359693376E0,-4.854799747E0,-4.210000038E-1,-2.120100021E0,5.314239898E0
7.369693376E0,-7.597199917E0,6.514999866E-1,3.950999975E-1,7.635312883E0
7.379693376E0,-1.012300014E1,1.712399960E0,2.682899952E0,1.061156905E1
7.389693376E0,-1.172589970E1,2.514299870E0,3.827799797E0,1.258850582E1
7.399709001E0,-1.239659977E1,2.788800001E0,3.380299807E0,1.314836560E1
7.409693376E0,-1.257699966E1,2.707399845E0,1.808200002E0,1.299155579E1
7.419693376E0,-1.251279926E1,2.532799959E0,-3.319000006E-1,1.277088010E1
7.429693376E0,-1.213539982E1,2.345499992E0,-2.400099993E0,1.259086093E1
7.439693376E0,-1.144460011E1,2.245199919E0,-3.934999943E0,1.230869688E1
7.449701189E0,-1.067579937E1,2.231600046E0,-4.930699825E0,1.196931626E1
7.459693376E0,-1.002509975E1,2.263999939E0,-5.213699818E0,1.152436491E1
7.469693376E0,-9.502499580E0,2.193899870E0,-4.738299847E0,1.084260948E1
7.479693376E0,-9.235199928E0,2.158900023E0,-3.488499880E0,1.010541431E1
7.489693376E0,-8.830699921E0,2.151499987E0,-1.929199934E0,9.291502874E0
7.499704314E0,-8.573200226E0,2.299499989E0,-2.671000063E-1,8.880248010E0
7.509693376E0,-8.590899467E0,2.373899937E0,1.263299942E0,9.001937642E0
7.519693376E0,-8.687899590E0,2.421299934E0,2.446300030E0,9.344874343E0
7.529693376E0,-8.677800179E0,2.521699905E0,2.996199846E0,9.520525189E0
7.539693376E0,-8.668299675E0,2.548199892E0,2.902099848E0,9.489727366E0
7.549704314E0,-8.885199547E0,2.460399866E0,2.303699970E0,9.503019101E0
7.559693376E0,-9.328499794E0,2.189100027E0,1.439899921E0,9.689498394E0
7.569693376E0,-9.615300179E0,1.816699982E0,6.572999954E-1,9.807468564E0
7.579693376E0,-9.853399277E0,1.304999948E0,6.329999864E-2,9.939643306E0
7.589693376E0,-1.021910000E1,1.155399919E0,-1.979999989E-1,1.028611480E1
7.599699626E0,-1.023099995E1,1.234200001E0,-5.742999911E-1,1.032116418E1
7.609693376E0,-9.919099808E0,1.378999949E0,-1.174199939E0,1.008310108E1
7.619693376E0,-9.684499741E0,1.467000008E0,-1.760599971E0,9.951951392E0
7.629693376E0,-9.499599457E0,1.240299940E0,-2.313099861E0,9.855514433E0
7.639693376E0,-9.295700073E0,1.155900002E0,-2.519000053E0,9.700077625E0
7.649701189E0,-8.965099335E0,9.302999973E-1,-2.499399900E0,9.353366454E0
7.659693376E0,-7.987699986E0,2.320999950E-1,-2.449599981E0,8.358095569E0
7.669693376E0,-5.784899712E0,-1.230899930E0,-2.132299900E0,6.287040812E0
7.679693376E0,-2.944299936E0,-2.814899921E0,-1.578599930E0,4.368585746E0
7.689693376E0,1.290300012E0,-4.489399910E0,-3.297999799E-1,4.682772010E0
7.699698064E0,6.871899605E0,-5.275300026E0,2.251499891E0,8.951036046E0
7.709693376E0,1.429349995E1,-4.488800049E0,4.403199673E0,1.561542936E1
7.719693376E0,2.227149963E1,-2.880199909E0,4.537699699E0,2.291082639E1
7.729694939E0,2.836100006E1,-1.630800009E0,2.822299957E0,2.854770061E1
7.739693376E0,3.250589752E1,-1.189399958E0,2.022999972E-1,3.252827956E1
7.749705876E0,3.411179733E1,-2.552799940E0,-9.143999815E-1,3.421940432E1
7.759693376E0,3.367979813E1,-3.875799894E0,-1.093999967E-1,3.390225059E1
7.769693376E0,3.197979927E1,-4.532199860E0,1.700599909E0,3.234409431E1
7.779693376E0,2.975059891E1,-4.570300102E0,3.680399895E0,3.032377156E1
7.789693376E0,2.632569885E1,-3.869699955E0,5.276099682E0,2.712663314E1
7.799705876E0,2.151759911E1,-3.274299860E0,5.571700096E0,2.246713050E1
7.809693376E0,1.572839928E1,-2.856899977E0,4.169600010E0,1.652059277E1
7.819693376E0,1.019539928E1,-2.211799860E0,1.621899962E0,1.055787785E1
7.829693376E0,5.105899811E0,-1.143199921E0,-1.216799974E0,5.371938301E0
7.839693376E0,1.047600031E0,1.504999995E-1,-3.460500002E0,3.618725789E0
7.849702751E0,-2.235599995E0,1.452799916E0,-4.632800102E0,5.345219520E0
7.859693376E0,-5.186699867E0,2.393199921E0,-4.446899891E0,7.239073146E0
7.869693376E0,-7.776700020E0,2.610100031E0,-3.179299831E0,8.797592443E0
7.879693376E0,-1.040769958E1,2.227999926E0,-1.198099971E0,1.071072537E1
7.889693376E0,-1.236279964E1,1.495100021E0,4.511999786E-1,1.246104813E1
7.899696501E0,-1.349359989E1,7.726999521E-1,1.116599917E0,1.356175131E1
7.909693376E0,-1.414239979E1,1.740999967E-1,5.914999843E-1,1.415583466E1
7.919693376E0,-1.452530003E1,-2.399999946E-1,-5.708999634E-1,1.453849606E1
7.929693376E0,-1.444649982E1,-4.363999963E-1,-1.666399956E0,1.454883813E1
7.939693376E0,-1.377859974E1,-2.141999900E-1,-2.474900007E0,1.400074364E1
7.949696501E0,-1.255109978E1,1.027999967E-1,-3.182899952E0,1.294880402E1
7.959693376E0,-1.128380013E1,5.992999673E-1,-3.695799828E0,1.188874434E1
7.969693376E0,-1.006509972E1,1.152099967E0,-4.017600060E0,1.089837955E1
7.979693376E0,-9.179599762E0,1.568799973E0,-4.259599686E0,1.024062374E1
7.989693376E0,-8.755399704E0,1.725899935E0,-4.188199997E0,9.857828046E0
7.999702751E0,-8.891200066E0,1.796700001E0,-3.705099821E0,9.798435293E0
8.009693376E0,-9.478799820E0,1.889400005E0,-2.840800047E0,1.007410658E1
8.019693376E0,-9.949299812E0,1.947600007E0,-1.721899986E0,1.028331912E1
8.029693376E0,-1.027299976E1,2.072299957E0,-5.340999961E-1,1.049353201E1
8.039693376E0,-1.039099979E1,2.106600046E0,3.005999923E-1,1.060664890E1
8.049699626E0,-1.007779980E1,2.060299873E0,2.816999853E-1,1.029010395E1
8.059693376E0,-9.421799660E0,2.040699959E0,-2.946999967E-1,9.644771290E0
8.069693376E0,-8.825799942E0,1.947099924E0,-8.265999556E-1,9.075748466E0
8.079693376E0,-8.613599777E0,1.669799924E0,-1.235399961E0,8.860504837E0
8.089693376E0,-8.873199463E0,1.237100005E0,-1.553699970E0,9.092748140E0
8.099705876E0,-9.221599579E0,9.466999769E-1,-1.344099998E0,9.367002960E0
8.109693376E0,-9.159999847E0,7.111999989E-1,-8.637999892E-1,9.228085016E0
8.119693376E0,-8.680699348E0,4.479999840E-1,-7.033999562E-1,8.720666068E0
8.129693376E0,-8.182700157E0,1.054999977E-1,-1.009199977E0,8.245374261E0
8.139693376E0,-7.419499874E0,-4.526000023E-1,-1.407599926E0,7.565392435E0
8.149698064E0,-5.283299923E0,-1.663899899E0,-1.526399970E0,5.745582461E0
8.159693376E0,-2.166599989E0,-3.306499958E0,-7.148999572E-1,4.017235297E0
8.169693376E0,2.539099932E0,-5.027199745E0,1.417299986E0,5.807624729E0
8.179693376E0,9.326899529E0,-6.251499653E0,3.631899834E0,1.180097450E1
8.189693376E0,1.624749947E1,-6.766699791E0,5.223899841E0,1.835915560E1
8.199693376E0,2.171309853E1,-6.487599850E0,5.099299908E0,2.322822548E1
8.209693376E0,2.328909874E1,-4.913799763E0,3.417999983E0,2.404600325E1
8.219693376E0,2.210849953E1,-3.187899828E0,1.436699986E0,2.238330993E1
8.229693376E0,2.191539955E1,-3.103899956E0,-1.279999912E-1,2.213448252E1
8.239693376E0,2.406559944E1,-3.805199862E0,-2.474999875E-1,2.436583425E1
8.249696501E0,2.743419838E1,-3.275599957E0,1.121500015E0,2.765180931E1
8.259693376E0,3.002079964E1,-2.031800032E0,1.934199929E0,3.015157959E1
8.269693376E0,3.089989853E1,-8.607999682E-1,1.599799991E0,3.095325614E1
8.279693376E0,2.897739983E1,6.489999592E-2,5.131999850E-1,2.898201661E1
8.289693376E0,2.354299927E1,4.319999814E-1,-9.718999863E-1,2.356701144E1
8.299693376E0,1.601000023E1,2.621999979E-1,-2.474699974E0,1.620225281E1
8.309693376E0,8.394000053E0,4.789999872E-2,-3.367300034E0,9.044348557E0
8.319693376E0,2.298799992E0,-1.849000007E-1,-3.641299963E0,4.310189652E0
8.329693376E0,-2.920399904E0,-2.210999876E-1,-3.261600018E0,4.383566525E0
8.339705876E0,-7.038399696E0,-1.506000012E-1,-2.133399963E0,7.356163813E0
8.349693376E0,-1.006579971E1,-1.099999994E-2,-3.601999879E-1,1.007224845E1
8.359693376E0,-1.216029930E1,-1.350999922E-1,1.379999995E0,1.223909846E1
8.369693376E0,-1.359630013E1,-1.606999934E-1,2.748499870E0,1.387225480E1
8.379693376E0,-1.456939983E1,3.247999847E-1,3.520599842E0,1.499224899E1
8.389704314E0,-1.489239979E1,7.416999936E-1,3.146199942E0,1.523916876E1
8.399693376E0,-1.418309975E1,1.212999940E0,1.906399965E0,1.436196533E1
8.409693376E0,-1.303079987E1,1.595999956E0,2.440999895E-1,1.313044347E1
8.419693376E0,-1.172089958E1,1.934299946E0,-1.308099985E0,1.195123964E1
8.429693376E0,-1.052890015E1,2.094599962E0,-2.749799967E0,1.108180884E1
8.439707439E0,-9.759599686E0,2.101500034E0,-3.728399992E0,1.065678445E1
8.449693376E0,-9.354399681E0,2.080699921E0,-4.313999653E0,1.050926727E1
8.459693376E0,-9.038599968E0,2.042899847E0,-4.506899834E0,1.030445900E1
8.469693376E0,-8.753199577E0,1.990199924E0,-4.207200050E0,9.913623497E0
8.479693376E0,-8.595999718E0,1.815699935E0,-3.307099819E0,9.387485639E0
8.489704314E0,-8.655300140E0,1.705500007E0,-2.043999910E0,9.055434083E0
8.499693376E0,-8.754400253E0,1.718599916E0,-9.099999666E-1,8.967787319E0
8.509693376E0,-8.873700142E0,1.775900006E0,-4.271000028E-1,9.059734513E0
8.519693376E0,-9.219200134E0,1.837700009E0,-4.870999753E-1,9.413185371E0
8.529693376E0,-9.810599327E0,1.982399940E0,-9.329999685E-1,1.005227624E1
8.539696501E0,-1.042239952E1,2.053499937E0,-1.162999988E0,1.068624549E1
8.549693376E0,-1.087790012E1,1.964199901E0,-1.156599998E0,1.111415835E1
8.559693376E0,-1.135339928E1,1.950799942E0,-7.890999913E-1,1.154677333E1
8.569693376E0,-1.152460003E1,2.073299885E0,-6.529999971E-1,1.172780402E1
8.579693376E0,-1.099899960E1,2.040799856E0,-1.366500020E0,1.126987926E1
8.589705876E0,-1.001169968E1,1.883199930E0,-2.634500027E0,1.052241240E1
8.599693376E0,-9.269499779E0,1.598899961E0,-3.792799950E0,1.014226004E1
8.609693376E0,-9.107899666E0,1.384099960E0,-4.006199837E0,1.004585517E1
8.619693376E0,-8.776899338E0,9.509999752E-1,-2.089099884E0,9.072083623E0
8.629693376E0,-6.181200027E0,-3.709999919E-1,1.098799944E0,6.289056852E0
8.639702751E0,-1.914699912E0,-1.481299996E0,4.389800072E0,5.013049980E0
8.649693376E0,5.515699863E0,-2.660199881E0,6.819599628E0,9.165508577E0
8.659693376E0,1.596569920E1,-3.418099880E0,7.276599884E0,1.787556610E1
8.669693376E0,2.558090019E1,-3.688699961E0,4.365999699E0,2.621165610E1
8.679693376E0,3.010799980E1,-3.181299925E0,-7.426999807E-1,3.028471437E1
8.689705876E0,2.866289902E1,-1.749399900E0,-3.889999866E0,2.897851409E1
8.699693376E0,2.525139999E1,-1.056299925E0,-3.960500002E0,2.558191806E1
8.709693376E0,2.366609955E1,-2.342499971E0,-1.263999939E0,2.381531587E1
8.719693376E0,2.431699944E1,-4.276400089E0,2.746199846E0,2.484241681E1
8.729693376E0,2.552909851E1,-5.257299900E0,5.700699806E0,2.668093048E1
8.739698064E0,2.589849854E1,-5.301499844E0,7.020400047E0,2.735185814E1
8.749693376E0,2.438360023E1,-4.626699924E0,6.734499931E0,2.571613894E1
8.759693376E0,2.078719902E1,-3.643299818E0,5.444200039E0,2.179496710E1
8.769693376E0,1.596299934E1,-2.596099854E0,3.741899967E0,1.659996680E1
8.779693376E0,1.078489971E1,-1.620499969E0,2.149199963E0,1.111571601E1
8.789701189E0,5.321799755E0,-7.247999907E-1,6.674999595E-1,5.412249427E0
8.799693376E0,3.393999934E-1,3.720000014E-2,-5.795999765E-1,6.726903659E-1
8.809693376E0,-3.837199926E0,7.132999897E-1,-1.583899975E0,4.212082535E0
8.819693376E0,-6.952600002E0,1.182199955E0,-2.190299988E0,7.384690756E0
8.829693376E0,-9.467700005E0,1.552399993E0,-2.093499899E0,9.819879375E0
8.839705876E0,-1.113809967E1,1.715699911E0,-1.467499971E0,1.136461379E1
8.849693376E0,-1.195419979E1,1.642300010E0,-9.289999604E-1,1.210219331E1
8.859693376E0,-1.218149948E1,1.488299966E0,-8.302999735E-1,1.230013677E1
8.869693376E0,-1.205569935E1,1.467399955E0,-1.318400025E0,1.221602751E1
8.879693376E0,-1.178329945E1,1.527999997E0,-2.109200001E0,1.206771124E1
8.889696501E0,-1.153109932E1,1.589999914E0,-2.770999908E0,1.196548335E1
8.899693376E0,-1.105410004E1,1.643700004E0,-3.128399849E0,1.160524722E1
8.909693376E0,-1.054799938E1,1.511899948E0,-3.077699900E0,1.109136462E1
8.919693376E0,-1.022789955E1,1.280900002E0,-2.619099855E0,1.063533347E1
8.929693376E0,-1.025010014E1,1.095799923E0,-2.214299917E0,1.054364521E1
8.939698064E0,-1.058500004E1,1.004400015E0,-2.052799940E0,1.082889804E1
8.949693376E0,-1.093889999E1,7.601000071E-1,-2.235399961E0,1.119081311E1
8.959693376E0,-1.128319931E1,4.712999761E-1,-2.565399885E0,1.158075934E1
8.969693376E0,-1.156919956E1,1.202999949E-1,-3.105999947E0,1.197948606E1
8.979693376E0,-1.198349953E1,-2.897000015E-1,-3.675499916E0,1.253784218E1
8.989696501E0,-1.258500004E1,-4.212999940E-1,-3.719999790E0,1.313004639E1
8.999693376E0,-1.288319969E1,-1.983999908E-1,-3.176899910E0,1.327060247E1
9.009693376E0,-1.238719940E1,1.684999913E-1,-2.383100033E0,1.261547728E1
9.019693376E0,-1.121339989E1,7.886999846E-1,-1.368299961E0,1.132407301E1
9.029693376E0,-9.851999283E0,1.323799968E0,-5.026000142E-1,9.953237815E0
9.039693376E0,-8.509099960E0,1.714899898E0,-1.759999990E-2,8.680205847E0
9.049693376E0,-7.616600037E0,1.795300007E0,-1.630000025E-2,7.825341138E0
9.059693376E0,-7.145899773E0,1.774799943E0,-5.572000146E-1,7.384055136E0
9.069693376E0,-7.391599655E0,1.572799921E0,-1.252499938E0,7.660169786E0
9.079693376E0,-8.060199738E0,1.014599919E0,-1.513799906E0,8.263644654E0
9.089698064E0,-8.259200096E0,4.314000010E-1,-1.463299990E0,8.398912968E0
9.099693376E0,-7.546199799E0,-1.661999971E-1,-1.523800015E0,7.700306509E0
9.109693376E0,-5.677199841E0,-1.030499935E0,-1.610700011E0,5.990566140E0
9.119693376E0,-2.853899956E0,-2.052999973E0,-7.775999904E-1,3.600585451E0
9.129693376E0,1.429099917E0,-3.384500027E0,1.047299981E0,3.820209975E0
9.139693376E0,7.252699852E0,-4.835400105E0,3.077800035E0,9.244219944E0
9.149693376E0,1.501999950E1,-6.241999626E0,5.010200024E0,1.701954902E1
9.159693376E0,2.335039902E1,-7.378999710E0,5.162799835E0,2.502689100E1
9.169693376E0,3.001829910E1,-7.512199879E0,4.429999828E0,3.125949978E1
9.179693376E0,3.358039856E1,-7.063899994E0,3.389599800E0,3.448233225E1
9.189693376E0,3.470100021E1,-6.356199741E0,3.546799898E0,3.545617690E1
9.199693376E0,3.401670074E1,-5.599499702E0,4.058799744E0,3.471259399E1
9.209693376E0,3.167469978E1,-4.781399727E0,3.620299816E0,3.223747758E1
9.219693376E0,2.779150009E1,-4.101500034E0,2.668400049E0,2.821896771E1
9.229704314E0,2.301259995E1,-3.635699987E0,1.446200013E0,2.334286968E1
9.239693376E0,1.737709999E1,-3.236500025E0,6.329999864E-2,1.767604434E1
9.249693376E0,1.188709927E1,-2.756799936E0,-1.701200008E0,1.232059886E1
9.259693376E0,7.015999794E0,-2.073199987E0,-3.899899960E0,8.290454209E0
9.269693376E0,2.784999847E0,-7.912999988E-1,-6.195799828E0,6.838882609E0
9.279702751E0,-7.181999683E-1,8.563999534E-1,-7.594199657E0,7.676008110E0
9.289693376E0,-4.064399719E0,2.346799850E0,-7.524600029E0,8.868281694E0
9.299693376E0,-6.568799973E0,3.222899914E0,-5.925699711E0,9.415420012E0
9.309693376E0,-8.673799515E0,3.369699955E0,-3.377599955E0,9.899386711E0
9.319693376E0,-1.061559963E1,3.261999846E0,-6.286000013E-1,1.112325207E1
9.329702751E0,-1.210879993E1,2.900899887E0,2.162999868E0,1.263791219E1
9.339693376E0,-1.298469925E1,2.487900019E0,4.311299801E0,1.390609101E1
9.349693376E0,-1.366379929E1,2.262500048E0,5.286799908E0,1.482459344E1
9.359693376E0,-1.372329998E1,1.874499917E0,4.680099964E0,1.462005636E1
9.369693376E0,-1.343769932E1,1.364499927E0,3.028899908E0,1.384224901E1
9.379707439E0,-1.284569931E1,1.166299939E0,9.232999682E-1,1.293154009E1
9.389693376E0,-1.183959961E1,1.282199979E0,-1.111500025E0,1.196058477E1
9.399693376E0,-1.076299953E1,1.544399977E0,-2.784099817E0,1.122401631E1
9.409693376E0,-9.979999542E0,1.919199944E0,-3.891899824E0,1.088258258E1
9.419693376E0,-9.285799980E0,2.372999907E0,-4.459000111E0,1.057070914E1
9.429701189E0,-8.906799316E0,2.745199919E0,-4.216899872E0,1.022983095E1
9.439693376E0,-8.715700150E0,3.004499912E0,-3.335699797E0,9.803945224E0
9.449693376E0,-8.486899376E0,3.159499884E0,-1.899399996E0,9.252979027E0
9.459693376E0,-8.475199699E0,3.011499882E0,-6.029999852E-1,9.014529964E0
9.469693376E0,-8.984700203E0,2.832900047E0,1.624999940E-1,9.422131747E0
9.479696501E0,-9.769999504E0,2.811499834E0,2.757999897E-1,1.017022553E1
9.489693376E0,-1.013359928E1,2.835599899E0,1.639000028E-1,1.052413058E1
9.499693376E0,-9.859600067E0,2.831499815E0,-7.699999958E-2,1.025841282E1
9.509693376E0,-9.409199715E0,2.925499916E0,-4.711999893E-1,9.864766518E0
9.519693376E0,-9.175799370E0,2.867499828E0,-1.046700001E0,9.670234239E0
9.529699626E0,-9.179900169E0,2.595199823E0,-1.507499933E0,9.658063227E0
9.539693376E0,-9.293700218E0,2.226500034E0,-1.746699929E0,9.714994946E0
9.549693376E0,-9.074799538E0,1.863299966E0,-1.769899964E0,9.431671076E0
9.559693376E0,-8.345600128E0,1.304000020E0,-1.866999984E0,8.650730980E0
9.569693376E0,-6.713299751E0,5.514999628E-1,-1.723099947E0,6.952813760E0
9.579701189E0,-4.295499802E0,-5.981000066E-1,-1.049199939E0,4.462046915E0
9.589693376E0,-1.101300001E0,-1.737699986E0,5.112999678E-1,2.119879853E0
9.599693376E0,3.489499807E0,-2.765599966E0,2.556699991E0,5.134380870E0
9.609693376E0,1.093319988E1,-3.474799871E0,4.622900009E0,1.236852046E1
9.619693376E0,1.940449905E1,-3.924999952E0,6.348700047E0,2.079053151E1
9.629705876E0,2.737579918E1,-4.077099800E0,6.417599678E0,2.841201698E1
9.639693376E0,3.291569901E1,-4.010499954E0,5.117000103E0,3.355161756E1
9.649693376E0,3.502729797E1,-4.048299789E0,2.499599934E0,3.534895097E1
9.659693376E0,3.255769730E1,-4.013400078E0,7.337999940E-1,3.281233756E1
9.669693376E0,2.766479874E1,-4.550399780E0,1.117900014E0,2.805881194E1
9.679702751E0,2.347279930E1,-5.549299717E0,2.706300020E0,2.427119886E1
9.689693376E0,2.066479874E1,-6.480599880E0,3.854199886E0,2.199743027E1
9.699693376E0,1.865600014E1,-6.638499737E0,3.952999830E0,2.019262805E1
9.709693376E0,1.665189934E1,-5.892199993E0,2.510399818E0,1.784112888E1
9.719693376E0,1.354179955E1,-4.420000076E0,-1.127999946E-1,1.424533115E1
9.729698064E0,9.578000069E0,-2.736099958E0,-2.831199884E0,1.035567579E1
9.739693376E0,4.553499699E0,-1.092299938E0,-5.066099644E0,6.898756718E0
9.749693376E0,-7.566999793E-1,1.280999929E-1,-5.900799751E0,5.950499321E0
9.759693376E0,-5.595999718E0,9.515999556E-1,-4.759099960E0,7.407414377E0
9.769693376E0,-9.659500122E0,1.404999971E0,-2.085399866E0,9.981425756E0
9.779696501E0,-1.243729973E1,1.482399940E0,5.557999611E-1,1.253765719E1
9.789693376E0,-1.421379948E1,1.184599996E0,2.448499918E0,1.447171464E1
9.799693376E0,-1.526410007E1,8.730999827E-1,3.102299929E0,1.560061920E1
9.809693376E0,-1.554889965E1,4.601999819E-1,2.448299885E0,1.574719774E1
9.819693376E0,-1.516569996E1,1.953999996E-1,8.388999701E-1,1.519014120E1
9.829694939E0,-1.456539917E1,3.759000003E-1,-1.028800011E0,1.460652537E1
9.839693376E0,-1.351279926E1,7.277999520E-1,-2.476399899E0,1.375710701E1
9.849693376E0,-1.199849987E1,1.082800031E0,-3.533099890E0,1.255465053E1
9.859693376E0,-1.055280018E1,1.435799956E0,-4.118899822E0,1.141877615E1
9.869693376E0,-9.519899368E0,1.761699915E0,-4.282199860E0,1.058627915E1
9.879693376E0,-8.693699837E0,2.136100054E0,-4.203299999E0,9.889947986E0
9.889693376E0,-8.123199463E0,2.389199972E0,-3.886499882E0,9.316626393E0
9.899693376E0,-7.955999851E0,2.379799843E0,-3.147599936E0,8.880808875E0
9.909693376E0,-8.250899315E0,2.134500027E0,-2.195600033E0,8.800800496E0
9.919693376E0,-8.713600159E0,1.840899944E0,-1.199100018E0,8.986299638E0
9.929693376E0,-9.294199944E0,1.581699967E0,-2.456999868E-1,9.431028356E0
9.939693376E0,-9.962299347E0,1.587700009E0,3.484999835E-1,1.009404041E1
9.949693376E0,-1.082539940E1,1.704699993E0,7.400000095E-1,1.098375501E1
9.959693376E0,-1.173629951E1,1.805799961E0,1.273899913E0,1.194254834E1
9.969699626E0,-1.246939945E1,1.921399951E0,1.862599969E0,1.275331248E1
9.979693376E0,-1.268109989E1,1.708599925E0,2.051399946E0,1.295908368E1
9.989693376E0,-1.245939922E1,1.518999934E0,2.308500051E0,1.276217702E1
9.999693376E0,-1.152960014E1,1.380699992E0,2.327199936E0,1.184288274E1
1.000969338E1,-1.084280014E1,9.671999812E-1,1.535499930E0,1.099361409E1
1.001970744E1,-1.031120014E1,6.003999710E-1,-2.469999902E-2,1.032869491E1
1.002969338E1,-9.081999779E0,1.960999966E-1,-2.176199913E0,9.341146678E0
1.003969338E1,-6.519099712E0,-6.606999636E-1,-4.264999866E0,7.818274065E0
1.004969338E1,-2.927799940E0,-1.510299921E0,-5.243000031E0,6.192097194E0
1.005969338E1,2.251299858E0,-1.773799896E0,-5.151000023E0,5.894702567E0
1.006969494E1,9.353899956E0,-1.613099933E0,-4.638799667E0,1.056484728E1
1.007969338E1,1.810569954E1,-1.615999937E0,-4.573499680E0,1.874419139E1
1.008969338E1,2.696349907E1,-2.366199970E0,-4.684700012E0,2.746953947E1
1.009969338E1,3.338420105E1,-3.575099945E0,-4.342000008E0,3.385467742E1
1.010969338E1,3.652499771E1,-4.723299980E0,-3.306699991E0,3.697728066E1
1.011970275E1,3.516080093E1,-5.159299850E0,-1.986199975E0,3.559277016E1
1.012969338E1,3.132169914E1,-5.464399815E0,-1.118499994E0,3.181445497E1
1.013969338E1,2.772749901E1,-5.928899765E0,-9.800000116E-3,2.835429685E1
1.014969338E1,2.441819954E1,-6.388700008E0,2.509399891E0,2.536456277E1
1.015969338E1,2.177669907E1,-6.585799694E0,5.670499802E0,2.344678971E1
1.016970275E1,1.953849983E1,-6.329599857E0,8.064299583E0,2.206467171E1
1.017969338E1,1.698749924E1,-5.585000038E0,8.741799355E0,1.990443196E1
1.018969338E1,1.366160011E1,-4.498799801E0,7.436699867E0,1.619206664E1
1.019969338E1,8.392899513E0,-3.101799965E0,4.364200115E0,9.955308529E0
1.020969338E1,2.171000004E0,-1.523100019E0,1.068300009E0,2.859080200E0
1.021970275E1,-3.600099802E0,-2.818999887E-1,-1.372799993E0,3.863258470E0
1.022969338E1,-7.437500000E0,3.334999979E-1,-2.580799818E0,7.879603810E0
1.023969338E1,-9.663399696E0,6.868999600E-1,-2.640199900E0,1.004110456E1
1.024969338E1,-1.063059998E1,1.123999953E0,-2.068799973E0,1.088820302E1
1.025969338E1,-1.109549999E1,1.539899945E0,-1.467899919E0,1.129761666E1
1.026970275E1,-1.124549961E1,1.925799966E0,-1.203400016E0,1.147249487E1
1.027969338E1,-1.138589954E1,2.234699965E0,-1.149999976E0,1.165997823E1
1.028969338E1,-1.169489956E1,2.362699986E0,-1.108799934E0,1.198259005E1
1.029969338E1,-1.201699924E1,2.119699955E0,-9.882999659E-1,1.224247261E1
1.030969338E1,-1.238109970E1,1.830599904E0,-9.357999563E-1,1.255063534E1
1.031969963E1,-1.249139977E1,1.590199947E0,-9.335999489E-1,1.262677365E1
1.032969338E1,-1.185529995E1,1.561699986E0,-1.329299927E0,1.203137906E1
1.033969338E1,-1.082469940E1,1.767899990E0,-1.881500006E0,1.112832556E1
1.034969338E1,-9.703499794E0,2.059499979E0,-2.437000036E0,1.021461784E1
1.035969338E1,-8.865599632E0,2.401599884E0,-2.662600040E0,9.563261882E0
1.036970588E1,-8.568099976E0,2.689299822E0,-2.357899904E0,9.284630455E0
1.037969338E1,-8.576999664E0,2.731299877E0,-1.502900004E0,9.125986559E0
1.038969338E1,-8.872799873E0,2.613800049E0,-6.994999647E-1,9.276196876E0
1.039969338E1,-9.317599297E0,2.436199903E0,-1.380999982E-1,9.631811783E0
1.040969338E1,-9.724599838E0,2.112400055E0,1.819999963E-1,9.953049784E0
1.041969806E1,-1.003439999E1,1.871399999E0,4.001999795E-1,1.021525727E1
1.042969338E1,-1.026579952E1,1.804999948E0,4.281999767E-1,1.043206690E1
1.043969338E1,-1.034929943E1,1.818499923E0,1.960000023E-2,1.050786966E1
1.044969338E1,-1.022550011E1,1.855099916E0,-5.597999692E-1,1.040747924E1
1.045969338E1,-9.963399887E0,1.974299908E0,-1.159699917E0,1.022311603E1
1.046969650E1,-9.681599617E0,1.967499971E0,-1.707899928E0,1.002603358E1
1.047969338E1,-9.635899544E0,1.840499997E0,-2.096199989E0,1.003155295E1
1.048969338E1,-9.787399292E0,1.640799999E0,-2.355900049E0,1.019978797E1
1.049969338E1,-9.752799988E0,1.390799999E0,-2.340699911E0,1.012572508E1
1.050969338E1,-9.285699844E0,1.173699975E0,-2.533399820E0,9.696386331E0
1.051970900E1,-8.238699913E0,5.999999642E-1,-2.724599838E0,8.698253876E0
1.052969338E1,-5.581699848E0,-5.079999939E-2,-2.532399893E0,6.129518990E0
1.053969338E1,-1.304299951E0,-6.362000108E-1,-2.211299896E0,2.644956719E0
1.054969338E1,3.573400021E0,-1.479399920E0,-1.604499936E0,4.187150806E0
1.055969338E1,9.983200073E0,-2.720599890E0,-5.022999644E-1,1.035945234E1
1.056971838E1,1.733679962E1,-4.846099854E0,1.201499939E0,1.804142198E1
1.057969338E1,2.489909935E1,-7.126199722E0,3.702299833E0,2.616208889E1
1.058969338E1,3.061039925E1,-8.733300209E0,4.997900009E0,3.222182613E1
1.059969338E1,3.333990097E1,-9.507499695E0,4.425399780E0,3.495033205E1
1.060969338E1,3.339249802E1,-9.369999886E0,2.267699957E0,3.475626972E1
1.061969338E1,3.097349930E1,-8.857600212E0,6.836000085E-1,3.222238429E1
1.062969338E1,2.754399872E1,-7.846799850E0,8.445000052E-1,2.865235267E1
1.063969338E1,2.376149940E1,-6.317399979E0,2.071099997E0,2.467403193E1
1.064969338E1,1.976529884E1,-4.036399841E0,3.177099943E0,2.042188841E1
1.065969338E1,1.589820004E1,-1.761399984E0,2.726099968E0,1.622611831E1
1.066969338E1,1.215829945E1,7.660000026E-2,6.945999861E-1,1.217836533E1
1.067969338E1,8.268699646E0,1.518399954E0,-1.737499952E0,8.584628026E0
1.068969338E1,4.433300018E0,2.451900005E0,-3.660599947E0,6.250276367E0
1.069969338E1,4.262000024E-1,3.191999912E0,-4.423899651E0,5.471873354E0
1.070969338E1,-3.212699890E0,3.635099888E0,-3.669499874E0,6.082813585E0
1.071969338E1,-6.295899868E0,3.441699982E0,-1.885199904E0,7.418735242E0
1.072969338E1,-8.792799950E0,2.868799925E0,-4.069999978E-2,9.249054030E0
1.073969338E1,-1.128059959E1,2.321399927E0,1.481400013E0,1.161186337E1
1.074969338E1,-1.328629971E1,2.090800047E0,2.342299938E0,1.365223695E1
1.075970119E1,-1.428809929E1,1.833199978E0,2.140699863E0,1.456341304E1
1.076969338E1,-1.425519943E1,1.723099947E0,1.154500008E0,1.440529953E1
1.077969338E1,-1.351159954E1,1.988299966E0,5.779999867E-2,1.365723251E1
1.078969338E1,-1.247089958E1,2.366899967E0,-7.917000055E-1,1.271818937E1
1.079969338E1,-1.147869968E1,2.654299974E0,-1.382300019E0,1.186240313E1
1.080970119E1,-1.072249985E1,2.843400002E0,-1.647199988E0,1.121473113E1
1.081969338E1,-1.021290016E1,2.694499969E0,-1.807699919E0,1.071594321E1
1.082969338E1,-9.704400063E0,2.403199911E0,-1.880999923E0,1.017294997E1
1.083969338E1,-9.323599815E0,2.206799984E0,-1.841399908E0,9.756548227E0
1.084969338E1,-9.089399338E0,2.197499990E0,-1.798699975E0,9.522683872E0
1.085969338E1,-8.883399963E0,2.426699877E0,-1.782099962E0,9.379741333E0
1.086969338E1,-8.715899467E0,2.775899887E0,-1.701699972E0,9.304209075E0
1.087969338E1,-8.685799599E0,3.084899902E0,-1.405900002E0,9.323962510E0
1.088969338E1,-8.774600029E0,3.330499887E0,-1.028900027E0,9.441634945E0
1.089969338E1,-9.120200157E0,3.509899855E0,-7.091000080E-1,9.797972786E0
1.090970275E1,-9.585299492E0,3.759499788E0,-5.690000057E-1,1.031191379E1
1.091969338E1,-1.002239990E1,3.932499886E0,-6.128999591E-1,1.078372392E1
1.092969338E1,-1.012729931E1,4.108299732E0,-8.138999939E-1,1.095914007E1
1.093969338E1,-9.909399986E0,4.081900120E0,-9.833999872E-1,1.076221131E1
1.094969338E1,-9.496500015E0,3.734999895E0,-1.343899965E0,1.029270634E1
1.095969650E1,-9.094799995E0,3.125599861E0,-1.528599977E0,9.737626987E0
1.096969338E1,-9.086099625E0,2.089099884E0,-1.705500007E0,9.477883466E0
1.097969338E1,-8.987799644E0,1.290599942E0,-2.135200024E0,9.327661540E0
1.098969338E1,-8.268499374E0,7.030999660E-1,-1.798200011E0,8.490933679E0
1.099969338E1,-6.348399639E0,4.335999787E-1,-1.137699962E0,6.464096853E0
1.100970431E1,-3.306599855E0,9.030000120E-2,-1.730999947E-1,3.312358722E0
1.101969338E1,1.179299951E0,-1.018000007E0,8.051999807E-1,1.753687371E0
1.102969338E1,7.540999889E0,-2.627699852E0,2.145099878E0,8.268793100E0
1.103969338E1,1.607419968E1,-4.488399982E0,3.810999870E0,1.711868423E1
1.104969338E1,2.506489944E1,-6.392199993E0,5.050299644E0,2.635554840E1
1.105970119E1,3.277700043E1,-7.613399982E0,5.719500065E0,3.413221788E1
1.106969338E1,3.616629791E1,-6.955399990E0,5.383399963E0,3.722042032E1
1.107969338E1,3.487229919E1,-4.757899761E0,3.770499945E0,3.539677289E1
1.108969338E1,3.116289902E1,-3.485499859E0,2.037799835E0,3.142336094E1
1.109969338E1,2.714379883E1,-4.068999767E0,1.334100008E0,2.747949047E1
1.110970275E1,2.315810013E1,-5.986099720E0,2.136699915E0,2.401450557E1
1.111969338E1,1.937129974E1,-7.878799915E0,3.870599985E0,2.126744663E1
1.112969338E1,1.564789963E1,-8.708499908E0,4.852699757E0,1.855379822E1
1.113969338E1,1.212949944E1,-8.098500252E0,4.752199650E0,1.533929152E1
1.114969338E1,8.455900192E0,-6.487999916E0,2.830600023E0,1.102763290E1
1.115970119E1,4.900799751E0,-4.132699966E0,-1.754999906E-1,6.413099677E0
1.116969338E1,1.450500011E0,-1.524999976E0,-2.859699965E0,3.550698396E0
1.117969338E1,-1.507799983E0,8.490999937E-1,-4.703499794E0,5.011720453E0
1.118969338E1,-3.880599976E0,2.416800022E0,-5.543399811E0,7.185350373E0
1.119969338E1,-5.974699974E0,3.226799965E0,-5.340899944E0,8.639125535E0
1.120970744E1,-7.858999729E0,3.137099981E0,-4.261199951E0,9.474338925E0
1.121969338E1,-9.571199417E0,2.550799847E0,-2.807999849E0,1.029559621E1
1.122969338E1,-1.117700005E1,2.063299894E0,-1.524899960E0,1.146768749E1
1.123969338E1,-1.292809963E1,2.048099995E0,-7.058999538E-1,1.310834728E1
1.124969338E1,-1.407730007E1,2.012899876E0,-6.471999884E-1,1.423520323E1
1.125970119E1,-1.421329975E1,1.815099955E0,-9.833999872E-1,1.436243549E1
1.126969338E1,-1.344499969E1,1.485000014E0,-1.271499991E0,1.358638856E1
1.127969338E1,-1.246889973E1,1.642199993E0,-1.675399899E0,1.268768088E1
1.128969338E1,-1.142289925E1,1.938799977E0,-2.128000021E0,1.178006607E1
1.129969338E1,-1.035760021E1,2.162099838E0,-2.263399839E0,1.082023737E1
1.130970119E1,-9.421400070E0,2.295300007E0,-2.160399914E0,9.934712336E0
1.131969338E1,-8.752299309E0,2.333400011E0,-2.137199879E0,9.306724565E0
1.132969338E1,-8.457599640E0,2.353600025E0,-1.964499950E0,8.996092752E0
1.133969338E1,-8.477499962E0,2.387300014E0,-1.873999953E0,9.004392416E0
1.134969338E1,-8.683199883E0,2.477200031E0,-1.969199896E0,9.241873643E0
1.135969650E1,-8.897699356E0,2.625900030E0,-2.103999853E0,9.512687327E0
1.136969338E1,-9.023200035E0,2.804299831E0,-2.009599924E0,9.660265435E0
1.137969338E1,-8.962699890E0,2.942899942E0,-1.698399901E0,9.585155795E0
1.138969338E1,-8.784999847E0,3.011299849E0,-1.443199992E0,9.398243204E0
1.139969338E1,-8.490599632E0,3.086400032E0,-1.342499971E0,9.133370322E0
1.140969338E1,-8.315299988E0,3.017999887E0,-1.338699937E0,8.946767837E0
1.141969338E1,-8.406899452E0,2.871999979E0,-1.333599925E0,8.983475443E0
1.142969338E1,-8.539400101E0,2.728099823E0,-1.171000004E0,9.040747963E0
1.143969338E1,-8.692399979E0,2.540499926E0,-1.175499916E0,9.132018250E0
1.144969338E1,-8.816499710E0,2.212399960E0,-1.407400012E0,9.198160442E0
1.145969494E1,-8.744099617E0,1.658800006E0,-1.651999950E0,9.052071553E0
1.146969338E1,-7.924599648E0,1.201300025E0,-1.710699916E0,8.195663215E0
1.147969338E1,-5.680500031E0,8.394999504E-1,-8.653999567E-1,5.807043813E0
1.148969338E1,-2.393899918E0,5.273000002E-1,2.908999920E-1,2.468486360E0
1.149969338E1,1.365899920E0,8.529999852E-2,1.376999974E0,1.941413818E0
1.150969494E1,6.373199940E0,-1.673000008E-1,2.750099897E0,6.943249686E0
1.151969338E1,1.386269951E1,-8.736000061E-1,4.128299713E0,1.449070299E1
1.152969338E1,2.179310036E1,-2.800899982E0,5.425899982E0,2.263238066E1
1.153969338E1,2.720019913E1,-5.122499943E0,5.787600040E0,2.827697212E1
1.154969338E1,2.876749992E1,-6.643799782E0,4.939499855E0,2.993505948E1
1.155969338E1,2.771039963E1,-7.863599777E0,3.407199860E0,2.900536950E1
1.156969338E1,2.606229973E1,-8.774899483E0,2.593400002E0,2.762187632E1
1.157969338E1,2.525059891E1,-8.968999863E0,2.642099857E0,2.692612849E1
1.158969338E1,2.549479866E1,-8.064299583E0,2.337199926E0,2.684176205E1
1.159969338E1,2.527330017E1,-6.479300022E0,1.263700008E0,2.612121682E1
1.160969338E1,2.313069916E1,-4.510099888E0,-6.864999533E-1,2.357629162E1
1.161969338E1,1.882449913E1,-2.772899866E0,-2.836400032E0,1.923787687E1
1.162969338E1,1.341199970E1,-1.813199997E0,-4.576600075E0,1.428687154E1
1.163969338E1,8.003799438E0,-1.443799973E0,-5.101699829E0,9.600661694E0
1.164969963E1,2.358099937E0,-1.219200015E0,-4.514100075E0,5.236810430E0
1.165969338E1,-2.599599838E0,-9.777999520E-1,-3.274099827E0,4.293453358E0
1.166969338E1,-6.543799877E0,-5.895000100E-1,-1.830500007E0,6.820524714E0
1.167969338E1,-9.611000061E0,-1.740999967E-1,-3.449999988E-1,9.618765928E0
1.168969338E1,-1.151699924E1,2.522999942E-1,9.907999635E-1,1.156229266E1
1.169969494E1,-1.270440006E1,5.907999873E-1,2.311300039E0,1.292644319E1
1.170969338E1,-1.314489937E1,8.596999645E-1,3.218600035E0,1.356048855E1
1.171969338E1,-1.286849976E1,1.095700026E0,3.093099833E0,1.328029032E1
1.172969338E1,-1.234599972E1,1.273699999E0,1.888299942E0,1.255434974E1
1.173969338E1,-1.194069958E1,1.574800014E0,2.458999902E-1,1.204660817E1
1.174969494E1,-1.139799976E1,1.848999977E0,-1.658100009E0,1.166544020E1
1.175969338E1,-1.069849968E1,2.300199986E0,-3.148099899E0,1.138680589E1
1.176969338E1,-9.940499306E0,2.769899845E0,-4.174499989E0,1.113159116E1
1.177969338E1,-9.340700150E0,3.008100033E0,-4.992399693E0,1.101005903E1
1.178969338E1,-9.154999733E0,3.166800022E0,-5.522299767E0,1.115071465E1
1.179969806E1,-9.216799736E0,3.136999846E0,-5.510499954E0,1.118730419E1
1.180969338E1,-9.300099373E0,2.842200041E0,-4.986599922E0,1.092868374E1
1.181969338E1,-9.463299751E0,2.363399982E0,-4.077699661E0,1.057200720E1
1.182969338E1,-9.695899963E0,1.889299989E0,-3.059899807E0,1.034132087E1
1.183969338E1,-1.011479950E1,1.599399924E0,-2.132999897E0,1.046025514E1
1.184969494E1,-1.050360012E1,1.309700012E0,-1.378399968E0,1.067431104E1
1.185969338E1,-1.092129993E1,1.031099916E0,-2.924999893E-1,1.097376488E1
1.186969338E1,-1.137799931E1,7.946999669E-1,1.052299976E0,1.145415870E1
1.187969338E1,-1.169639969E1,6.230999827E-1,2.004799843E0,1.188331779E1
1.188969338E1,-1.165950012E1,5.704999566E-1,2.107300043E0,1.186212994E1
1.189969806E1,-1.129619980E1,7.374999523E-1,1.935699940E0,1.148455355E1
1.190969338E1,-1.059689999E1,9.867999554E-1,1.816699982E0,1.079668756E1
1.191969338E1,-9.650300026E0,1.277499914E0,1.684099913E0,9.879093538E0
1.192969338E1,-8.515600204E0,1.685699940E0,1.540199995E0,8.816419180E0
1.193969338E1,-7.556299686E0,2.030999899E0,1.316200018E0,7.934419199E0
1.194969963E1,-6.233299732E0,1.877799988E0,6.283999681E-1,6.540263364E0
1.195969338E1,-3.801999807E0,1.213400006E0,-1.689999998E-1,3.994509120E0
1.196969338E1,2.268999964E-1,6.989999861E-2,-3.352999985E-1,4.108475474E-1
1.197969338E1,5.520199776E0,-1.753799915E0,-1.774999946E-1,5.794818889E0
1.198969338E1,1.329430008E1,-3.867699862E0,8.256999850E-1,1.387008642E1
1.199969963E1,2.242059898E1,-6.118799686E0,2.794299841E0,2.340792772E1
1.200969338E1,3.020449829E1,-7.836299896E0,4.932699680E0,3.159194263E1
1.201969338E1,3.468689728E1,-8.194000244E0,5.903299809E0,3.612715643E1
1.202969338E1,3.424659729E1,-7.156999588E0,4.306699753E0,3.525052811E1
1.203969338E1,3.087909889E1,-6.308699608E0,1.588799953E0,3.155697584E1
1.204969806E1,2.765250015E1,-6.017600060E0,-7.987999916E-1,2.831095824E1
1.205969338E1,2.506830025E1,-6.180699825E0,-1.635299921E0,2.587073508E1
1.206969338E1,2.305990028E1,-6.666800022E0,-8.702999949E-1,2.402004675E1
1.207969338E1,2.057049942E1,-7.095599651E0,-6.979999691E-2,2.176000581E1
1.208969338E1,1.636699867E1,-6.492799759E0,4.900000058E-3,1.760781413E1
1.209969494E1,1.102969933E1,-4.895699978E0,-9.280999899E-1,1.210303743E1
1.210969338E1,4.837100029E0,-2.723899841E0,-2.741899967E0,6.191541203E0
1.211969338E1,-1.445599914E0,-4.292999804E-1,-4.893199921E0,5.120299117E0
1.212969338E1,-6.211099625E0,1.685400009E0,-6.563999653E0,9.192628742E0
1.213969338E1,-8.613299370E0,3.031899929E0,-6.499300003E0,1.120813293E1
1.214970431E1,-9.332499504E0,3.390799999E0,-4.821099758E0,1.103793796E1
1.215969338E1,-9.380099297E0,3.155499935E0,-2.801699877E0,1.028557071E1
1.216969338E1,-1.033389950E1,2.628399849E0,-1.936100006E0,1.083727124E1
1.217969338E1,-1.241799927E1,2.217099905E0,-1.881699920E0,1.275394184E1
1.218969338E1,-1.423779964E1,1.644799948E0,-1.445500016E0,1.440519961E1
1.219969806E1,-1.540899944E1,1.013599992E0,-4.337999821E-1,1.544839251E1
1.220969338E1,-1.540949917E1,6.780999899E-1,6.646999717E-1,1.543872761E1
1.221969338E1,-1.464939976E1,9.383999705E-1,1.178599954E0,1.472666308E1
1.222969494E1,-1.316679955E1,1.479900002E0,1.003600001E0,1.328766071E1
1.223969338E1,-1.130579948E1,2.217499971E0,6.567999721E-1,1.153992176E1
1.224969338E1,-9.077899933E0,3.130299807E0,1.930999905E-1,9.604391270E0
1.225969338E1,-7.408399582E0,3.820099831E0,-5.759999752E-1,8.355197368E0
1.226969338E1,-6.909699917E0,4.154200077E0,-1.324699998E0,8.170444376E0
1.227969338E1,-7.369400024E0,4.252599716E0,-1.338400006E0,8.613011996E0
1.228969338E1,-8.238100052E0,3.981199980E0,-7.592999935E-1,9.181110076E0
1.229969494E1,-9.062600136E0,3.564100027E0,-7.949999720E-2,9.738575382E0
1.230969338E1,-9.614799500E0,3.235699892E0,5.687999725E-1,1.016059332E1
1.231969338E1,-9.882899284E0,2.992799997E0,7.191999555E-1,1.035112548E1
1.232969338E1,-9.914699554E0,2.877899885E0,4.170999825E-1,1.033235440E1
1.233969338E1,-9.876899719E0,3.118099928E0,-8.109999448E-2,1.035771560E1
1.234969338E1,-9.583000183E0,3.478499889E0,-5.774999857E-1,1.021113903E1
1.235969338E1,-9.034099579E0,3.700999975E0,-9.104999900E-1,9.805170383E0
1.236969338E1,-8.781000137E0,3.545199871E0,-1.105799913E0,9.534002254E0
1.237969338E1,-9.216699600E0,2.928999901E0,-1.417599916E0,9.774261172E0
1.238969338E1,-9.821000099E0,2.424199820E0,-1.586799979E0,1.023946883E1
1.239969338E1,-9.856299400E0,1.941699982E0,-1.353399992E0,1.013649487E1
1.240969338E1,-9.320699692E0,1.341300011E0,-9.089999795E-1,9.460486744E0
1.241969338E1,-8.310999870E0,9.101999998E-1,-6.444000006E-1,8.385489505E0
1.242969338E1,-6.473499775E0,4.939000010E-1,-6.214999557E-1,6.521993464E0
1.243969963E1,-2.571799994E0,-7.029999793E-2,-3.227999806E-1,2.592932148E0
1.244969338E1,2.834300041E0,-1.243799925E0,5.699999928E-1,3.147251971E0
1.245969338E1,8.509200096E0,-2.871699810E0,2.012099981E0,9.203352238E0
1.246969338E1,1.573839951E1,-4.481899738E0,4.482299805E0,1.696689883E1
1.247969338E1,2.388699913E1,-5.648399830E0,8.001699448E0,2.581705526E1
1.248970431E1,3.094499969E1,-5.444399834E0,9.955499649E0,3.295977046E1
1.249969338E1,3.467829895E1,-4.899600029E0,8.376899719E0,3.601059493E1
1.250969338E1,3.411899948E1,-5.021899700E0,6.223999977E0,3.504374092E1
1.251969338E1,3.074860001E1,-6.686399937E0,4.270899773E0,3.175570707E1
1.252969338E1,2.684779930E1,-9.070199966E0,3.113999844E0,2.850911871E1
1.253970119E1,2.327299881E1,-1.121479988E1,2.787400007E0,2.598410685E1
1.254969338E1,2.013279915E1,-1.212889957E1,2.562899828E0,2.364335556E1
1.255969338E1,1.648229980E1,-1.106699944E1,1.843099952E0,1.993844780E1
1.256969338E1,1.241119957E1,-8.436999321E0,4.398999810E-1,1.501380512E1
1.257969338E1,7.749699593E0,-5.466300011E0,-1.545099974E0,9.608621832E0
1.258970431E1,3.278800011E0,-2.725999832E0,-3.263399839E0,5.369486298E0
1.259969338E1,-3.859999776E-1,-9.957999587E-1,-4.137899876E0,4.273503121E0
1.260969338E1,-3.794499874E0,-1.440999955E-1,-4.150000095E0,5.625077323E0
1.261969338E1,-6.814099789E0,5.012999773E-1,-3.447599888E0,7.653051848E0
1.262969338E1,-9.344900131E0,1.176299930E0,-2.651000023E0,9.784612466E0
1.263970431E1,-1.089680004E1,1.741799951E0,-1.940499902E0,1.120444814E1
1.264969338E1,-1.192019939E1,1.628999949E0,-1.607399940E0,1.213789640E1
1.265969338E1,-1.267889977E1,1.395200014E0,-1.497699976E0,1.284305990E1
1.266969338E1,-1.299370003E1,1.623299956E0,-1.789599895E0,1.321642958E1
1.267969338E1,-1.249039936E1,2.170399904E0,-2.613399982E0,1.294413270E1
1.268969963E1,-1.137580013E1,2.908499956E0,-3.465099812E0,1.224234934E1
1.269969338E1,-9.886699677E0,3.734299898E0,-4.085700035E0,1.133070038E1
1.270969338E1,-8.191999435E0,4.493000031E0,-4.512199879E0,1.037573379E1
1.271969338E1,-6.804299831E0,5.046799660E0,-4.705299854E0,9.690641347E0
1.272969338E1,-6.246099949E0,5.071000099E0,-4.587199688E0,9.261274618E0
1.273969963E1,-6.488999844E0,4.727499962E0,-4.052899837E0,8.993462734E0
1.274969338E1,-7.297199726E0,4.153899670E0,-3.026399851E0,8.925418890E0
1.275969338E1,-8.187999725E0,3.523999929E0,-1.880699992E0,9.110375814E0
1.276969338E1,-8.883999825E0,2.934999943E0,-7.260000110E-1,9.384388822E0
1.277969338E1,-9.471099854E0,2.658999920E0,1.666999906E-1,9.838689033E0
1.278969650E1,-9.820399284E0,2.592000008E0,5.866000056E-1,1.017363287E1
1.279969338E1,-1.002069950E1,2.400300026E0,6.424999833E-1,1.032417866E1
1.280969338E1,-1.038649940E1,2.297699928E0,5.534999967E-1,1.065200249E1
1.281969338E1,-1.081009960E1,2.362699986E0,6.152999997E-1,1.108238236E1
1.282969338E1,-1.089919949E1,2.499399900E0,7.919999957E-1,1.121012102E1
1.283969338E1,-1.067409992E1,2.577800035E0,7.048000097E-1,1.100355421E1
1.284969338E1,-1.023379993E1,2.446599960E0,3.543999791E-1,1.052815804E1
1.285969338E1,-9.775300026E0,2.042899847E0,2.529999986E-2,9.986519437E0
1.286969338E1,-9.817899704E0,1.040499926E0,-7.312999964E-1,9.899929009E0
1.287969338E1,-9.771999359E0,-3.316999972E-1,-1.755199909E0,9.933917811E0
1.288970119E1,-8.214599609E0,-1.758499980E0,-2.532299995E0,8.774081843E0
1.289969338E1,-4.782599926E0,-3.795699835E0,-2.845700026E0,6.736364593E0
1.290969338E1,1.073400021E0,-5.891499996E0,-2.159399986E0,6.365922408E0
1.291969338E1,8.394499779E0,-7.445499897E0,-1.827999949E-1,1.122214378E1
1.292969338E1,1.700729942E1,-8.459199905E0,2.811699867E0,1.920187368E1
1.293969963E1,2.501229858E1,-8.823100090E0,4.964799881E0,2.698353968E1
1.294969338E1,2.965089989E1,-8.104100227E0,4.838999748E0,3.111700858E1
1.295969338E1,3.024909973E1,-6.228999615E0,3.244199991E0,3.105371643E1
1.296969338E1,2.873320007E1,-4.519700050E0,1.476400018E0,2.912394602E1
1.297969338E1,2.646509933E1,-3.814399958E0,6.784999967E-1,2.674717727E1
1.298970119E1,2.474180031E1,-3.576499939E0,9.699999355E-3,2.499896255E1
1.299969338E1,2.381110001E1,-3.068699837E0,7.519999892E-2,2.400814564E1
1.300969338E1,2.310560036E1,-2.276900053E0,8.772000074E-1,2.323408104E1
1.301969338E1,2.172319984E1,-1.458199978E0,2.200700045E0,2.188302628E1
1.302969338E1,1.876039886E1,-7.881999612E-1,3.291699886E0,1.906329229E1
1.303969494E1,1.410750008E1,-1.700999886E-1,3.698299885E0,1.458519504E1
1.304969338E1,8.323699951E0,6.674999595E-1,3.308199883E0,8.981855239E0
1.305969338E1,2.264699936E0,1.338699937E0,2.185799837E0,3.420336862E0
1.306969338E1,-3.968400002E0,1.913199902E0,7.852999568E-1,4.474955693E0
1.307969806E1,-8.971899986E0,2.432999849E0,-2.969999984E-2,9.295986216E0
1.308969338E1,-1.232450008E1,2.563899994E0,-3.370999992E-1,1.259287584E1
1.309969338E1,-1.420489979E1,2.407299995E0,-2.296999991E-1,1.440926901E1
1.310969338E1,-1.517280006E1,2.410699844E0,1.338000000E-1,1.536369871E1
1.311969338E1,-1.502519989E1,2.450299978E0,4.108999968E-1,1.522922981E1
1.312969338E1,-1.437699986E1,2.153699875E0,6.709999591E-2,1.453757375E1
1.313969338E1,-1.380679989E1,1.972299933E0,-2.805999815E-1,1.394978231E1
1.314969338E1,-1.303909969E1,1.836099982E0,-1.033299923E0,1.320822065E1
1.315969338E1,-1.182789993E1,1.844099998E0,-2.392699957E0,1.220757694E1
1.316969338E1,-1.031079960E1,2.182199955E0,-3.727399826E0,1.117891294E1
1.317969806E1,-8.705499649E0,2.523099899E0,-4.822299957E0,1.026675870E1
1.318969338E1,-7.387399673E0,2.841099977E0,-5.419899940E0,9.592749261E0
1.319969338E1,-6.495399952E0,3.061699867E0,-5.406799793E0,8.988754676E0
1.320969338E1,-6.264999866E0,2.954999924E0,-4.906099796E0,8.488348667E0
1.321969338E1,-6.851999760E0,2.568300009E0,-3.996299982E0,8.337654298E0
1.322970431E1,-7.852399826E0,2.119600058E0,-2.884599924E0,8.629820633E0
1.323969338E1,-8.724800110E0,1.948399901E0,-1.852899909E0,9.129711781E0
1.324969338E1,-9.399700165E0,1.932599902E0,-1.089399934E0,9.657955155E0
1.325969338E1,-9.690299988E0,2.025899887E0,-8.381999731E-1,9.935228402E0
1.326969338E1,-9.626799583E0,2.130399942E0,-7.707999945E-1,9.889793060E0
1.327969806E1,-9.562799454E0,2.057399988E0,-9.235000014E-1,9.825114776E0
1.328969338E1,-9.646299362E0,1.999899983E0,-1.146099925E0,9.917874589E0
1.329969338E1,-9.907199860E0,1.965399981E0,-1.386500001E0,1.019498840E1
1.330969494E1,-1.004150009E1,1.876299977E0,-1.712799907E0,1.035789116E1
1.331969338E1,-1.011759949E1,1.713999987E0,-1.939000010E0,1.044333933E1
1.332969806E1,-1.016409969E1,1.558499932E0,-1.980999947E0,1.047197237E1
1.333969338E1,-1.016059971E1,1.106999993E0,-1.961699963E0,1.040728121E1
1.334969338E1,-9.998600006E0,2.513000071E-1,-2.150699854E0,1.023037945E1
1.335969338E1,-9.658399582E0,-7.397999763E-1,-2.250000000E0,9.944570704E0
1.336969338E1,-7.992799759E0,-1.836599946E0,-2.200500011E0,8.491180580E0
1.337970275E1,-3.610699892E0,-3.133899927E0,-1.982399940E0,5.175750379E0
1.338969338E1,3.161999941E0,-4.688999653E0,-7.641999722E-1,5.706922373E0
1.339969338E1,1.246239948E1,-6.491699696E0,2.013200045E0,1.419529993E1
1.340969338E1,2.247119904E1,-7.064299583E0,6.105199814E0,2.433377446E1
1.341969338E1,2.859679985E1,-6.010599613E0,8.189499855E0,3.034752341E1
1.342970431E1,3.027960014E1,-3.973299980E0,6.979899883E0,3.132667074E1
1.343969338E1,2.836279869E1,-2.723599911E0,5.049900055E0,2.893730873E1
1.344969338E1,2.546819878E1,-3.317999840E0,4.266099930E0,2.603531986E1
1.345969338E1,2.372599983E1,-5.347199917E0,4.311299801E0,2.470026156E1
1.346969338E1,2.332779884E1,-6.575199604E0,4.992799759E0,2.474565615E1
1.347970431E1,2.362989998E1,-6.087699890E0,5.599999905E0,2.503581958E1
1.348969338E1,2.339669991E1,-4.644000053E0,5.151999950E0,2.440318435E1
1.349969338E1,2.163579941E1,-2.608299971E0,4.054899693E0,2.216648949E1
1.350969338E1,1.826630020E1,-1.118999958E0,2.177700043E0,1.842965712E1
1.351969338E1,1.327600002E1,1.039999947E-1,-8.262000084E-1,1.330209003E1
1.352969494E1,7.438999653E0,1.292599916E0,-3.528299809E0,8.334172420E0
1.353969338E1,1.824799895E0,2.141599894E0,-5.424999714E0,6.111216463E0
1.354969338E1,-2.672199965E0,2.547799826E0,-6.386799812E0,7.377204650E0
1.355969338E1,-5.796099663E0,2.688699961E0,-6.301300049E0,8.973865448E0
1.356969338E1,-8.115099907E0,2.569000006E0,-5.393499851E0,1.007692652E1
1.357970275E1,-9.717499733E0,2.257499933E0,-4.223400116E0,1.083343046E1
1.358969338E1,-1.107450008E1,1.858799934E0,-3.195499897E0,1.167522629E1
1.359969338E1,-1.250049973E1,1.389799953E0,-2.367599964E0,1.279842048E1
1.360969338E1,-1.429759979E1,8.036999702E-1,-1.666499972E0,1.441681364E1
1.361969338E1,-1.563840008E1,6.524999738E-1,-8.747999668E-1,1.567643417E1
1.362970588E1,-1.605749893E1,7.182999849E-1,3.649999946E-2,1.607359820E1
1.363969338E1,-1.555639935E1,8.941999674E-1,5.611000061E-1,1.559217712E1
1.364969338E1,-1.446859932E1,1.198699951E0,8.442999721E-1,1.454269887E1
1.365969338E1,-1.306820011E1,1.527400017E0,4.881999791E-1,1.316621222E1
1.366969338E1,-1.176589966E1,1.687500000E0,-5.467000008E-1,1.189886263E1
1.367970431E1,-1.048169994E1,1.929999948E0,-2.044800043E0,1.085228735E1
1.368969338E1,-9.440599442E0,2.096099854E0,-3.599399805E0,1.031863515E1
1.369969338E1,-8.525699615E0,2.185400009E0,-4.736099720E0,9.994706984E0
1.370969338E1,-7.717799664E0,2.473000050E0,-4.912399769E0,9.476910487E0
1.371969338E1,-7.174099922E0,2.840499878E0,-4.362800121E0,8.863981845E0
1.372970119E1,-6.747799873E0,3.235800028E0,-3.500000000E0,8.261549791E0
1.373969338E1,-6.449899673E0,3.682799816E0,-2.461199999E0,7.824431335E0
1.374969338E1,-6.252399921E0,3.919399977E0,-1.403999925E0,7.511685346E0
1.375969338E1,-6.351999760E0,3.900499821E0,-9.601999521E-1,7.515569423E0
1.376969338E1,-6.826699734E0,3.712799788E0,-1.174099922E0,7.859212565E0
1.377969650E1,-7.412099838E0,3.434599876E0,-1.632200003E0,8.330652866E0
1.378969338E1,-8.048799515E0,2.932499886E0,-2.311899900E0,8.872858072E0
1.379969338E1,-8.706199646E0,2.162499905E0,-2.948299885E0,9.442816864E0
1.380969338E1,-8.951099396E0,1.526799917E0,-3.196899891E0,9.626705942E0
1.381969338E1,-8.487500191E0,1.290899992E0,-3.253399849E0,9.180887367E0
1.382970119E1,-6.707999706E0,9.274999499E-1,-3.426599979E0,7.589407331E0
1.383969338E1,-3.223199844E0,-3.691000044E-1,-2.966300011E0,4.395928548E0
1.384969338E1,4.747999907E-1,-2.218199968E0,-2.219499826E0,3.173645476E0
1.385969338E1,3.709299803E0,-4.247200012E0,-6.236999631E-1,5.673324829E0
1.386969338E1,6.648599625E0,-5.959399700E0,2.051699877E0,9.161211390E0
1.387969338E1,9.669099808E0,-6.881099701E0,5.286799908E0,1.299196973E1
1.388969338E1,1.309899998E1,-6.902699947E0,7.424799919E0,1.656377737E1
1.389969338E1,1.832359886E1,-6.410500050E0,7.719799995E0,2.089124453E1
1.390969338E1,2.520339966E1,-6.101299763E0,7.154799938E0,2.690034155E1
1.391969338E1,3.166419983E1,-6.330800056E0,6.058599949E0,3.285433325E1
1.392969338E1,3.619979858E1,-6.656599998E0,4.752099991E0,3.711223781E1
1.393969338E1,3.661840057E1,-6.151000023E0,4.261799812E0,3.737519230E1
1.394969338E1,3.210509872E1,-4.568699837E0,3.615999937E0,3.262952402E1
1.395969338E1,2.495839882E1,-2.520799875E0,1.931099892E0,2.515959559E1
1.396969338E1,1.763319969E1,-7.278999686E-1,-8.959999681E-2,1.764844463E1
1.397969338E1,1.084859943E1,7.565000057E-1,-1.678200006E0,1.100367017E1
1.398969338E1,5.959499836E0,1.524500012E0,-2.247799873E0,6.549224599E0
1.399969338E1,2.572899818E0,1.748999953E0,-2.142199993E0,3.777278799E0
1.400969338E1,-2.440999895E-1,1.856399894E0,-1.907099962E0,2.672608396E0
1.401970744E1,-3.511899948E0,2.153499842E0,-1.735099912E0,4.470075449E0
1.402970275E1,-6.818199635E0,2.326200008E0,-1.598799944E0,7.379377616E0
1.403969338E1,-9.652999878E0,2.182899952E0,-1.353600025E0,9.988878409E0
1.404969338E1,-1.191009998E1,1.934499979E0,-6.604999900E-1,1.208424727E1
1.405969338E1,-1.345359993E1,1.543799996E0,-4.099999741E-2,1.354194781E1
1.406970119E1,-1.426359940E1,1.092399955E0,1.897999942E-1,1.430662886E1
1.407969338E1,-1.433829975E1,9.280999899E-1,-2.710999846E-1,1.437086304E1
1.408969338E1,-1.406909943E1,8.660999537E-1,-1.135999918E0,1.414143499E1
1.409969338E1,-1.346539974E1,8.969999552E-1,-2.152099848E0,1.366576499E1
1.410969338E1,-1.275500011E1,9.957000017E-1,-2.888599873E0,1.311584750E1
1.411970588E1,-1.191259956E1,1.214299917E0,-3.095499992E0,1.236796963E1
1.412969338E1,-1.091389942E1,1.576999903E0,-2.666599989E0,1.134508196E1
1.413969338E1,-9.757899284E0,1.891099930E0,-2.103800058E0,1.015966693E1
1.414969338E1,-8.630999565E0,2.140899897E0,-1.742900014E0,9.061749628E0
1.415969338E1,-7.582999706E0,2.535300016E0,-1.732800007E0,8.181211804E0
1.416969963E1,-6.869299889E0,2.861999989E0,-2.066400051E0,7.723233394E0
1.417969338E1,-6.529399872E0,2.969599962E0,-2.275699854E0,7.525317033E0
1.418969338E1,-6.661799908E0,2.894899845E0,-1.929699898E0,7.515568163E0
1.419969338E1,-7.363999844E0,2.715199947E0,-1.524199963E0,7.995247962E0
1.420969338E1,-8.331199646E0,2.559599876E0,-1.152099967E0,8.791346507E0
1.421970744E1,-9.239500046E0,2.235199928E0,-7.130999565E-1,9.532732628E0
1.422969338E1,-9.803799629E0,1.835199952E0,-4.806999862E-1,9.985665652E0
1.423969338E1,-1.016119957E1,1.451299906E0,-3.545999825E-1,1.027044251E1
1.424969338E1,-1.041979980E1,1.026199937E0,-3.208000064E-1,1.047512420E1
1.425969338E1,-1.027569962E1,6.412000060E-1,-6.116999984E-1,1.031384104E1
1.426969963E1,-9.689799309E0,4.452999830E-1,-1.145299911E0,9.767405726E0
1.427969338E1,-8.790499687E0,1.829999983E-1,-1.505499959E0,8.920364560E0
1.428969338E1,-7.332399845E0,-6.268999577E-1,-1.899299979E0,7.600291538E0
1.429969338E1,-5.129099846E0,-1.696499944E0,-2.512699842E0,5.958140464E0
1.430969338E1,-3.270699978E0,-2.788800001E0,-2.529899836E0,4.987512102E0
1.431970119E1,-1.923999906E0,-3.715600014E0,-1.801999927E0,4.555728573E0
1.432969338E1,-5.674999952E-1,-4.105999947E0,-2.991999984E-1,4.155816700E0
1.433969338E1,1.839999914E0,-4.578199863E0,1.352699995E0,5.116181286E0
1.434969338E1,5.966599941E0,-5.210599899E0,2.620699883E0,8.343784156E0
1.435969338E1,1.241039944E1,-5.448800087E0,3.464299917E0,1.398959651E1
1.436969963E1,2.033689880E1,-4.724100113E0,4.776700020E0,2.141782991E1
1.437969338E1,2.822690010E1,-3.597599983E0,5.323499680E0,2.894892509E1
1.438969338E1,3.591349792E1,-3.087699890E0,4.688600063E0,3.634963816E1
1.439969338E1,4.050049973E1,-2.904000044E0,4.164400101E0,4.081747080E1
1.440969338E1,3.986669922E1,-2.271699905E0,3.910199881E0,4.012236272E1
1.441970588E1,3.554159927E1,-1.526799917E0,2.842099905E0,3.568772799E1
1.442969338E1,2.901719856E1,-8.521999717E-1,1.796299934E0,2.908523252E1
1.443969338E1,2.194209862E1,-4.544000030E-1,1.867100000E0,2.202608076E1
1.444969338E1,1.528909969E1,-2.745999992E-1,2.072999954E0,1.543143880E1
1.445969338E1,9.462599754E0,-6.449999660E-2,2.190599918E0,9.713067608E0
1.446970275E1,4.729300022E0,2.965999842E-1,2.231799841E0,5.237860325E0
1.447969338E1,5.202000141E-1,5.995999575E-1,1.885199904E0,2.045508945E0
1.448969338E1,-3.165999889E0,7.917999625E-1,1.082399964E0,3.438326942E0
1.449969338E1,-6.587100029E0,9.357999563E-1,9.919999540E-2,6.653979936E0
1.450969650E1,-9.352700233E0,8.932999969E-1,-1.036199927E0,9.452232373E0
1.451969806E1,-1.159219933E1,6.588999629E-1,-2.030499935E0,1.178711858E1
1.452969338E1,-1.287469959E1,4.535000026E-1,-2.519799948E0,1.312680249E1
1.453969338E1,-1.314969921E1,4.976999760E-1,-2.474200010E0,1.338969605E1
1.454969338E1,-1.256209946E1,7.037999630E-1,-2.448999882E0,1.281792797E1
1.455969338E1,-1.185599995E1,1.005699992E0,-2.385599852E0,1.213537201E1
1.456970119E1,-1.145339966E1,8.833000064E-1,-2.640399933E0,1.178695442E1
1.457969338E1,-1.155109978E1,4.179999828E-1,-3.230899811E0,1.200172253E1
1.458969338E1,-1.203219986E1,-1.428999901E-1,-4.161999702E0,1.273249761E1
1.459969338E1,-1.217210007E1,-5.156999826E-1,-4.873799801E0,1.312173354E1
1.460969338E1,-1.166959953E1,-6.872999668E-1,-4.985199928E0,1.270842842E1
1.461970588E1,-1.084009933E1,-6.491000056E-1,-4.754899979E0,1.185487909E1
1.462969338E1,-1.008109951E1,-3.625999987E-1,-4.242799759E0,1.094355499E1
1.463969338E1,-9.310299873E0,-2.622999847E-1,-3.542099953E0,9.964785853E0
1.464969338E1,-8.821100235E0,-2.149000019E-1,-2.894799948E0,9.286434090E0
1.465969338E1,-8.643099785E0,-1.463000029E-1,-2.283900023E0,8.940960625E0
1.466970275E1,-8.855599403E0,-1.582999974E-1,-1.811999917E0,9.040466989E0
1.467969338E1,-9.430299759E0,-1.149999946E-1,-1.580999970E0,9.562601082E0
1.468969338E1,-1.001469994E1,-6.459999830E-2,-1.469099998E0,1.012208688E1
1.469969338E1,-1.047209930E1,-1.379999984E-2,-1.127699971E0,1.053265216E1
1.470969338E1,-1.059709930E1,3.819999844E-2,-7.297999859E-1,1.062226816E1
1.471970431E1,-1.044909954E1,1.389999986E-1,-3.804999888E-1,1.045694900E1
1.472969338E1,-1.035199928E1,-9.589999914E-2,-3.638999760E-1,1.035883725E1
1.473969338E1,-1.029529953E1,-3.441999853E-1,-4.977999926E-1,1.031307281E1
1.474969338E1,-1.029759979E1,-2.207999974E-1,-8.463000059E-1,1.033467647E1
1.475969338E1,-1.031809998E1,-7.710000128E-2,-1.506999969E0,1.042785598E1
1.476969650E1,-1.019979954E1,-1.194999963E-1,-2.471899986E0,1.049573630E1
1.477969338E1,-9.668099403E0,1.529999916E-2,-3.054199934E0,1.013905900E1
1.478969338E1,-8.439299583E0,1.812999994E-1,-3.493399858E0,9.135561817E0
1.479969338E1,-5.809400082E0,2.002999932E-1,-3.669399977E0,6.874135988E0
1.480969338E1,-2.289599895E0,-4.624999762E-1,-3.899799824E0,4.545834640E0
1.481969338E1,3.423799992E0,-6.789999604E-1,-3.848500013E0,5.195613504E0
1.482969338E1,1.084809971E1,-8.786999583E-1,-3.112399817E0,1.131991226E1
1.483969338E1,2.027649879E1,-1.685699940E0,-1.987399936E0,2.044328120E1
1.484969338E1,2.921949959E1,-2.971199989E0,4.928999841E-1,2.937431082E1
1.485969338E1,3.358169937E1,-4.104199886E0,5.008399963E0,3.420027865E1
1.486969338E1,3.312519836E1,-4.065000057E0,9.155099869E0,3.460663008E1
1.487969338E1,3.040349960E1,-4.099199772E0,1.112659931E1,3.263399208E1
1.488969338E1,2.685769844E1,-3.940699816E0,1.096990013E1,2.927804279E1
1.489969338E1,2.329979897E1,-2.808899879E0,9.508799553E0,2.532168674E1
1.490969338E1,2.082299995E1,-1.421199918E0,7.488999844E0,2.217436031E1
1.491969338E1,1.955010033E1,-6.064999700E-1,5.608299732E0,2.034766058E1
1.492969338E1,1.771430016E1,-1.599999964E-1,3.835899830E0,1.812556641E1
1.493969338E1,1.484579945E1,4.980999827E-1,1.722899914E0,1.495373695E1
1.494969338E1,1.142719936E1,1.386799932E0,-7.188000083E-1,1.153346317E1
1.495970588E1,7.743999958E0,2.154299974E0,-2.839399815E0,8.524830499E0
1.496969338E1,4.011799812E0,2.632400036E0,-4.189300060E0,6.369796125E0
1.497969338E1,-4.399999976E-3,2.887899876E0,-4.534299850E0,5.375859018E0
1.498969338E1,-3.618099928E0,2.725999832E0,-3.914799929E0,5.987268213E0
1.499969338E1,-6.839200020E0,2.344199896E0,-2.730499983E0,7.728231377E0
1.500969806E1,-9.393799782E0,1.880399942E0,-1.505299926E0,9.697695920E0
1.501969338E1,-1.140079975E1,1.325899959E0,-2.599999905E-1,1.148058560E1
1.502969338E1,-1.263549995E1,8.201999664E-1,5.791000128E-1,1.267532816E1
1.503969338E1,-1.317589951E1,5.740000010E-1,7.856000066E-1,1.321177396E1
1.504969338E1,-1.296219921E1,4.430999756E-1,3.849999905E-1,1.297548346E1
1.505969650E1,-1.233710003E1,5.550999641E-1,-3.024999797E-1,1.235328618E1
1.506969338E1,-1.160470009E1,5.832999945E-1,-1.140599966E0,1.167519898E1
1.507969338E1,-1.122649956E1,4.640999734E-1,-1.617900014E0,1.135197258E1
1.508969338E1,-1.103549957E1,9.789999574E-2,-1.667899966E0,1.116126003E1
1.509969338E1,-1.093229961E1,-3.069999814E-1,-1.562399983E0,1.104764760E1
1.510970900E1,-1.079899979E1,-4.379999936E-1,-1.514299989E0,1.091344789E1
1.511969338E1,-1.049510002E1,-4.663999975E-1,-1.672999978E0,1.063783730E1
1.512969338E1,-1.044379997E1,-3.935999870E-1,-1.939399958E0,1.062963551E1
1.513969338E1,-1.054739952E1,-1.196999997E-1,-1.931899905E0,1.072353496E1
1.514969338E1,-1.059089947E1,2.667999864E-1,-1.625599980E0,1.071825121E1
1.515969650E1,-1.047699928E1,6.956999898E-1,-1.133199930E0,1.056104420E1
1.516969338E1,-1.032409954E1,9.954999685E-1,-5.112000108E-1,1.038457399E1
1.517969338E1,-1.016199970E1,1.259999990E0,-8.479999751E-2,1.024016743E1
1.518969338E1,-9.951700211E0,1.337700009E0,2.029999942E-1,1.004325582E1
1.519969181E1,-1.009499931E1,1.096199989E0,-1.235999987E-1,1.015509441E1
1.520969963E1,-1.032769966E1,1.004500031E0,-7.883999944E-1,1.040634303E1
1.521969338E1,-1.054199982E1,7.236999869E-1,-1.659299970E0,1.069629741E1
1.522969338E1,-1.061999989E1,2.391999960E-1,-2.743499994E0,1.097125364E1
1.523969338E1,-1.058969975E1,-1.000999957E-1,-4.006199837E0,1.132260561E1
1.524969338E1,-9.891799927E0,3.709999844E-2,-5.033999920E0,1.109910976E1
1.525970744E1,-8.350299835E0,-3.463000059E-1,-5.704799652E0,1.011890163E1
1.526969338E1,-5.299499989E0,-1.406000018E0,-5.196199894E0,7.553941323E0
1.527969338E1,-1.466099977E0,-2.528399944E0,-3.882699966E0,4.859795721E0
1.528969338E1,3.513599873E0,-3.088500023E0,-2.540899992E0,5.323569219E0
1.529969338E1,1.134630013E1,-3.268499851E0,-1.478999972E0,1.189996045E1
1.530969806E1,1.957769966E1,-4.047999859E0,-6.234999895E-1,2.000153442E1
1.531969338E1,2.717899895E1,-5.263199806E0,4.026999772E-1,2.768684567E1
1.532969338E1,3.178929901E1,-5.821399689E0,2.104199886E0,3.238635335E1
1.533969338E1,3.313840103E1,-5.637700081E0,3.667999983E0,3.381407265E1
1.534969338E1,3.068859863E1,-4.795099735E0,5.101099968E0,3.147704383E1
1.535969494E1,2.680149841E1,-3.769500017E0,6.442199707E0,2.782141953E1
1.536969338E1,2.339609909E1,-3.236799955E0,7.469899654E0,2.477203519E1
1.537969338E1,2.155949974E1,-2.942699909E0,8.665699959E0,2.342148304E1
1.538969338E1,2.096870041E1,-2.787799835E0,9.370599747E0,2.313582426E1
1.539969338E1,2.034049988E1,-2.074499846E0,8.015899658E0,2.196119606E1
1.540970119E1,1.802569962E1,-7.392999530E-1,4.976900101E0,1.871475209E1
1.541969338E1,1.428679943E1,4.957000017E-1,1.365499973E0,1.436046471E1
1.542969338E1,8.621999741E0,1.534299970E0,-2.277600050E0,9.048779913E0
1.543969338E1,2.403800011E0,2.405299902E0,-4.926899910E0,5.986490193E0
1.544969338E1,-3.061599970E0,2.797499895E0,-5.853299618E0,7.173598571E0
1.545969963E1,-7.105399609E0,2.371099949E0,-5.181600094E0,9.108117154E0
1.546969338E1,-9.824299812E0,1.740199924E0,-3.373899937E0,1.053225348E1
1.547969338E1,-1.221840000E1,1.122799993E0,-6.157999635E-1,1.228532409E1
1.548969338E1,-1.439589977E1,4.702999890E-1,1.985799909E0,1.453982509E1
1.549969338E1,-1.633659935E1,-1.175999939E-1,3.782999992E0,1.676929924E1
1.550970119E1,-1.741239929E1,-5.163999796E-1,4.119499683E0,1.790051942E1
1.551969338E1,-1.718129921E1,-6.485999823E-1,3.234299898E0,1.749509704E1
1.552969338E1,-1.540749931E1,-3.506000042E-1,1.375000000E0,1.547270437E1
1.553969338E1,-1.321990013E1,2.363999933E-1,-3.061999977E-1,1.322555870E1
1.554969338E1,-1.086499977E1,8.579999804E-1,-1.936100006E0,1.106945650E1
1.555969650E1,-8.785399437E0,1.415300012E0,-3.250900030E0,9.473894046E0
1.556969338E1,-7.227499962E0,1.839699984E0,-4.437900066E0,8.678491155E0
1.557969338E1,-6.378399849E0,2.251800060E0,-5.176499844E0,8.517672145E0
1.558969338E1,-6.218599796E0,2.541800022E0,-5.460799694E0,8.657486014E0
1.559969338E1,-6.590399742E0,2.592499971E0,-5.265199661E0,8.824780583E0
1.560969650E1,-7.326900005E0,2.665199995E0,-4.408800125E0,8.956800391E0
1.561969338E1,-7.837899685E0,2.685499907E0,-3.331899881E0,8.930069319E0
1.562969338E1,-7.968099594E0,2.542700052E0,-2.623800039E0,8.765857707E0
1.563969338E1,-8.158499718E0,2.352999926E0,-2.171200037E0,8.764236184E0
1.564969338E1,-8.261599541E0,2.282699823E0,-1.750099897E0,8.748005207E0
1.565969806E1,-8.335999489E0,2.028300047E0,-1.244300008E0,8.668977510E0
1.566969338E1,-8.586999893E0,1.696399927E0,-1.070899963E0,8.818229222E0
1.567969338E1,-9.220499992E0,1.432899952E0,-1.074499965E0,9.392836236E0
1.568969338E1,-9.873600006E0,1.132099986E0,-1.044999957E0,9.993080224E0
1.569969338E1,-1.045739937E1,6.425999999E-1,-1.196799994E0,1.054525801E1
1.570970431E1,-1.102019978E1,9.769999981E-2,-1.469299912E0,1.111814691E1
1.571969338E1,-1.113980007E1,-3.509999812E-2,-1.517199993E0,1.124269867E1
1.572969338E1,-1.061079979E1,1.395999938E-1,-9.426999688E-1,1.065350851E1
1.573969338E1,-9.257299423E0,1.508999914E-1,-6.058999896E-1,9.278333806E0
1.574969338E1,-7.148299694E0,-2.313999981E-1,-8.526999950E-1,7.202696145E0
1.575969338E1,-4.098099709E0,-5.364999771E-1,-1.316599965E0,4.337705490E0
1.576969338E1,1.669999957E-1,-1.202999949E0,-1.490099907E0,1.922367189E0
1.577969338E1,5.401299953E0,-2.159699917E0,-1.415399909E0,5.986793952E0
1.578969338E1,1.105469990E1,-3.080299854E0,-5.911999941E-1,1.149104671E1
1.579969338E1,1.796249962E1,-3.638499975E0,9.797999859E-1,1.835347604E1
1.580969650E1,2.504959869E1,-3.728499889E0,2.551300049E0,2.545374703E1
1.581969338E1,3.077820015E1,-3.993299961E0,2.982699871E0,3.117916849E1
1.582969338E1,3.413660049E1,-4.247600079E0,2.538300037E0,3.449336990E1
1.583969338E1,3.484659958E1,-4.413199902E0,2.509799957E0,3.521449888E1
1.584969338E1,3.278969955E1,-4.230199814E0,3.438999891E0,3.323982111E1
1.585969494E1,2.908440018E1,-3.807399988E0,4.902999878E0,2.973950296E1
1.586969338E1,2.456429863E1,-3.151700020E0,6.494400024E0,2.560303130E1
1.587969338E1,2.020059967E1,-2.694399834E0,7.535199642E0,2.172793711E1
1.588969338E1,1.567049980E1,-2.698699951E0,7.926399708E0,1.776725521E1
1.589969338E1,1.119019985E1,-3.111599922E0,7.436499596E0,1.379145217E1
1.590969650E1,6.896899700E0,-3.261299849E0,6.052599907E0,9.738442782E0
1.591969338E1,2.997200012E0,-2.845999956E0,3.670199871E0,5.527503121E0
1.592969338E1,-1.036899924E0,-1.907999992E0,3.355000019E-1,2.197313286E0
1.593969338E1,-4.656399727E0,-7.178999782E-1,-2.812299967E0,5.486936294E0
1.594969338E1,-7.528899670E0,4.785999954E-1,-4.904599667E0,8.998249056E0
1.595969338E1,-9.783199310E0,1.355499983E0,-5.828499794E0,1.146820731E1
1.596969338E1,-1.130239964E1,1.859999895E0,-5.867599964E0,1.286983164E1
1.597969338E1,-1.244049931E1,2.184499979E0,-5.354700089E0,1.371899691E1
1.598969338E1,-1.302119923E1,2.356199980E0,-4.553999901E0,1.399436396E1
1.599969650E1,-1.320139980E1,2.295300007E0,-3.486799955E0,1.384569004E1
1.600969338E1,-1.301069927E1,2.048399925E0,-2.488399982E0,1.340396853E1
1.601969338E1,-1.277199936E1,1.692499995E0,-1.748699903E0,1.300178739E1
1.602969338E1,-1.247459984E1,1.464100003E0,-1.380199909E0,1.263582929E1
1.603969338E1,-1.183279991E1,1.347199917E0,-1.524199963E0,1.200638525E1
1.604969338E1,-1.083650017E1,1.286700010E0,-1.745899916E0,1.105140260E1
1.605969338E1,-9.545100212E0,1.342599988E0,-1.687899947E0,9.785730377E0
1.606969338E1,-7.968799591E0,1.670499921E0,-1.270299911E0,8.240509619E0
1.607969338E1,-6.813999653E0,2.075999975E0,-9.987999797E-1,7.192910994E0
1.608969338E1,-6.473899841E0,2.431699991E0,-9.776999950E-1,6.984299627E0
1.609969806E1,-6.792699814E0,2.486199856E0,-1.141199946E0,7.322861312E0
1.610969338E1,-7.533799648E0,2.432800055E0,-1.576200008E0,8.072240068E0
1.611969338E1,-8.317399979E0,2.376999855E0,-2.137399912E0,8.910541459E0
1.612969338E1,-8.855599403E0,2.355799913E0,-2.665599823E0,9.543419536E0
1.613969338E1,-9.159099579E0,2.380199909E0,-3.037400007E0,9.938825660E0
1.614970431E1,-9.425099373E0,2.300699949E0,-3.131500006E0,1.019470503E1
1.615969338E1,-9.772099495E0,2.027899981E0,-2.944999933E0,1.040573551E1
1.616969338E1,-1.022839928E1,1.681599975E0,-2.873399973E0,1.075659601E1
1.617969338E1,-1.058679962E1,1.441900015E0,-2.752699852E0,1.103343819E1
1.618969338E1,-1.084669971E1,1.174700022E0,-2.719699860E0,1.124400205E1
1.619969963E1,-1.085050011E1,1.060599923E0,-2.687099934E0,1.122847856E1
1.620969338E1,-1.040110016E1,1.025099993E0,-2.536900043E0,1.075497914E1
1.621969338E1,-9.204599380E0,1.049600005E0,-2.168599844E0,9.514679985E0
1.622969338E1,-7.066400051E0,5.027999878E-1,-1.558799982E0,7.253735237E0
1.623969338E1,-4.085400105E0,-1.246999949E-1,-9.750999808E-1,4.202007148E0
1.624970588E1,1.790999919E-1,-7.030000091E-1,-4.020999968E-1,8.294397068E-1
1.625969338E1,5.894000053E0,-1.740199924E0,3.628000021E-1,6.156229060E0
1.626969338E1,1.233369923E1,-2.598000050E0,1.479699969E0,1.269091222E1
1.627969338E1,1.800879860E1,-3.262099981E0,2.586599827E0,1.848373939E1
1.628969338E1,2.181130028E1,-4.207499981E0,3.574599981E0,2.249919201E1
1.629970744E1,2.447639847E1,-5.250000000E0,5.106599808E0,2.554865835E1
1.630969338E1,2.592770004E1,-6.727799892E0,6.665299892E0,2.760317271E1
1.631969338E1,2.668799973E1,-8.203899384E0,7.747799873E0,2.897553619E1
1.632969338E1,2.711319923E1,-8.787899971E0,8.141499519E0,2.964180786E1
1.633969338E1,2.756629944E1,-8.079099655E0,7.956699848E0,2.980741164E1
1.634969963E1,2.745609856E1,-6.161599636E0,6.651199818E0,2.891437561E1
1.635969338E1,2.608289909E1,-3.375399828E0,4.438399792E0,2.667227665E1
1.636969338E1,2.295159912E1,-6.538000107E-1,1.859200001E0,2.303605829E1
1.637969338E1,1.843989944E1,1.563799977E0,-8.751999736E-1,1.852677352E1
1.638969338E1,1.270069981E1,3.187599897E0,-3.842700005E0,1.364679127E1
1.639970588E1,6.949100018E0,4.130199909E0,-6.014199734E0,1.007567074E1
1.640969338E1,1.697099924E0,4.265100002E0,-6.546199799E0,7.995245961E0
1.641969338E1,-2.305699825E0,3.702799797E0,-5.734399796E0,7.204881612E0
1.642969338E1,-5.740999699E0,2.827699900E0,-3.981699944E0,7.537167817E0
1.643969338E1,-8.899899483E0,1.761599898E0,-2.270599842E0,9.352383046E0
1.644969806E1,-1.195769978E1,7.019000053E-1,-1.066100001E0,1.202563166E1
1.645969338E1,-1.465859985E1,-5.150000006E-2,-4.901999831E-1,1.466688440E1
1.646969338E1,-1.622749901E1,-4.966999888E-1,-6.487999558E-1,1.624805762E1
1.647969338E1,-1.667440033E1,-8.086999655E-1,-1.304499984E0,1.674489003E1
1.648969338E1,-1.563749981E1,-5.595999956E-1,-2.104500055E0,1.578839678E1
1.649969806E1,-1.391239929E1,2.197999954E-1,-2.683199883E0,1.417048791E1
1.650969338E1,-1.228549957E1,9.617999792E-1,-2.894399881E0,1.265844025E1
1.651969338E1,-1.114019966E1,1.488799930E0,-2.762300014E0,1.157371484E1
1.652969338E1,-1.030989933E1,1.891099930E0,-2.430899858E0,1.076009095E1
1.653969338E1,-9.557499886E0,2.158599854E0,-1.959800005E0,9.992305712E0
1.654970275E1,-8.891699791E0,2.428999901E0,-1.502900004E0,9.339222351E0
1.655969338E1,-8.420499802E0,2.640699863E0,-9.056999683E-1,8.871212156E0
1.656969338E1,-8.085499763E0,2.938999891E0,-2.383999974E-1,8.606384917E0
1.657969338E1,-7.817799568E0,3.204799891E0,7.279999554E-2,8.449498936E0
1.658969338E1,-7.853799820E0,3.335999966E0,1.560000032E-1,8.534366021E0
