"Time (s)","Linear Acceleration x (m/s^2)","Linear Acceleration y (m/s^2)","Linear Acceleration z (m/s^2)","Absolute acceleration (m/s^2)"
8.381892000E-3,1.321070004E1,-6.932929993E1,-2.762509918E1,7.579063615E1
1.838189200E-2,4.633399963E0,5.791800022E0,-4.922999859E0,8.902205925E0
2.838033000E-2,4.535299778E0,5.252699852E0,-5.285500050E0,8.723319929E0
3.838189200E-2,4.515799999E0,4.763700008E0,-6.146800041E0,8.992688038E0
4.838189200E-2,3.998199940E0,3.701099873E0,-8.304699898E0,9.932360415E0
5.838189200E-2,2.592900038E0,2.330999970E-1,-1.220249939E1,1.247711736E1
6.838189200E-2,-3.674999774E-1,-1.145230007E1,-1.700319862E1,2.050363374E1
7.838189200E-2,-3.074999809E0,-1.962779999E1,-1.681529999E1,2.602807081E1
8.838189200E-2,-3.130800009E0,-2.200699997E1,-8.090899467E0,2.365528716E1
9.838189200E-2,-3.592999935E0,-2.542709923E1,-1.736599922E0,2.573835276E1
1.083818920E-1,-2.774299860E0,-2.788379860E1,-4.329999983E-1,2.802481852E1
1.183818920E-1,3.026499987E0,-2.438479996E1,-4.877399921E0,2.505129141E1
1.283818920E-1,7.787799835E0,-1.953529930E1,-1.038579941E1,2.345511830E1
1.383818920E-1,8.371500015E0,-1.944599915E1,-1.375619984E1,2.524800842E1
1.483928300E-1,6.240900040E0,-2.154469872E1,-1.311329937E1,2.598233047E1
1.583818920E-1,3.940599918E0,-2.208029938E1,-1.024800014E1,2.465946989E1
1.683818920E-1,3.848999977E0,-1.976729965E1,-8.398099899E0,2.181946421E1
1.783818920E-1,3.934000015E0,-1.646369934E1,-7.732299805E0,1.860962687E1
1.883818920E-1,3.128700018E0,-1.379439926E1,-8.544199944E0,1.652505877E1
1.983865800E-1,2.091599941E0,-1.187639999E1,-1.027909946E1,1.584561621E1
2.083818920E-1,1.589999914E0,-1.016309929E1,-1.130429935E1,1.528410517E1
2.183818920E-1,1.392499924E0,-8.157799721E0,-1.109759998E1,1.384360783E1
2.283818920E-1,1.472800016E0,-5.845599651E0,-1.112259960E1,1.265118165E1
2.383818920E-1,1.353299975E0,-3.182099819E0,-1.091109943E1,1.144592814E1
2.483818920E-1,1.483299971E0,-5.579999685E-1,-1.033609962E1,1.045688760E1
2.583818920E-1,1.713699937E0,1.937999964E0,-8.987899780E0,9.352804595E0
2.683818920E-1,1.765299916E0,3.646199942E0,-6.823999882E0,7.935869971E0
2.783818920E-1,2.462899923E0,5.296599865E0,-4.673199654E0,7.480550860E0
2.883818920E-1,3.210199833E0,6.776000023E0,-3.432600021E0,8.246350840E0
2.983818920E-1,3.632099867E0,7.886199951E0,-3.282299995E0,9.282122191E0
3.083818920E-1,4.312599659E0,8.529099464E0,-3.194700003E0,1.007721001E1
3.183818920E-1,4.646199703E0,8.649000168E0,-3.022300005E0,1.027261763E1
3.283818920E-1,4.716199875E0,8.649600029E0,-3.048499823E0,1.031268506E1
3.383818920E-1,4.794399738E0,8.716899872E0,-3.018699884E0,1.039630517E1
3.483818920E-1,4.780299664E0,8.742699623E0,-2.941499949E0,1.038934471E1
3.583818920E-1,4.751499653E0,8.765299797E0,-2.786299944E0,1.035232809E1
3.683818920E-1,4.707600117E0,8.821999550E0,-2.493399858E0,1.030564010E1
3.783818920E-1,4.657399654E0,8.940699577E0,-2.129699945E0,1.030354805E1
3.883818920E-1,4.520400047E0,9.021800041E0,-1.811399937E0,1.025222231E1
3.983818920E-1,4.361499786E0,9.133299828E0,-1.524799943E0,1.023547073E1
4.083818920E-1,4.175499916E0,9.293899536E0,-1.282999992E0,1.026924813E1
4.183818920E-1,3.943399906E0,9.405200005E0,-9.945999980E-1,1.024682483E1
4.283818920E-1,3.654699802E0,9.566800117E0,-6.268999577E-1,1.026028746E1
4.383818920E-1,3.246500015E0,9.707200050E0,-6.619999558E-2,1.023591118E1
4.483818920E-1,2.838699818E0,9.808599472E0,4.086999893E-1,1.021928940E1
4.583818920E-1,2.627799988E0,9.779299736E0,3.066000044E-1,1.013084595E1
4.683818920E-1,2.563099861E0,9.853399277E0,-3.616999984E-1,1.018772718E1
4.783818920E-1,2.641499996E0,9.988399506E0,-1.793099999E0,1.048622213E1
4.883818920E-1,2.861399889E0,9.622799873E0,-2.790199995E0,1.041974581E1
4.983818920E-1,2.196300030E0,8.679499626E0,-3.563799858E0,9.636291663E0
5.083818920E-1,1.493099928E0,7.927099705E0,-4.590699673E0,9.281313517E0
5.183818920E-1,5.468999743E-1,7.108999729E0,-4.144899845E0,8.247252358E0
5.283818920E-1,-5.724999905E-1,5.558399677E0,-5.800299644E0,8.054007647E0
5.383818920E-1,-1.135399938E0,4.078400135E0,-8.888999939E0,9.845648815E0
5.483818920E-1,-4.141999781E-1,3.834899902E0,-4.423699856E0,5.869168535E0
5.583818920E-1,-3.106499910E0,-5.396599770E0,2.008100033E0,6.542636816E0
5.683818920E-1,-1.878269958E1,-3.953619766E1,4.023999691E0,4.395558330E1
5.783818920E-1,-1.346729946E1,-4.653879929E1,1.123299956E0,4.846121951E1
5.883818920E-1,-1.096899986E0,-5.168439865E1,-3.828999996E-1,5.169745512E1
5.983818920E-1,5.980599880E0,-3.739569855E1,-5.146499634E0,3.821900448E1
6.083865800E-1,1.460199952E0,-2.433079910E1,-6.081799984E0,2.512186816E1
6.183818920E-1,-1.157099962E0,-1.447019958E1,-5.763799667E0,1.561880094E1
6.283818920E-1,-1.331099987E0,-8.336799622E0,-5.904500008E0,1.030228982E1
6.383818920E-1,-2.950000018E-2,-6.211999893E0,-4.750899792E0,7.820541014E0
6.483818920E-1,-3.959999979E-1,-7.454199791E0,-3.368299961E0,8.189466109E0
6.583865800E-1,-2.878999949E0,-9.748000145E0,-1.159799933E0,1.023021424E1
6.683818920E-1,-3.401299953E0,-9.955299377E0,-1.432999969E0,1.061745337E1
6.783818920E-1,-1.837199926E0,-7.821599960E0,-2.671999931E0,8.467131341E0
6.883818920E-1,-8.242999911E-1,-4.983900070E0,-3.640799999E0,6.226889675E0
6.983818920E-1,-1.565999985E-1,-1.912999988E0,-4.039799690E0,4.472591424E0
7.083834550E-1,8.934999704E-1,1.272899985E0,-3.456099987E0,3.789887029E0
7.183818920E-1,1.658100009E0,3.829399824E0,-2.405400038E0,4.816590910E0
7.283943920E-1,1.996899962E0,6.209099770E0,-1.146999955E0,6.622396719E0
7.383818920E-1,2.381199837E0,8.206899643E0,3.900000080E-2,8.545457004E0
7.483818920E-1,2.634199858E0,9.588399887E0,7.430999875E-1,9.971390017E0
7.583818920E-1,2.648399830E0,1.033449936E1,8.330000043E-1,1.070092462E1
7.683818920E-1,2.630800009E0,1.049440002E1,6.606999636E-1,1.083928342E1
7.783818920E-1,2.701699972E0,1.052839947E1,2.371999919E-1,1.087210384E1
7.883850170E-1,2.833400011E0,1.056359959E1,1.132999957E-1,1.093757874E1
7.983818920E-1,3.007699966E0,1.048199940E1,3.878999949E-1,1.091187596E1
8.083818920E-1,3.155999899E0,1.037189960E1,8.033999801E-1,1.087115855E1
8.183818920E-1,3.179199934E0,1.019460011E1,1.063300014E0,1.073162571E1
8.283818920E-1,3.135499954E0,9.979700089E0,1.421000004E0,1.055675210E1
8.383818920E-1,3.083499908E0,9.874499321E0,1.580500007E0,1.046478327E1
8.483818920E-1,2.974400043E0,9.810400009E0,1.511500001E0,1.036222159E1
8.583818920E-1,2.887699842E0,9.767299652E0,1.539699912E0,1.030095281E1
8.683818920E-1,2.824599981E0,9.764499664E0,1.615700006E0,1.029243923E1
8.783818920E-1,2.746899843E0,9.772600174E0,1.608899951E0,1.027802179E1
8.883818920E-1,2.733599901E0,9.791699409E0,1.614899993E0,1.029358284E1
8.983818920E-1,2.823999882E0,9.821799278E0,1.760299921E0,1.037021563E1
9.083818920E-1,2.889099836E0,9.833799362E0,1.887499928E0,1.042176395E1
9.183818920E-1,2.798599958E0,9.837900162E0,1.740799904E0,1.037529882E1
9.283818920E-1,2.531499863E0,9.784699440E0,1.302600026E0,1.019046621E1
9.383818920E-1,2.254999876E0,9.771599770E0,6.367999911E-1,1.004861686E1
9.483818920E-1,1.842999935E0,9.767999649E0,-2.008000016E-1,9.942373285E0
9.583865800E-1,1.198300004E0,9.409899712E0,-1.002699971E0,9.538739053E0
9.683818920E-1,8.417999744E-1,8.704999924E0,-2.065099955E0,8.986116441E0
9.783818920E-1,6.028999686E-1,8.076299667E0,-2.703399897E0,8.538060417E0
9.883818920E-1,5.745999813E-1,7.566399574E0,-5.270000100E-1,7.606464137E0
9.983818920E-1,-1.160999984E-1,6.593800068E0,-2.380800009E0,7.011411215E0
1.008381892E0,-7.136999965E-1,4.879799843E0,-5.466799736E0,7.362588780E0
1.018381892E0,-1.527699947E0,2.585000038E0,-2.825099945E0,4.122776010E0
1.028381892E0,-1.654529953E1,-3.225859833E1,-8.333999515E-1,3.626373751E1
1.038381892E0,-1.852079964E1,-4.488039780E1,1.510999948E-1,4.855196141E1
1.048381892E0,-1.119929981E1,-5.612529755E1,9.240999818E-1,5.723921123E1
1.058383455E0,6.010499954E0,-4.805259705E1,-1.462599993E0,4.844912168E1
1.068381892E0,6.031499863E0,-3.053469849E1,-3.924999952E0,3.137120378E1
1.078381892E0,3.627699852E0,-1.967939949E1,-3.939099789E0,2.039498658E1
1.088381892E0,1.891399980E0,-1.357279968E1,-5.579899788E0,1.479640385E1
1.098381892E0,1.841599941E0,-1.046999931E1,-5.933399677E0,1.217446540E1
1.108381892E0,1.662400007E0,-1.063739967E1,-4.174200058E0,1.154737164E1
1.118381892E0,-2.421999872E-1,-1.156400013E1,-1.391099930E0,1.164988922E1
1.128389705E0,-2.740399837E0,-1.080439949E1,-1.287000030E-1,1.114725990E1
1.138381892E0,-3.196099997E0,-7.858399868E0,-5.830000043E-1,8.503492969E0
1.148381892E0,-2.850699902E0,-4.197899818E0,-1.682299972E0,5.345931725E0
1.158381892E0,-2.573899984E0,-8.818999529E-1,-2.743999958E0,3.864226239E0
1.168381892E0,-2.074300051E0,2.108799934E0,-3.739699841E0,4.768135145E0
1.178386580E0,-9.190999866E-1,4.685499668E0,-4.177899837E0,6.344564522E0
1.188381892E0,4.796999991E-1,7.240299702E0,-3.316599846E0,7.978213233E0
1.198381892E0,1.865199924E0,9.145799637E0,-1.626599908E0,9.474726857E0
1.208381892E0,2.812799931E0,1.038389969E1,-1.973000020E-1,1.075993232E1
1.218381892E0,2.858799934E0,1.073989964E1,6.194999814E-1,1.113112580E1
1.228395955E0,2.769699812E0,1.065539932E1,1.094499946E0,1.106375623E1
1.238381892E0,2.851599932E0,1.052219963E1,1.158999920E0,1.096319242E1
1.248381892E0,2.958299875E0,1.038929939E1,1.136600018E0,1.086190313E1
1.258381892E0,3.208400011E0,1.028599930E1,1.331599951E0,1.085673849E1
1.268381892E0,3.571499825E0,1.015390015E1,1.771899939E0,1.090857134E1
1.278394392E0,3.995699883E0,1.010179996E1,2.140799999E0,1.107226285E1
1.288381892E0,4.299999714E0,9.984199524E0,2.307499886E0,1.111300110E1
1.298381892E0,4.382599831E0,9.910099983E0,2.094099998E0,1.103641780E1
1.308381892E0,4.338599682E0,9.870200157E0,1.865700006E0,1.094189814E1
1.318381892E0,4.058799744E0,9.805899620E0,1.576900005E0,1.072921881E1
1.328388142E0,3.838699818E0,9.794599533E0,1.269400001E0,1.059628108E1
1.338381892E0,3.728999853E0,9.933799744E0,8.755999804E-1,1.064671276E1
1.348381892E0,3.583899975E0,1.019329929E1,2.987000048E-1,1.080911242E1
1.358381892E0,3.304600000E0,1.030739975E1,-2.107999921E-1,1.082623237E1
1.368381892E0,3.079499960E0,1.026499939E1,-5.221999884E-1,1.072968897E1
1.378391267E0,2.960599899E0,1.014349937E1,-4.398999810E-1,1.057588026E1
1.388381892E0,2.784299850E0,1.003039932E1,3.456999958E-1,1.041540900E1
1.398381892E0,2.131199837E0,9.739500046E0,1.642699957E0,1.010437217E1
1.408381892E0,1.495599985E0,9.506199837E0,2.374899864E0,9.911851695E0
1.418381892E0,1.011799932E0,9.360199928E0,2.595000029E0,9.765813174E0
1.428388142E0,8.613999486E-1,9.144299507E0,2.831300020E0,9.611268551E0
1.438381892E0,1.249799967E0,8.927700043E0,2.673799992E0,9.402926906E0
1.448381892E0,1.286299944E0,8.808799744E0,1.900900006E0,9.102908398E0
1.458381892E0,9.941999912E-1,8.640199661E0,9.104999900E-1,8.744740936E0
1.468381892E0,7.093999982E-1,7.901000023E0,-1.153999940E-1,7.933622557E0
1.478386580E0,2.072999924E-1,2.611799955E0,-3.729799986E0,4.558056628E0
1.488381892E0,-6.800600052E0,-1.257699966E1,-2.254400015E0,1.447450866E1
1.498381892E0,-1.513560009E1,-3.271799850E1,-5.686999559E-1,3.605381028E1
1.508381892E0,-1.275290012E1,-4.260659790E1,1.092000008E0,4.448765121E1
1.518381892E0,-5.448899746E0,-5.698929977E1,2.167399883E0,5.729021225E1
1.528381892E0,9.511899948E0,-4.812260056E1,-3.513700008E0,4.917933522E1
1.538381892E0,4.244100094E0,-2.935899925E1,-6.898900032E0,3.045583761E1
1.548389705E0,-2.236599922E0,-1.917539978E1,-1.109350014E1,2.226576029E1
1.558381892E0,-3.741799831E0,-1.362790012E1,-1.342309952E1,1.949103200E1
1.568381892E0,-4.534399986E0,-1.185059929E1,-1.286039925E1,1.806619372E1
1.578381892E0,-5.464499950E0,-1.200739956E1,-7.690399647E0,1.527025378E1
1.588381892E0,-5.057199955E0,-1.154529953E1,-2.112299919E0,1.278010264E1
1.598392830E0,-3.324399948E0,-9.737299919E0,1.059100032E0,1.034351669E1
1.608381892E0,-3.027400017E0,-7.432499886E0,2.432399988E0,8.385927207E0
1.618381892E0,-2.828899860E0,-4.685100079E0,2.144299984E0,5.877997923E0
1.628381892E0,-1.838099957E0,-1.768999934E0,1.343699932E0,2.883314365E0
1.638381892E0,-5.231999755E-1,9.224999547E-1,2.741999924E-1,1.095413172E0
1.648383455E0,1.102399945E0,3.663199902E0,-1.730999947E-1,3.829397181E0
1.658381892E0,2.451799870E0,5.892999649E0,3.633999825E-1,6.393029564E0
1.668381892E0,3.633399963E0,8.024399757E0,1.360199928E0,8.913065163E0
1.678381892E0,4.301799774E0,9.637999535E0,2.180299997E0,1.077730135E1
1.688381892E0,4.433799744E0,1.022599983E1,2.815999985E0,1.149606492E1
1.698389705E0,4.440899849E0,1.027069950E1,2.671200037E0,1.150409359E1
1.708381892E0,4.726699829E0,1.032149982E1,2.538100004E0,1.163258361E1
1.718381892E0,5.201499939E0,1.051609993E1,3.446099997E0,1.222781929E1
1.728381892E0,5.399699688E0,1.056199932E1,3.842899799E0,1.246918062E1
1.738381892E0,5.219199657E0,1.045979977E1,2.836799860E0,1.202891889E1
1.748389705E0,4.775199890E0,1.028619957E1,1.695599914E0,1.146662525E1
1.758381892E0,4.120100021E0,1.009700012E1,7.892000079E-1,1.093377667E1
1.768381892E0,3.484899998E0,9.948399544E0,2.348999977E-1,1.054373556E1
1.778381892E0,2.974400043E0,9.818699837E0,-2.578999996E-1,1.026257446E1
1.788381892E0,2.318699837E0,1.014779949E1,-6.976000071E-1,1.043268179E1
1.798389705E0,1.771999955E0,1.047349930E1,-9.018999934E-1,1.066056260E1
1.808381892E0,1.617100000E0,1.056899929E1,-9.442999959E-1,1.073361360E1
1.818381892E0,1.533299923E0,1.066139984E1,-1.499699950E0,1.087499679E1
1.828381892E0,1.489199996E0,1.054669952E1,-1.571499944E0,1.076662433E1
1.838381892E0,1.288499951E0,1.037300014E1,-1.074299932E0,1.050778209E1
1.848386580E0,1.114499927E0,1.019819927E1,-5.812000036E-1,1.027536724E1
1.858381892E0,1.059100032E0,1.010919952E1,-8.689999580E-2,1.016489840E1
1.868381892E0,1.209999919E0,1.015399933E1,7.547999620E-1,1.025365911E1
1.878381892E0,1.463599920E0,1.015619946E1,1.919899940E0,1.043918234E1
1.888381892E0,1.293299913E0,9.675899506E0,3.327699900E0,1.031354655E1
1.898391267E0,1.496399999E0,9.067500114E0,4.137300014E0,1.007849308E1
1.908381892E0,1.544499993E0,8.862099648E0,4.481400013E0,1.005013614E1
1.918381892E0,1.383999944E0,8.864099503E0,4.151299953E0,9.885393626E0
1.928381892E0,1.121500015E0,8.985499382E0,2.929299831E0,9.517234836E0
1.938381892E0,9.273999929E-1,9.058599472E0,2.014699936E0,9.326162714E0
1.948381892E0,8.736000061E-1,8.719499588E0,1.018700004E0,8.822165252E0
1.958381892E0,5.999999866E-2,3.190000057E-1,-4.610999823E-1,5.638920084E-1
1.968381892E0,-1.272469997E1,-2.826159859E1,5.770999789E-1,3.099949981E1
1.978380330E0,-1.819419861E1,-4.740039825E1,2.709999867E-2,5.077230891E1
1.988381892E0,-7.768399715E0,-5.364019775E1,-1.378999949E-1,5.419998031E1
1.998381892E0,6.306299686E0,-5.586619949E1,-5.142699718E0,5.645572621E1
2.008381892E0,1.725799918E0,-3.569509888E1,-1.484919930E1,3.869905928E1
2.018381892E0,-4.045599937E0,-2.222629929E1,-1.238029957E1,2.576134849E1
2.028391267E0,-3.924599886E0,-1.425649929E1,-7.979499817E0,1.680246034E1
2.038381892E0,-2.688999891E0,-1.023099995E1,-5.761600018E0,1.204575091E1
2.048381892E0,-1.666999936E0,-9.737199783E0,-3.594599962E0,1.051252098E1
2.058381892E0,-5.909999609E-1,-9.457399368E0,-5.690999627E-1,9.492921496E0
2.068383455E0,-1.149399996E0,-9.219599724E0,1.487999916E0,9.409372092E0
2.078381892E0,-1.251500010E0,-7.451900005E0,1.729699969E0,7.751704841E0
2.088381892E0,-4.986999929E-1,-4.487800121E0,2.075700045E0,4.969666215E0
2.098381892E0,-1.109999940E-1,-1.473799944E0,1.958099961E0,2.453275918E0
2.108381892E0,6.445999742E-1,1.678399920E0,1.203599930E0,2.163605373E0
2.118395955E0,1.688599944E0,4.615200043E0,8.129999638E-1,4.981205692E0
2.128381892E0,2.760200024E0,7.337100029E0,9.900999665E-1,7.901394747E0
2.138381892E0,3.511099815E0,9.384099960E0,1.611299992E0,1.014817430E1
2.148381892E0,3.585299969E0,1.018879986E1,2.107899904E0,1.100496526E1
2.158381892E0,3.453799963E0,1.024240017E1,2.290599823E0,1.104908788E1
2.168392830E0,3.531799793E0,1.025070000E1,2.177299976E0,1.105853044E1
2.178381892E0,3.801399946E0,1.036069965E1,2.052700043E0,1.122534259E1
2.188381892E0,4.016799927E0,1.048419952E1,1.878199935E0,1.138335435E1
2.198381892E0,4.118400097E0,1.049399948E1,1.674499989E0,1.139689408E1
2.208381892E0,4.076399803E0,1.034099960E1,1.473199964E0,1.121265474E1
2.218391267E0,3.870899916E0,1.013249969E1,1.267400026E0,1.092051826E1
2.228381892E0,3.621099949E0,9.985799789E0,1.135999918E0,1.068265220E1
2.238381892E0,3.486599922E0,9.998299599E0,8.410999775E-1,1.062213835E1
2.248381892E0,3.371899843E0,1.032679939E1,3.471999764E-1,1.086890252E1
2.258381892E0,3.113699913E0,1.052089977E1,9.339999408E-2,1.097238273E1
2.268392830E0,2.791299820E0,1.053059959E1,-1.723999977E-1,1.089562317E1
2.278381892E0,2.383699894E0,1.048169994E1,-4.736999869E-1,1.075976071E1
2.288381892E0,2.029399872E0,1.031339931E1,-6.500999928E-1,1.053125345E1
2.298381892E0,1.849499941E0,1.017129993E1,-5.875999928E-1,1.035477021E1
2.308381892E0,1.759499907E0,1.009369946E1,-1.975999922E-1,1.024781218E1
2.318381892E0,1.664099932E0,1.005119991E1,5.435999632E-1,1.020251681E1
2.328381892E0,1.544399977E0,1.001499939E1,1.570099950E0,1.025429656E1
2.338381892E0,1.388599992E0,9.878699303E0,2.589400053E0,1.030640104E1
2.348381892E0,1.241999984E0,9.545800209E0,3.113299847E0,1.011718842E1
2.358381892E0,1.286999941E0,9.252999306E0,2.961400032E0,9.800217097E0
2.368395955E0,1.256600022E0,9.118100166E0,2.634999990E0,9.574028369E0
2.378381892E0,1.041700006E0,8.611100197E0,1.480700016E0,8.799355547E0
2.388381892E0,5.958999991E-1,7.190799713E0,-1.664999962E0,7.405060580E0
2.398392830E0,-1.754999906E-1,4.059299946E0,-6.226299763E0,7.434751175E0
2.408381892E0,-3.299999982E-3,3.756699800E0,-3.632399797E0,5.225622697E0
2.418381892E0,-3.749399900E0,-6.148099899E0,-1.103399992E0,7.285233251E0
2.428381892E0,-2.546759987E1,-5.301009750E1,-1.499899983E0,5.882957403E1
2.438381892E0,-2.059039879E1,-6.171569824E1,3.816299915E0,6.517174293E1
2.448381892E0,-6.123699665E0,-6.423709869E1,-1.182999969E0,6.453916668E1
2.458381892E0,1.315099955E0,-3.505039978E1,-8.600799561E0,3.611417680E1
2.468381892E0,-7.342000008E-1,-1.778359985E1,-9.061299324E0,1.997254663E1
2.478381892E0,-1.254999995E0,-8.654399872E0,-7.596799850E0,1.158382623E1
2.488381892E0,-7.497000098E-1,-5.144299984E0,-5.227600098E0,7.372494504E0
2.498381892E0,-7.078999877E-1,-6.261699677E0,-1.434399962E0,6.462778697E0
2.508381892E0,-1.921999931E0,-8.788100243E0,3.831999898E-1,9.003978667E0
2.518381892E0,-2.290199995E0,-9.923899651E0,7.724999785E-1,1.021398828E1
2.528381892E0,-2.360999823E0,-9.419899940E0,1.579299927E0,9.838852744E0
2.538381892E0,-1.502599955E0,-6.813899994E0,1.403899908E0,7.117441584E0
2.548381892E0,-4.104999900E-1,-3.635999918E0,2.778999805E-1,3.669636773E0
2.558394392E0,3.258000016E-1,-2.996000051E-1,-6.854000092E-1,8.158915226E-1
2.568381892E0,1.201799989E0,2.899299860E0,-1.189800024E0,3.356469423E0
2.578381892E0,1.907899976E0,5.381399632E0,-1.376099944E0,5.873090785E0
2.588381892E0,2.218299866E0,7.558699608E0,-1.113799930E0,7.955837124E0
2.598381892E0,2.339200020E0,9.382499695E0,-5.882999897E-1,9.687582471E0
2.608386580E0,2.617899895E0,1.043089962E1,1.882999986E-1,1.075604591E1
2.618381892E0,2.712899923E0,1.061619949E1,8.958999515E-1,1.099391443E1
2.628381892E0,2.811300039E0,1.048829937E1,1.097199917E0,1.091382972E1
2.638381892E0,2.923899889E0,1.040049934E1,8.976999521E-1,1.084091520E1
2.648381892E0,3.218499899E0,1.044069958E1,8.170999885E-1,1.095603038E1
2.658381892E0,3.763899803E0,1.049139977E1,9.729999900E-1,1.118852715E1
2.668381892E0,4.350399971E0,1.051420021E1,1.188300014E0,1.144056130E1
2.678381892E0,4.903599739E0,1.050109959E1,1.244599938E0,1.165621774E1
2.688388142E0,5.066499710E0,1.045399952E1,1.311299920E0,1.169080976E1
2.698381892E0,4.908899784E0,1.031459999E1,1.273999929E0,1.149396998E1
2.708381892E0,4.695799828E0,1.022939968E1,1.136099935E0,1.131290754E1
2.718381892E0,4.495299816E0,1.024580002E1,9.358999729E-1,1.122764656E1
2.728381892E0,3.776899815E0,1.028450012E1,8.858999610E-1,1.099184851E1
2.738381892E0,2.905200005E0,1.045170021E1,5.505999923E-1,1.086192362E1
2.748381892E0,2.283900023E0,1.046089935E1,-1.049999986E-2,1.070732109E1
2.758381892E0,2.105399847E0,1.034929943E1,-1.168999970E-1,1.056193036E1
2.768381892E0,2.141700029E0,1.021430016E1,2.640999854E-1,1.043975840E1
2.778381892E0,2.144399881E0,1.016429996E1,9.732999802E-1,1.043354003E1
2.788381892E0,2.155599833E0,1.013210011E1,1.764400005E0,1.050805265E1
2.798381892E0,2.035899878E0,1.004080009E1,2.279099941E0,1.049556341E1
2.808381892E0,1.496099949E0,9.861800194E0,2.477999926E0,1.027783546E1
2.818381892E0,6.323999763E-1,9.388899803E0,2.246399879E0,9.674589483E0
2.828381892E0,6.552999616E-1,9.092100143E0,1.960099936E0,9.324038546E0
2.838381892E0,1.699000001E-1,7.833599567E0,-4.174999893E-1,7.846556852E0
2.848394392E0,3.983999789E-1,6.062399864E0,-1.726300001E0,6.315973904E0
2.858381892E0,1.635999978E-1,5.172100067E0,-1.635800004E0,5.427082616E0
2.868381892E0,7.999999821E-2,4.290199757E0,-2.267899990E0,4.853409556E0
2.878381892E0,-1.220939922E1,-1.931839943E1,-2.944200039E0,2.304209842E1
2.888381892E0,-1.753579903E1,-4.517020035E1,-1.163399935E0,4.846859547E1
2.898383455E0,-5.491099834E0,-5.452409744E1,5.745100021E0,5.510023188E1
2.908381892E0,7.260200024E0,-6.119009781E1,5.659699917E0,6.187867789E1
2.918381892E0,6.830499649E0,-3.855920029E1,-2.614799976E0,3.924671746E1
2.928381892E0,-5.654000044E-1,-2.108949852E1,-5.830299854E0,2.188787384E1
2.938381892E0,-2.887599945E0,-1.170589924E1,-8.946399689E0,1.501347321E1
2.948392830E0,-3.125200033E0,-7.504399776E0,-7.578899860E0,1.111407281E1
2.958381892E0,-3.346799850E0,-8.351900101E0,-5.976999760E0,1.080184385E1
2.968381892E0,-5.122799873E0,-1.014739990E1,-3.384299994E0,1.186028203E1
2.978380330E0,-6.030499935E0,-1.062739944E1,-1.384699941E0,1.229739575E1
2.988381892E0,-4.899799824E0,-9.085199356E0,-1.020599961E0,1.037258453E1
2.998391267E0,-3.505999804E0,-6.581799984E0,-1.144400001E0,7.544652213E0
3.008381892E0,-2.344499826E0,-3.738499880E0,-1.586300015E0,4.689286569E0
3.018381892E0,-7.035999894E-1,-7.687999606E-1,-1.525699973E0,1.847665211E0
3.028381892E0,8.324999809E-1,1.739199996E0,-8.192999959E-1,2.095023944E0
3.038381892E0,1.872999907E0,4.207699776E0,8.639999479E-2,4.606553051E0
3.048389705E0,2.635200024E0,6.509399891E0,6.818000078E-1,7.055594756E0
3.058381892E0,3.284099817E0,8.547100067E0,9.566999674E-1,9.206166737E0
3.068381892E0,3.373699903E0,9.880700111E0,1.098899961E0,1.049846021E1
3.078381892E0,3.237599850E0,1.035369968E1,1.060599923E0,1.089981753E1
3.088381892E0,3.005299807E0,1.029939938E1,1.254099965E0,1.080195451E1
3.098386580E0,3.072899818E0,1.015880013E1,1.599699974E0,1.073326480E1
3.108381892E0,3.265599966E0,1.011819935E1,1.721799970E0,1.077064048E1
3.118381892E0,3.513700008E0,1.017819977E1,1.971799970E0,1.094668139E1
3.128381892E0,3.845199823E0,1.030009937E1,2.181400061E0,1.120875171E1
3.138381892E0,4.159899712E0,1.031799984E1,2.162899971E0,1.133331472E1
3.148386580E0,4.437900066E0,1.034029961E1,1.784199953E0,1.139298567E1
3.158381892E0,4.945499897E0,1.057389927E1,8.508999944E-1,1.170424478E1
3.168381892E0,5.018899918E0,1.069569969E1,1.272999942E-1,1.181539477E1
3.178381892E0,4.707200050E0,1.066569996E1,-5.288999677E-1,1.167024520E1
3.188381892E0,4.137399673E0,1.052969933E1,-8.439999819E-1,1.134482172E1
3.198389705E0,3.311999798E0,1.032450008E1,-6.983000040E-1,1.086518603E1
3.208381892E0,2.725999832E0,1.018529987E1,-8.419999480E-2,1.054412150E1
3.218381892E0,2.353199959E0,1.011149979E1,4.193999767E-1,1.039018163E1
3.228381892E0,2.165400028E0,1.001490021E1,9.973999858E-1,1.029475547E1
3.238381892E0,2.034699917E0,9.964699745E0,1.546000004E0,1.028714541E1
3.248386580E0,1.940599918E0,9.922499657E0,1.990799904E0,1.030462089E1
3.258381892E0,1.803099990E0,9.947899818E0,2.258899927E0,1.035927166E1
3.268381892E0,1.641099930E0,9.943200111E0,2.327899933E0,1.034309216E1
3.278381892E0,1.099599957E0,9.761099815E0,2.502300024E0,1.013655243E1
3.288381892E0,7.199999690E-2,9.028699875E0,2.468400002E0,9.360320721E0
3.298383455E0,-4.010000080E-2,8.589300156E0,2.085099936E0,8.838853258E0
3.308381892E0,1.055999994E-1,7.953499794E0,9.667999744E-1,8.012740637E0
3.318381892E0,2.953000069E-1,7.062999725E0,-3.098999858E-1,7.075959667E0
3.328381892E0,5.704999566E-1,5.624300003E0,-1.946399927E0,5.978853853E0
3.338381892E0,9.973999858E-1,3.893199921E0,-1.872699976E0,4.433826514E0
3.348381892E0,-9.343199730E0,-2.109659958E1,-2.587899923E0,2.321764676E1
3.358381892E0,-1.812800026E1,-5.196799850E1,-1.309899926E0,5.505463741E1
3.368388142E0,-8.301799774E0,-6.273320007E1,5.581999779E0,6.352584507E1
3.378381892E0,7.663399696E0,-6.235799789E1,2.608799934E0,6.288126457E1
3.388381892E0,1.240250015E1,-3.287899780E1,-7.062399864E0,3.584310252E1
3.398381892E0,6.199699879E0,-1.667529869E1,-7.406399727E0,1.927061550E1
3.408381892E0,1.309700012E0,-8.661000252E0,-7.051399708E0,1.124502011E1
3.418381892E0,2.732999921E-1,-5.445199966E0,-7.400599957E0,9.192049569E0
3.428381892E0,-8.534999490E-1,-7.659799576E0,-6.271599770E0,9.936496132E0
3.438381892E0,-2.756299973E0,-1.033990002E1,-4.436199665E0,1.158406618E1
3.448381892E0,-3.974999905E0,-1.112939930E1,-2.930199862E0,1.217580487E1
3.458386580E0,-3.049700022E0,-9.381999969E0,-1.567299962E0,9.988945030E0
3.468381892E0,-2.075999975E0,-6.548299789E0,-1.063400030E0,6.951318267E0
3.478381892E0,-1.759099960E0,-3.506099939E0,-1.054799914E0,4.061991176E0
3.488381892E0,-1.492900014E0,-7.353999615E-1,-9.990999699E-1,1.941072978E0
3.498381892E0,-8.073999882E-1,2.086299896E0,-6.446999907E-1,2.328128020E0
3.508386580E0,1.902000010E-1,4.935800076E0,9.279999882E-2,4.940335036E0
3.518381892E0,1.302399993E0,7.440499783E0,5.843999982E-1,7.576199978E0
3.528381892E0,2.428200006E0,9.238100052E0,8.184999824E-1,9.586896790E0
3.538381892E0,3.082799911E0,1.040789986E1,1.059199929E0,1.090641734E1
3.548381892E0,2.877799988E0,1.061759949E1,1.737199903E0,1.113701105E1
3.558381892E0,2.804199934E0,1.055399990E1,2.398799896E0,1.118054972E1
3.568381892E0,3.285499811E0,1.068839931E1,2.745299816E0,1.151403752E1
3.578391267E0,3.938299894E0,1.086460018E1,3.047499895E0,1.195144338E1
3.588381892E0,4.540800095E0,1.103520012E1,3.273000002E0,1.237364280E1
3.598381892E0,4.736199856E0,1.095639992E1,3.212100029E0,1.236090105E1
3.608381892E0,4.551700115E0,1.078539944E1,2.667099953E0,1.200650811E1
3.618381892E0,3.997299910E0,1.060979939E1,2.249199867E0,1.155876938E1
3.628381892E0,3.342199802E0,1.044729996E1,1.892499924E0,1.113094479E1
3.638381892E0,2.660399914E0,1.036520004E1,1.734699965E0,1.084086176E1
3.648381892E0,1.996399999E0,1.032329941E1,1.411499977E0,1.060888570E1
3.658381892E0,1.521600008E0,1.028129959E1,1.030399919E0,1.044423821E1
3.668381892E0,1.122099996E0,1.023829937E1,8.209999800E-1,1.033227581E1
3.678381892E0,7.305999994E-1,1.019289970E1,6.811000109E-1,1.024172241E1
3.688381892E0,4.569000006E-1,1.013469982E1,6.650999784E-1,1.016677216E1
3.698381892E0,2.432999909E-1,1.005319977E1,7.757999897E-1,1.008602430E1
3.708381892E0,-2.639999986E-2,1.002689934E1,1.103999972E0,1.008752810E1
3.718381892E0,-2.823999822E-1,9.967399597E0,1.403999925E0,1.006975771E1
3.728381892E0,-4.939000010E-1,9.943999290E0,1.703099966E0,1.010087167E1
3.738381892E0,-6.904000044E-1,9.868899345E0,1.890599966E0,1.007205017E1
3.748381892E0,-8.348000050E-1,9.693399429E0,1.994399905E0,9.931591742E0
3.758394392E0,-1.058300018E0,9.221300125E0,1.729299903E0,9.441549295E0
3.768381892E0,-1.453499913E0,8.010899544E0,-1.296599984E0,8.244291663E0
3.778381892E0,-1.517699957E0,7.049799919E0,-1.431800008E0,7.352084284E0
3.788381892E0,-1.515799999E0,6.132499695E0,-2.431799889E0,6.768962464E0
3.798381892E0,-1.580099940E0,5.273499966E0,-2.527699947E0,6.057704576E0
3.808383455E0,-1.615899920E0,5.693799973E0,1.085999981E-1,5.919652409E0
3.818381892E0,-1.446200013E0,6.918399811E0,2.475100040E0,7.488782987E0
3.828381892E0,-9.157099724E0,-3.008869934E1,3.887999952E-1,3.145367179E1
3.838381892E0,-1.333249950E1,-6.149029922E1,1.068699956E0,6.292816986E1
3.848391267E0,1.886899948E0,-6.853399658E1,1.620100021E1,7.044814750E1
3.858381892E0,1.765119934E1,-6.438029480E1,3.902400017E0,6.687014224E1
3.868381892E0,1.490749931E1,-3.013249969E1,-5.884699821E0,3.412961713E1
3.878381892E0,7.933599949E0,-1.201519966E1,-1.048759937E1,1.781282604E1
3.888381892E0,2.806599855E0,-5.106800079E0,-1.797620010E1,1.889709448E1
3.898391267E0,-6.556000113E-1,-3.997599840E0,-1.888309860E1,1.931274265E1
3.908381892E0,-8.592999578E-1,-6.500999928E0,-1.008449936E1,1.202906995E1
3.918381892E0,-1.195699930E0,-9.243599892E0,-3.386099815E0,9.916627917E0
3.928381892E0,-2.424399853E0,-1.022469997E1,9.534999728E-1,1.055136799E1
3.938381892E0,-1.892599940E0,-8.755800247E0,2.320199966E0,9.253610127E0
3.948383455E0,-4.470999837E-1,-5.482999802E0,2.081500053E0,5.881821800E0
3.958381892E0,2.522999942E-1,-2.073999882E0,1.240399957E0,2.429757776E0
3.968381892E0,7.027999759E-1,1.126899958E0,9.873999953E-1,1.654929023E0
3.978381892E0,9.304999709E-1,4.086499691E0,1.262899995E0,4.377239577E0
3.988381892E0,9.661999941E-1,6.453399658E0,1.885999918E0,6.792415275E0
3.998391267E0,1.419799924E0,8.599399567E0,2.478199959E0,9.061290182E0
4.008381892E0,1.630399942E0,9.990099907E0,2.719099998E0,1.048111659E1
4.018381892E0,1.153599977E0,1.034179974E1,3.234499931E0,1.089704568E1
4.028381892E0,1.432999969E0,1.053800011E1,5.119100094E0,1.180288613E1
4.038381892E0,1.435400009E0,1.048279953E1,3.370999813E0,1.110464312E1
4.048392830E0,1.651999950E0,1.055789948E1,2.968299866E0,1.109094898E1
4.058381892E0,1.937099934E0,1.075249958E1,3.164499998E0,1.137465004E1
4.068381892E0,2.239599943E0,1.079199982E1,2.970999956E0,1.141533656E1
4.078381892E0,2.390300035E0,1.073519993E1,2.497699976E0,1.127814510E1
4.088381892E0,2.299999952E0,1.058160019E1,1.759199977E0,1.097064478E1
4.098394392E0,2.253799915E0,1.045769978E1,1.192799926E0,1.076410100E1
4.108381892E0,2.213799953E0,1.034340000E1,7.626000047E-1,1.060511163E1
4.118381892E0,2.171900034E0,1.031699944E1,4.095999897E-1,1.055108522E1
4.128381892E0,2.188899994E0,1.061419964E1,-1.850000024E-2,1.083756704E1
4.138381892E0,1.931399941E0,1.107879925E1,-5.279999971E-1,1.125828062E1
4.148389705E0,1.623600006E0,1.126980019E1,-8.186999559E-1,1.141554829E1
4.158381892E0,1.304299951E0,1.117710018E1,-9.872999787E-1,1.129617316E1
4.168381892E0,1.052999973E0,1.099569988E1,-9.298999906E-1,1.108507730E1
4.178381892E0,8.729999661E-1,1.079299927E1,-4.733999968E-1,1.083859168E1
4.188381892E0,7.382999659E-1,1.056859970E1,2.465000004E-1,1.059722363E1
4.198389705E0,5.238999724E-1,1.039099979E1,8.861999512E-1,1.044187235E1
4.208381892E0,1.727000028E-1,1.029959965E1,1.434799910E0,1.040049177E1
4.218381892E0,-4.219999909E-1,9.941499710E0,1.881099939E0,1.012669924E1
4.228381892E0,-4.739999771E-1,9.258199692E0,1.841300011E0,9.451419113E0
4.238381892E0,-5.931000113E-1,8.701099396E0,1.321699977E0,8.820872357E0
4.248389705E0,-7.220000029E-1,7.800399780E0,-5.166000128E-1,7.850757690E0
4.258381892E0,-3.567999899E-1,5.547699928E0,-3.664899826E0,6.658511205E0
4.268381892E0,-4.710000008E-2,4.582999706E0,-4.178599834E0,6.202161018E0
4.278381892E0,-3.652999997E-1,6.895299911E0,-8.564999700E-1,6.957887406E0
4.288381892E0,-1.630100012E0,4.064099789E0,7.594999671E-1,4.444206717E0
4.298381892E0,-1.876019859E1,-6.084589767E1,-4.635299683E0,6.384085148E1
4.308381892E0,-1.284289932E1,-6.846979523E1,3.440899849E0,6.974878288E1
4.318381892E0,5.159399986E0,-6.845569611E1,1.676790047E1,7.066798585E1
4.328381892E0,1.419159985E1,-4.198209763E1,-5.711999893E0,4.468249064E1
4.338381892E0,1.057639980E1,-1.430119991E1,-9.542399406E0,2.018519106E1
4.348381892E0,3.505599976E0,-4.500099659E0,-6.547199726E0,8.683660080E0
4.358381892E0,-5.644999743E-1,-3.072399855E0,-7.597099781E0,8.214269668E0
4.368381892E0,-2.269199848E0,-5.094799995E0,-7.255199909E0,9.151184659E0
4.378381892E0,-1.172699928E0,-7.269599915E0,-3.588699818E0,8.191524548E0
4.388381892E0,-1.477999985E-1,-8.260899544E0,-1.098199964E0,8.334887478E0
4.398381892E0,-3.680000082E-2,-7.094699860E0,-3.030999899E-1,7.101266784E0
4.408381892E0,2.533999979E-1,-4.721899986E0,-9.027000070E-1,4.814085411E0
4.418381892E0,4.854999781E-1,-1.702600002E0,-1.825699925E0,2.543174633E0
4.428381892E0,5.771999955E-1,1.266199946E0,-2.358500004E0,2.738420057E0
4.438381892E0,1.057699919E0,3.762799978E0,-2.369899988E0,4.570975689E0
4.448381892E0,1.455099940E0,5.787099838E0,-1.818099976E0,6.238054817E0
4.458381892E0,1.640499949E0,7.662299633E0,-9.848999977E-1,7.897601139E0
4.468381892E0,1.740399957E0,9.221799850E0,2.089999989E-2,9.384616204E0
4.478381892E0,1.588999987E0,1.018690014E1,9.981999993E-1,1.035829420E1
4.488385017E0,1.115000010E0,1.040539932E1,1.534999967E0,1.057694592E1
4.498381892E0,9.167999625E-1,1.032509995E1,2.159699917E0,1.058831973E1
4.508381892E0,1.058599949E0,1.035289955E1,2.965099812E0,1.082104338E1
4.518381892E0,1.343899965E0,1.044069958E1,3.877399921E0,1.121822200E1
4.528381892E0,1.621999979E0,1.053090000E1,4.498600006E0,1.156581777E1
4.538385017E0,1.693099976E0,1.057579994E1,3.942099810E0,1.141289984E1
4.548381892E0,1.624499917E0,1.045759964E1,2.935499907E0,1.098260215E1
4.558381892E0,1.516499996E0,1.032219982E1,2.084199905E0,1.063914802E1
4.568381892E0,1.450599909E0,1.022739983E1,1.561399937E0,1.044710089E1
4.578381892E0,1.427999973E0,1.026049995E1,1.312099934E0,1.044215732E1
4.588381892E0,1.468599916E0,1.031349945E1,1.142199993E0,1.047996553E1
4.598381892E0,1.560899973E0,1.055280018E1,9.062999487E-1,1.070604408E1
4.608399080E0,1.643099904E0,1.091969967E1,3.993999958E-1,1.104984790E1
4.618381892E0,1.741299987E0,1.118830013E1,-1.507999897E-1,1.132399780E1
4.628381892E0,1.923099995E0,1.132899952E1,-3.328000009E-1,1.149588185E1
4.638381892E0,2.288199902E0,1.130270004E1,8.609999716E-2,1.153231548E1
4.648381892E0,2.662799835E0,1.097209930E1,1.033499956E0,1.133779468E1
4.658381892E0,2.902400017E0,1.045499992E1,2.132699966E0,1.105799975E1
4.668381892E0,2.772599936E0,9.692999840E0,2.634999990E0,1.042040216E1
4.678381892E0,1.439700007E0,8.813099861E0,2.933300018E0,9.399346481E0
4.688381892E0,5.946999788E-1,8.598699570E0,2.730399847E0,9.041370785E0
4.698381892E0,2.574000061E-1,8.656599998E0,1.964999914E0,8.880551951E0
4.708381892E0,8.980000019E-2,8.426499367E0,1.432999969E-1,8.428196160E0
4.718381892E0,4.667999744E-1,6.377099991E0,-5.267899990E0,8.284689301E0
4.728381892E0,1.403999925E-1,3.179699898E0,-5.024300098E0,5.947587332E0
4.738381892E0,-9.323999882E-1,4.286900043E0,-7.486999631E-1,4.450554275E0
4.748392830E0,-5.500799656E0,-1.091930008E1,-2.180799961E0,1.241957324E1
4.758381892E0,-2.085039902E1,-5.328540039E1,-5.255699635E0,5.746038124E1
4.768381892E0,-1.039599991E1,-6.215269852E1,4.816699982E0,6.319996318E1
4.778381892E0,1.232579994E1,-6.348269653E1,7.310499668E0,6.508011608E1
4.788381892E0,9.277500153E0,-3.376099777E1,-4.281099796E0,3.527328727E1
4.798395955E0,2.825299978E0,-1.661660004E1,-5.986199856E0,1.788653978E1
4.808381892E0,-5.663999915E-1,-9.403900146E0,-6.918099880E0,1.168820999E1
4.818381892E0,-1.447299957E0,-7.963899612E0,-6.953999996E0,1.067129281E1
4.828381892E0,-1.456799984E0,-9.387199402E0,-4.913799763E0,1.069519551E1
4.838381892E0,-2.221899986E0,-1.114639950E1,-2.399199963E0,1.161616209E1
4.848385017E0,-2.361500025E0,-1.128969955E1,-5.605999827E-1,1.154765217E1
4.858381892E0,-1.506899953E0,-9.845199585E0,-3.637999892E-1,9.966496514E0
4.868381892E0,-1.337700009E0,-7.342999935E0,-5.080999732E-1,7.481126583E0
4.878381892E0,-7.967000008E-1,-4.136600018E0,-8.605999947E-1,4.299630559E0
4.888381892E0,-1.159999985E-2,-6.674000025E-1,-1.034600019E0,1.231241050E0
4.898381892E0,2.474000007E-1,2.230700016E0,-9.890999794E-1,2.452661430E0
4.908381892E0,7.150999904E-1,4.901199818E0,-7.703999877E-1,5.012648381E0
4.918381892E0,1.457299948E0,7.275699615E0,-3.075000048E-1,7.426579582E0
4.928381892E0,1.930099964E0,9.236899376E0,6.247999668E-1,9.457059318E0
4.938381892E0,2.227299929E0,1.056989956E1,1.132099986E0,1.086118281E1
4.948381892E0,1.885199904E0,1.090310001E1,1.673200011E0,1.119067321E1
4.958381892E0,1.592999935E0,1.078590012E1,2.333299875E0,1.114977930E1
4.968381892E0,1.660099983E0,1.069929981E1,2.646699905E0,1.114611900E1
4.978381892E0,1.930299997E0,1.070979977E1,3.016199827E0,1.129262284E1
4.988381892E0,2.357300043E0,1.083479977E1,3.345499992E0,1.158197391E1
4.998381892E0,2.984200001E0,1.104979992E1,3.292999983E0,1.190996964E1
5.008381892E0,3.412400007E0,1.116090012E1,3.081199884E0,1.207078945E1
5.018381892E0,3.421700001E0,1.108920002E1,2.273299932E0,1.182566195E1
5.028381892E0,3.363899946E0,1.097069931E1,1.467399955E0,1.156828980E1
5.038381892E0,3.180199862E0,1.086289978E1,1.054700017E0,1.136787821E1
5.048381892E0,2.774199963E0,1.069600010E1,8.729999661E-1,1.108434628E1
5.058381892E0,2.453299999E0,1.064610004E1,7.856999636E-1,1.095333061E1
5.068381892E0,1.946699977E0,1.062449932E1,5.655999780E-1,1.081616984E1
5.078381892E0,1.355399966E0,1.059169960E1,3.689999878E-1,1.068444526E1
5.088388142E0,7.698000073E-1,1.057699966E1,1.467999965E-1,1.060599190E1
5.098381892E0,1.430999935E-1,1.057030010E1,-1.289999951E-2,1.057127657E1
5.108381892E0,-2.770999968E-1,1.045409966E1,1.429999918E-1,1.045874911E1
5.118381892E0,-5.171999931E-1,1.018970013E1,3.064000010E-1,1.020741718E1
5.128381892E0,-6.424999833E-1,9.934499741E0,3.179000020E-1,9.960328897E0
5.138399080E0,-5.738999844E-1,9.756799698E0,2.212999910E-1,9.776168739E0
5.148381892E0,-6.011999846E-1,9.567599297E0,1.715999991E-1,9.588005229E0
5.158381892E0,-7.882999778E-1,9.258600235E0,3.000999987E-1,9.296943324E0
5.168381892E0,-1.008800030E0,8.790699959E0,5.055999756E-1,8.862827687E0
5.178381892E0,-1.142899990E0,7.860699654E0,1.018999964E-1,7.944004220E0
5.188392830E0,-1.033999920E0,6.460299969E0,6.269999593E-2,6.542825293E0
5.198381892E0,-8.942999840E-1,6.023399830E0,9.569999576E-1,6.164167980E0
5.208381892E0,-8.424699783E0,-2.909910011E1,-2.075399876E0,3.036511944E1
5.218394392E0,-1.435820007E1,-5.944919968E1,-1.066100001E0,6.116781687E1
5.228381892E0,-3.225399971E0,-6.496369934E1,7.011899948E0,6.542057916E1
5.238381892E0,1.286709976E1,-5.273289871E1,6.068799973E0,5.461823135E1
5.248381892E0,1.313999939E1,-2.742449951E1,7.889999747E-1,3.042014593E1
5.258381892E0,5.600199699E0,-1.594599915E1,-5.488899708E0,1.776978181E1
5.268385017E0,8.379999995E-1,-1.040460014E1,-1.051970005E1,1.481965038E1
5.278381892E0,-8.812999725E-1,-7.546399593E0,-1.432719994E1,1.621707416E1
5.288381892E0,-5.698999763E-1,-7.981699944E0,-8.727999687E0,1.184104297E1
5.298381892E0,-1.281799912E0,-9.399700165E0,-1.595799923E0,9.619976694E0
5.308381892E0,-2.847899914E0,-9.545399666E0,1.092800021E0,1.002094809E1
5.318381892E0,-3.249500036E0,-7.701499939E0,1.707899928E0,8.531663024E0
5.328381892E0,-2.567100048E0,-4.515399933E0,8.791999817E-1,5.268000742E0
5.338381892E0,-1.812899947E0,-1.076399922E0,-1.847999990E-1,2.116457902E0
5.348381892E0,-9.123999476E-1,2.105299950E0,-9.050999880E-1,2.466569993E0
5.358381892E0,5.799999926E-3,4.883100033E0,-1.044399977E0,4.993542919E0
5.368381892E0,8.685999513E-1,7.257599831E0,-8.427999616E-1,7.357821210E0
5.378381892E0,1.707099915E0,8.993299484E0,-2.849999964E-1,9.158321393E0
5.388381892E0,2.218799829E0,9.953299522E0,4.738999903E-1,1.020861525E1
5.398381892E0,1.950399995E0,1.031459999E1,1.286099911E0,1.057587283E1
5.408381892E0,1.570299983E0,1.034259987E1,2.009799957E0,1.065244150E1
5.418381892E0,1.504599929E0,1.031239986E1,2.952399969E0,1.083171628E1
5.428381892E0,1.707999945E0,1.038199997E1,3.662199974E0,1.114068651E1
5.438392830E0,2.171099901E0,1.053279972E1,4.013299942E0,1.147868116E1
5.448381892E0,2.694299936E0,1.059910011E1,3.895099878E0,1.160913340E1
5.458381892E0,3.262799978E0,1.064919949E1,3.401299953E0,1.164560667E1
5.468381892E0,3.713899851E0,1.061419964E1,2.827299833E0,1.159516755E1
5.478381892E0,4.389899731E0,1.064389992E1,1.876500010E0,1.166555088E1
5.488386580E0,5.228199959E0,1.072569942E1,7.777000070E-1,1.195740441E1
5.498381892E0,5.837199688E0,1.078469944E1,-4.129999876E-2,1.226312961E1
5.508381892E0,5.642999649E0,1.073680019E1,-2.360999882E-1,1.213169678E1
5.518381892E0,4.796099663E0,1.073810005E1,-2.575999796E-1,1.176332106E1
5.528381892E0,3.502099991E0,1.060149956E1,-1.296000034E-1,1.116571956E1
5.538381892E0,2.401700020E0,1.054169941E1,-1.950000040E-2,1.081184395E1
5.548381892E0,1.350000024E0,1.058729935E1,3.969999775E-2,1.067309625E1
5.558381892E0,2.166999876E-1,1.055210018E1,-1.172999963E-1,1.055497686E1
5.568391267E0,-7.692999840E-1,1.041619968E1,-7.606999874E-1,1.047223485E1
5.578381892E0,-1.893099904E0,1.007170010E1,-1.616899967E0,1.037484147E1
5.588383455E0,-2.694399834E0,9.537599564E0,-2.153699875E0,1.014219005E1
5.598381892E0,-2.143599987E0,8.793999672E0,-1.043699980E0,9.111463153E0
5.608381892E0,-1.390799999E0,8.566499710E0,4.258999825E-1,8.689110007E0
5.618381892E0,-1.299399972E0,8.248999596E0,1.005599976E0,8.411044283E0
5.628381892E0,-1.277499914E0,7.725999832E0,1.578400016E0,7.988393208E0
5.638381892E0,-5.977999568E-1,2.586899996E0,5.464000106E-1,2.710713808E0
5.648381892E0,-8.179299355E0,-3.375370026E1,-4.333699703E0,3.499991674E1
5.658389705E0,-9.042900085E0,-4.958860016E1,-7.999999821E-2,5.040644510E1
5.668381892E0,2.650899887E0,-5.505389786E1,9.601599693E0,5.594774040E1
5.678381892E0,1.654360008E1,-4.511509705E1,7.161099911E0,4.858337202E1
5.688381892E0,1.221000004E1,-2.767939949E1,1.850899935E0,3.030938943E1
5.698381892E0,5.051099777E0,-1.891239929E1,-4.926499844E0,2.018570922E1
5.708394392E0,2.708699942E0,-1.342369938E1,-1.079069996E1,1.743479183E1
5.718381892E0,5.992999673E-1,-1.111289978E1,-1.394729996E1,1.784328664E1
5.728381892E0,-1.636500001E0,-1.110839939E1,-1.205119991E1,1.647137179E1
5.738381892E0,-2.513599873E0,-1.108619976E1,-6.575999737E0,1.313262281E1
5.748381892E0,-2.756799936E0,-1.038889980E1,-2.789599895E0,1.110455099E1
5.758394392E0,-2.170399904E0,-8.133899689E0,-1.127300024E0,8.493630863E0
5.768381892E0,-1.581200004E0,-5.782700062E0,-2.777000070E-1,6.001410730E0
5.778381892E0,-8.912000060E-1,-3.061100006E0,1.773999929E-1,3.193124090E0
5.788389705E0,-1.180999950E-1,-3.217999935E-1,2.881999910E-1,4.478415785E-1
5.798381892E0,3.470999897E-1,2.474599838E0,5.080999732E-1,2.549958499E0
5.808381892E0,7.865999937E-1,4.946399689E0,5.435000062E-1,5.037956102E0
5.818381892E0,1.351300001E0,6.858199596E0,7.085999846E-1,7.025882673E0
5.828381892E0,1.789599895E0,8.366899490E0,9.842000008E-1,8.612567823E0
5.838381892E0,2.062900066E0,9.560899734E0,1.270499945E0,9.863089299E0
5.848381892E0,2.111199856E0,1.030359936E1,1.790199995E0,1.066893343E1
5.858381892E0,1.569199920E0,1.040939999E1,2.254400015E0,1.076570090E1
5.868381892E0,1.274599910E0,1.039869976E1,3.197700024E0,1.095366820E1
5.878381892E0,1.427699924E0,1.058609962E1,4.662399769E0,1.165511922E1
5.888381892E0,1.930099964E0,1.089499950E1,5.725499630E0,1.245823607E1
5.898381892E0,2.511600018E0,1.106260014E1,5.318299770E0,1.252890932E1
5.908381892E0,3.068399906E0,1.108869934E1,4.170300007E0,1.223788107E1
5.918381892E0,3.241999865E0,1.093239975E1,2.736500025E0,1.172673696E1
5.928381892E0,3.217399836E0,1.069929981E1,1.445799947E0,1.126574523E1
5.938381892E0,3.025499821E0,1.054430008E1,6.061999798E-1,1.098650953E1
5.948381892E0,2.913699865E0,1.046640015E1,1.670999974E-1,1.086568458E1
5.958381892E0,2.707599878E0,1.079809952E1,-2.597000003E-1,1.113541622E1
5.968381892E0,1.893700004E0,1.097989941E1,-6.782000065E-1,1.116262720E1
5.978381892E0,1.184800029E0,1.095249939E1,-8.046000004E-1,1.104574014E1
5.988381892E0,6.859999895E-1,1.082419968E1,-5.949000120E-1,1.086221896E1
5.998381892E0,1.486999989E-1,1.064529991E1,-4.262000024E-1,1.065486595E1
6.008381892E0,-3.392999768E-1,1.030919933E1,-1.870999932E-1,1.031647817E1
6.018381892E0,-9.858999848E-1,9.885099411E0,1.253999919E-1,9.934934036E0
6.028381892E0,-1.167999983E0,9.647299767E0,4.921999872E-1,9.730204395E0
6.038381892E0,-4.365999997E-1,9.379599571E0,7.172999978E-1,9.417113515E0
6.048381892E0,-2.201999873E-1,9.247499466E0,1.024299979E0,9.306660242E0
6.058381892E0,-4.700999856E-1,9.053899765E0,2.053299904E0,9.295705215E0
6.068381892E0,-6.595999599E-1,8.995299339E0,2.739399910E0,9.426282097E0
6.078381892E0,-7.111999989E-1,9.062500000E0,1.887299895E0,9.284213084E0
6.088381892E0,-7.605999708E-1,8.549499512E0,-3.382999897E-1,8.589930215E0
6.098391267E0,-5.482000113E-1,6.777599812E0,-1.505499959E0,6.964403247E0
6.108381892E0,-2.406399965E0,-5.795999765E-1,1.214800000E0,2.757251524E0
6.118381892E0,-1.717000008E1,-4.207569885E1,-1.870899916E0,4.548267366E1
6.128381892E0,-1.378660011E1,-5.248369980E1,5.717400074E0,5.456461995E1
6.138381892E0,8.118299484E0,-6.014509964E1,1.423049927E1,6.233656156E1
6.148388142E0,2.041539955E1,-4.447620010E1,5.048999786E-1,4.894053370E1
6.158381892E0,5.763999939E0,-2.737409973E1,-9.036399841E0,2.939764537E1
6.168381892E0,-2.345999926E-1,-1.599279976E1,-1.221169949E1,2.012337660E1
6.178381892E0,-1.864999980E-1,-9.573800087E0,-1.327110004E1,1.636503977E1
6.188381892E0,-1.021999940E-1,-7.801099777E0,-1.185789967E1,1.419427304E1
6.198381892E0,-1.406700015E0,-9.069499969E0,-7.139699936E0,1.162798133E1
6.208381892E0,-2.746899843E0,-9.880299568E0,-3.138299942E0,1.072449089E1
6.218381892E0,-3.727499962E0,-9.321800232E0,-4.055999815E-1,1.004762295E1
6.228381892E0,-3.358099937E0,-7.756099701E0,8.240000010E-1,8.491931097E0
6.238381892E0,-2.179399967E0,-5.495800018E0,1.095600009E0,6.012814768E0
6.248381892E0,-1.558699965E0,-3.128999949E0,1.374300003E0,3.756179809E0
6.258381892E0,-9.944999814E-1,-5.769999623E-1,1.310899973E0,1.743679417E0
6.268381892E0,-3.551000059E-1,1.768199921E0,1.069000006E0,2.096518062E0
6.278381892E0,4.238999784E-1,4.240200043E0,8.610000014E-1,4.347448516E0
6.288381892E0,1.194000006E0,6.525300026E0,9.863999486E-1,6.706575974E0
6.298381892E0,1.919499993E0,8.280599594E0,1.632499933E0,8.655510724E0
6.308381892E0,2.702100039E0,9.467599869E0,1.861899972E0,1.002015286E1
6.318381892E0,2.705799818E0,1.018540001E1,2.484699965E0,1.082762485E1
6.328381892E0,2.282699823E0,1.054259968E1,3.252399921E0,1.126655367E1
6.338381892E0,1.896299958E0,1.056949997E1,3.197499990E0,1.120420855E1
6.348381892E0,1.813699961E0,1.054039955E1,3.146099806E0,1.114842923E1
6.358385017E0,2.124899864E0,1.061180019E1,3.237200022E0,1.129623684E1
6.368381892E0,2.730299950E0,1.073460007E1,3.392999887E0,1.158441300E1
6.378381892E0,3.418799877E0,1.086019993E1,3.288299799E0,1.185095147E1
6.388381892E0,3.968899965E0,1.096910000E1,2.786200047E0,1.199317441E1
6.398381892E0,4.346600056E0,1.100139999E1,1.824899912E0,1.196887604E1
6.408383455E0,4.468699932E0,1.103419971E1,8.854999542E-1,1.193762759E1
6.418381892E0,4.343199730E0,1.097760010E1,3.240999877E-1,1.181000121E1
6.428381892E0,3.775599957E0,1.083979988E1,9.600000083E-2,1.147892123E1
6.438381892E0,3.067399979E0,1.073779964E1,-4.699999988E-1,1.117721718E1
6.448381892E0,2.335700035E0,1.072959995E1,-1.212199926E0,1.104758971E1
6.458385017E0,1.372900009E0,1.099149990E1,-2.044499874E0,1.126400924E1
6.468381892E0,1.697999984E-1,1.096469975E1,-2.115200043E0,1.116814863E1
6.478380330E0,-1.221699953E0,1.031999969E1,-2.280699968E0,1.063938611E1
6.488381892E0,-2.440099955E0,9.285900116E0,-3.120100021E0,1.009539761E1
6.498381892E0,-3.090399981E0,8.236999512E0,-3.757799864E0,9.566597766E0
6.508381892E0,-2.207599878E0,7.581799984E0,-2.661900043E0,8.333240670E0
6.518381892E0,-1.113999963E0,7.613399982E0,-1.239399910E0,7.793649168E0
6.528381892E0,-8.021000028E-1,7.624599934E0,-7.328999639E-1,7.701625213E0
6.538381892E0,-6.577999592E-1,6.997200012E0,-9.299999475E-1,7.089316519E0
6.548381892E0,-2.451999933E-1,4.426700115E0,-8.373000026E-1,4.511858624E0
6.558381892E0,-4.596600056E0,-2.062199974E1,-2.238100052E0,2.124628667E1
6.568381892E0,-1.143099976E1,-4.392569733E1,-5.929999799E-2,4.538874483E1
6.578381892E0,-1.237200022E0,-5.328189850E1,9.944999695E0,5.421618200E1
6.588381892E0,1.660210037E1,-5.030529785E1,9.790899277E0,5.387127655E1
6.598381892E0,1.624769974E1,-3.100899887E1,2.748499870E0,3.511552376E1
6.608395955E0,4.452699661E0,-1.922889900E1,-3.121299982E0,1.998298288E1
6.618381892E0,-4.023999870E-1,-1.257170010E1,-8.518599510E0,1.519131682E1
6.628381892E0,-2.243199825E0,-9.022899628E0,-1.240759945E1,1.550461826E1
6.638381892E0,-2.588299990E0,-8.114899635E0,-1.084700012E1,1.379160268E1
6.648381892E0,-3.034399986E0,-8.819399834E0,-6.205899715E0,1.120279376E1
6.658385017E0,-4.204499722E0,-9.360400200E0,-2.693699837E0,1.060900224E1
6.668381892E0,-3.698799849E0,-7.716599941E0,-6.683999896E-1,8.583343959E0
6.678381892E0,-2.684000015E0,-5.290400028E0,-7.299999706E-3,5.932304934E0
6.688381892E0,-1.728500009E0,-2.483700037E0,3.184999824E-1,3.042683091E0
6.698381892E0,-9.394999743E-1,6.452999711E-1,3.137999773E-1,1.182177093E0
6.708381892E0,-1.972000003E-1,3.195600033E0,4.192999899E-1,3.229018410E0
6.718381892E0,9.333999753E-1,4.961199760E0,1.012699962E0,5.148815377E0
6.728381892E0,1.153299928E0,6.579299927E0,1.705500007E0,6.893911700E0
6.738381892E0,1.229399920E0,8.304499626E0,2.261299849E0,8.694228845E0
6.748381892E0,1.375599980E0,9.696199417E0,2.851599932E0,1.020000885E1
6.758381892E0,1.521099925E0,1.051939964E1,3.542999983E0,1.120376556E1
6.768381892E0,1.266399980E0,1.067689991E1,3.958999872E0,1.145747095E1
6.778381892E0,1.078499913E0,1.065009975E1,3.979499817E0,1.142034175E1
6.788381892E0,1.015100002E0,1.056639957E1,3.694199800E0,1.123949911E1
6.798381892E0,1.125800014E0,1.054279995E1,3.400499821E0,1.113469602E1
6.808381892E0,1.195599914E0,1.053999996E1,3.306399822E0,1.111095577E1
6.818381892E0,1.106500030E0,1.052810001E1,3.215899944E0,1.106378076E1
6.828381892E0,8.197000027E-1,1.035999966E1,2.913899899E0,1.079316050E1
6.838381892E0,5.137999654E-1,1.016269970E1,2.567800045E0,1.049466782E1
6.848381892E0,2.996999919E-1,1.007289982E1,2.257999897E0,1.032723072E1
6.858381892E0,3.078999817E-1,1.001210022E1,2.122999907E0,1.023933991E1
6.868381892E0,3.437999785E-1,1.013700008E1,1.916899920E0,1.032237736E1
6.878381892E0,-6.499999668E-3,1.078139973E1,1.059599996E0,1.083334549E1
6.888381892E0,-5.245000124E-1,1.125000000E1,1.103999987E-1,1.126276114E1
6.898381892E0,-7.177999616E-1,1.123099995E1,-5.137999654E-1,1.126563744E1
6.908381892E0,-7.414999604E-1,1.094119930E1,-7.292999625E-1,1.099052059E1
6.918381892E0,-6.814000010E-1,1.048659992E1,-2.472999990E-1,1.051162410E1
6.928381892E0,-5.504999757E-1,9.914400101E0,2.454999983E-1,9.932706068E0
6.938381892E0,5.229999870E-2,9.281599998E0,4.820999801E-1,9.294259207E0
6.948381892E0,3.055999875E-1,9.007699966E0,-3.009999990E-1,9.017907243E0
6.958381892E0,1.330299973E0,7.815699577E0,-4.393499851E0,9.064088418E0
6.968383455E0,-4.799999762E-3,7.060799599E0,-1.064499974E0,7.140593407E0
6.978381892E0,-9.751999974E-1,5.547100067E0,-2.870999813E0,6.321706583E0
6.988381892E0,-5.957999825E-1,5.294199944E0,-1.087399960E0,5.437459824E0
6.998381892E0,1.808999926E-1,6.536599636E0,1.825799942E0,6.789212402E0
7.008381892E0,-3.592599869E0,-2.472809982E1,-1.060099959E0,2.501018806E1
7.018386580E0,-3.921999931E-1,-4.680239868E1,4.721399784E0,4.704157692E1
7.028381892E0,1.809969902E1,-5.563629913E1,1.559539986E1,6.054926410E1
7.038381892E0,5.834599972E0,-4.306499863E1,-2.278199911E0,4.351812103E1
7.048381892E0,-3.974900007E0,-2.633449936E1,-1.421099949E1,3.018705340E1
7.058381892E0,-4.664400101E0,-1.441639996E1,-1.847069931E1,2.389049914E1
7.068389705E0,-1.361699939E0,-8.973999977E0,-1.370989990E1,1.644227045E1
7.078381892E0,4.745999873E-1,-8.569299698E0,-7.304699898E0,1.127017227E1
7.088392830E0,-1.519999981E0,-1.256260014E1,-2.700099945E0,1.293908273E1
7.098381892E0,-3.628399849E0,-1.560079956E1,1.115299940E0,1.605596856E1
7.108381892E0,-3.811899900E0,-1.567829990E1,2.880599976E0,1.639016549E1
7.118381892E0,-2.014799833E0,-1.279399967E1,3.340999842E0,1.337565422E1
7.128381892E0,-6.782000065E-1,-9.099699974E0,3.622900009E0,9.817835777E0
7.138381892E0,-1.973999888E-1,-5.429399967E0,3.652299881E0,6.546498696E0
7.148394392E0,1.211999953E-1,-1.624799967E0,3.612499952E0,3.962930769E0
7.158381892E0,7.925999761E-1,1.941899896E0,3.500499964E0,4.080770751E0
7.168381892E0,1.293399930E0,5.311100006E0,3.135999918E0,6.301996679E0
7.178381892E0,1.541999936E0,8.130700111E0,2.365599871E0,8.607096540E0
7.188381892E0,1.724599957E0,9.832099915E0,1.627999902E0,1.011409004E1
7.198381892E0,1.607499957E0,1.062099934E1,9.831999540E-1,1.078686076E1
7.208385017E0,1.646399975E0,1.070219994E1,3.150000051E-2,1.082814428E1
7.218381892E0,2.184000015E0,1.079049969E1,-7.558999658E-1,1.103522199E1
7.228381892E0,2.918799877E0,1.092430019E1,-1.233199954E0,1.137455536E1
7.238381892E0,4.043299675E0,1.131059933E1,-1.731299996E0,1.213570472E1
7.248381892E0,5.342599869E0,1.176480007E1,-1.669299960E0,1.302844797E1
7.258386580E0,6.267299652E0,1.200509930E1,-1.061200023E0,1.358409362E1
7.268381892E0,6.946699619E0,1.200549984E1,-4.118999839E-1,1.387653860E1
7.278381892E0,6.819599628E0,1.181799984E1,5.159999803E-2,1.364458581E1
7.288381892E0,5.594899654E0,1.128660011E1,4.540999830E-1,1.260541356E1
7.298381892E0,4.243099689E0,1.063409996E1,9.952999949E-1,1.149254537E1
7.308383455E0,3.147399902E0,1.019040012E1,1.656599998E0,1.079327125E1
7.318381892E0,2.461099863E0,1.005079937E1,1.572699904E0,1.046656417E1
7.328381892E0,1.824899912E0,9.978699684E0,1.052399993E0,1.019863975E1
7.338381892E0,1.025399923E0,1.003129959E1,3.172999918E-1,1.008856262E1
7.348381892E0,2.045999914E-1,9.942699432E0,-8.029999584E-2,9.945128518E0
7.358381892E0,-4.330999851E-1,9.830499649E0,-7.699999958E-2,9.840336780E0
7.368381892E0,-7.396000028E-1,9.519100189E0,5.924999714E-1,9.566155591E0
7.378386580E0,-8.245999813E-1,9.038899422E0,1.245499969E0,9.161492130E0
7.388381892E0,-2.829999924E-1,8.743499756E0,1.824799895E0,8.936373517E0
7.398381892E0,4.470000044E-2,8.771100044E0,2.163800001E0,9.034169830E0
7.408381892E0,-4.509999976E-2,8.387399673E0,1.522799969E0,8.524636475E0
7.418381892E0,-2.778999805E-1,6.778499603E0,-3.005999923E-1,6.790850140E0
7.428381892E0,-8.940000087E-2,6.001199722E0,2.178699970E0,6.385070401E0
7.438381892E0,-1.114300013E0,-1.637899995E0,3.035799980E0,3.624977577E0
7.448381892E0,-7.154699802E0,-4.535499954E1,-4.083399773E0,4.609707004E1
7.458381892E0,2.793099880E0,-5.331359863E1,2.998999834E0,5.347088185E1
7.468381892E0,1.965199947E0,-6.132419968E1,7.917099953E0,6.186436736E1
7.478381892E0,3.006099939E0,-4.432640076E1,-2.665499926E0,4.450810410E1
7.488381892E0,4.457099915E0,-2.325239944E1,-1.475489998E1,2.789707678E1
7.498381892E0,3.140599966E0,-1.187729931E1,-2.221089935E1,2.538223113E1
7.508381892E0,2.675999999E-1,-7.946300030E0,-1.869470024E1,2.031519409E1
7.518381892E0,-1.639499903E0,-7.801199913E0,-9.384699821E0,1.231337772E1
7.528385017E0,-2.165899992E0,-9.144599915E0,-1.615299940E0,9.535408972E0
7.538381892E0,-2.638200045E0,-9.512299538E0,2.721699953E0,1.023970667E1
7.548381892E0,-3.024799824E0,-8.940199852E0,4.215399742E0,1.033664270E1
7.558381892E0,-1.941899896E0,-6.877399921E0,3.490700006E0,7.953275515E0
7.568381892E0,-3.299999833E-1,-3.970599890E0,2.173300028E0,4.538479534E0
7.578381892E0,7.594999671E-1,-3.865000010E-1,1.215299964E0,1.484310093E0
7.588381892E0,1.690699935E0,2.708699942E0,7.838000059E-1,3.287835776E0
7.598386580E0,1.828199983E0,5.109999657E0,6.047999859E-1,5.460787003E0
7.608381892E0,1.733199954E0,7.277699947E0,8.743999600E-1,7.532162631E0
7.618381892E0,2.103999853E0,8.876899719E0,1.288900018E0,9.213437321E0
7.628381892E0,2.410699844E0,9.947199821E0,1.661199927E0,1.036908112E1
7.638381892E0,2.196199894E0,1.028359985E1,2.137799978E0,1.073060617E1
7.648381892E0,2.028699875E0,1.037699986E1,2.796000004E0,1.093688096E1
7.658381892E0,2.124699831E0,1.045310020E1,3.045599937E0,1.109312094E1
7.668381892E0,2.326699972E0,1.056120014E1,2.856099844E0,1.118524866E1
7.678381892E0,2.466399908E0,1.064229965E1,2.495699883E0,1.120581047E1
7.688381892E0,2.493299961E0,1.060779953E1,1.920499921E0,1.106482153E1
7.698381892E0,2.496199846E0,1.049619961E1,1.470499992E0,1.088869093E1
7.708381892E0,2.642400026E0,1.038529968E1,1.188799977E0,1.078192806E1
7.718381892E0,2.677899837E0,1.042179966E1,1.046000004E0,1.081106709E1
7.728381892E0,2.818099976E0,1.104710007E1,3.252999783E-1,1.140552180E1
7.738381892E0,2.744999886E0,1.145699978E1,-1.473999918E-1,1.178217276E1
7.748381892E0,2.490900040E0,1.159369946E1,-4.387999773E-1,1.186638089E1
7.758381892E0,2.082599878E0,1.142829990E1,-5.439999700E-1,1.162923888E1
7.768381892E0,1.614199996E0,1.123439980E1,-1.556999981E-1,1.135084239E1
7.778381892E0,1.207000017E0,1.095169926E1,1.554999948E-1,1.101910822E1
7.788381892E0,8.733999729E-1,1.071659946E1,4.866999984E-1,1.076314120E1
7.798381892E0,5.845999718E-1,1.063619995E1,6.086999774E-1,1.066963084E1
7.808381892E0,3.506000042E-1,1.046539974E1,6.814999580E-1,1.049342434E1
7.818381892E0,2.786999941E-1,9.380299568E0,9.419999719E-1,9.431598890E0
7.828383455E0,8.583999872E-1,8.871699333E0,1.263800025E0,9.002282494E0
7.838381892E0,1.021299958E0,8.753600121E0,1.588099957E0,8.954922118E0
7.848381892E0,7.410999537E-1,8.153399467E0,1.648999900E-1,8.188671689E0
7.858381892E0,-9.219999611E-2,5.394700050E0,-7.258499622E0,9.044175266E0
7.868381892E0,-6.911000013E-1,4.136300087E0,-7.925599575E0,8.966700968E0
7.878385017E0,-2.529999986E-2,6.684099674E0,-4.815999866E-1,6.701474994E0
7.888381892E0,1.750000007E-2,8.015699387E0,5.794999599E-1,8.036638794E0
7.898381892E0,-2.483999878E-1,8.098799706E0,1.187099934E0,8.189106513E0
7.908381892E0,-1.053209972E1,-2.136929893E1,-1.701999903E-1,2.382437889E1
7.918381892E0,-2.137199974E1,-5.006939697E1,9.422000051E-1,5.444809112E1
7.928394392E0,-1.026729965E1,-5.621479797E1,1.335190010E1,5.868384948E1
7.938381892E0,9.860099792E0,-5.899799728E1,1.493689919E1,6.165303082E1
7.948381892E0,2.014270020E1,-3.627009964E1,2.440500021E0,4.155965038E1
7.958381892E0,1.160059929E1,-2.148749924E1,-5.171400070E0,2.496056702E1
7.968381892E0,2.100100040E0,-1.436709976E1,-9.229499817E0,1.720487264E1
7.978381892E0,-7.189999819E-1,-1.027759933E1,-1.766689873E1,2.045153588E1
7.988381892E0,-1.868299961E0,-8.891699791E0,-1.940579987E1,2.142750425E1
7.998386580E0,-3.394199848E0,-8.990200043E0,-1.121990013E1,1.477262497E1
8.008381892E0,-4.492199898E0,-8.758500099E0,-4.817599773E0,1.095903515E1
8.018381892E0,-3.397399902E0,-7.010799885E0,-1.003499985E0,7.854976342E0
8.028381892E0,-1.926499963E0,-4.365499973E0,1.154600024E0,4.909388286E0
8.038381892E0,-7.385999560E-1,-1.850799918E0,2.635299921E0,3.303906159E0
8.048391267E0,-3.129999936E-1,8.003000021E-1,2.896199942E0,3.020997053E0
8.058381892E0,1.868999898E-1,3.334499836E0,2.400599957E0,4.112991723E0
8.068381892E0,8.143000007E-1,5.869400024E0,1.938899994E0,6.234763374E0
8.078381892E0,1.721799970E0,8.110199928E0,2.074599981E0,8.546572593E0
8.088383455E0,3.147899866E0,9.801899910E0,2.611899853E0,1.062113630E1
8.098388142E0,3.299299955E0,1.048530006E1,3.094499826E0,1.141940571E1
8.108381892E0,2.933599949E0,1.068209934E1,3.390599966E0,1.158487907E1
8.118381892E0,3.082999945E0,1.087279987E1,3.597599983E0,1.186024415E1
8.128381892E0,3.648599863E0,1.078289986E1,3.196899891E0,1.182384790E1
8.138381892E0,3.911899805E0,1.070679951E1,2.818799973E0,1.174240815E1
8.148391267E0,4.073599815E0,1.071339989E1,2.340899944E0,1.169833172E1
8.158381892E0,4.308300018E0,1.069419956E1,1.758299947E0,1.166271718E1
8.168381892E0,4.369699955E0,1.061940002E1,1.107100010E0,1.153653349E1
8.178381892E0,3.953499794E0,1.047799969E1,4.541999996E-1,1.120825302E1
8.188381892E0,3.405299902E0,1.050419998E1,4.349999875E-2,1.104247150E1
8.198385017E0,2.377099991E0,1.051980019E1,-7.027999759E-1,1.080790119E1
8.208381892E0,1.385599971E0,1.024870014E1,-1.337000012E0,1.042800609E1
8.218381892E0,7.744999528E-1,1.011180019E1,-1.401000023E0,1.023773190E1
8.228381892E0,2.358999997E-1,1.003109932E1,-1.274999976E0,1.011455522E1
8.238381892E0,-2.346999943E-1,9.987799644E0,-1.394400001E0,1.008739695E1
8.248394392E0,-6.322000027E-1,9.864799500E0,-1.520799994E0,1.000133884E1
8.258381892E0,-9.424999952E-1,9.691800117E0,-1.404399991E0,9.838273990E0
8.268381892E0,-9.577999711E-1,9.576099396E0,-9.726999998E-1,9.672910922E0
8.278381892E0,-4.228999913E-1,9.527199745E0,-1.347000003E-1,9.537532358E0
8.288381892E0,-1.428000033E-1,9.437199593E0,5.853999853E-1,9.456416929E0
8.298392830E0,-1.668999940E-1,9.286899567E0,1.194700003E0,9.364916832E0
8.308381892E0,-3.023000062E-1,8.870299339E0,1.159299970E0,8.950841976E0
8.318381892E0,-4.359999895E-1,8.020199776E0,8.842999935E-1,8.080574665E0
8.328381892E0,-3.342999816E-1,6.754699707E0,2.006999999E-1,6.765944509E0
8.338381892E0,-1.444299936E0,2.240299940E0,6.708999872E-1,2.748645652E0
8.348388142E0,-7.640999794E0,-1.761590004E1,-2.594199896E0,1.937613700E1
8.358381892E0,-6.768899918E0,-3.201029968E1,-4.593499660E0,3.303903042E1
8.368381892E0,-2.442399979E0,-3.993579865E1,6.530999541E-1,4.001574528E1
8.378381892E0,-3.414099932E0,-4.486649704E1,7.537199974E0,4.562310838E1
8.388381892E0,2.424499989E0,-3.540559769E1,7.581099987E0,3.628922188E1
8.398381892E0,4.100500107E0,-2.457939911E1,2.302999943E-1,2.492015248E1
8.408381892E0,2.956599951E0,-1.876070023E1,-4.600399971E0,1.954146965E1
8.418381892E0,1.064199924E0,-1.750289917E1,-7.366199970E0,1.901959260E1
8.428386580E0,6.448000073E-1,-1.708259964E1,-8.005100250E0,1.887624453E1
8.438381892E0,-4.174000025E-1,-1.664710045E1,-6.174999714E0,1.776037155E1
8.448381892E0,-5.766000152E-1,-1.481320000E1,-3.959100008E0,1.534398366E1
8.458381892E0,-4.648000002E-1,-1.194329929E1,-2.251699924E0,1.216258976E1
8.468381892E0,-3.933999836E-1,-8.791600227E0,-1.458299994E0,8.920405651E0
8.478381892E0,-1.101999953E-1,-4.950900078E0,-1.350000024E0,5.132840898E0
8.488381892E0,1.676999927E-1,-1.228099942E0,-1.467599988E0,1.920989974E0
8.498381892E0,8.513999581E-1,2.017600060E0,-1.380999923E0,2.588967492E0
8.508381892E0,1.655200005E0,4.301000118E0,-1.013000011E0,4.718522872E0
8.518381892E0,2.725399971E0,6.445600033E0,-6.044999957E-1,7.024171484E0
8.528381892E0,3.547499895E0,8.305399895E0,-6.099999696E-2,9.031508397E0
8.538381892E0,3.566499949E0,9.764100075E0,9.673999548E-1,1.043999209E1
8.548381892E0,2.889400005E0,1.063639927E1,1.838199973E0,1.117410403E1
8.558381892E0,2.255699873E0,1.074609947E1,1.780799985E0,1.112376215E1
8.568385017E0,1.994300008E0,1.061229992E1,1.896299958E0,1.096330678E1
8.578381892E0,2.146399975E0,1.057759953E1,2.099299908E0,1.099544018E1
8.588383455E0,2.454499960E0,1.069149971E1,2.303299904E0,1.120883252E1
8.598381892E0,2.785899878E0,1.083659935E1,2.442800045E0,1.145252792E1
8.608381892E0,3.006599903E0,1.089589977E1,2.246599913E0,1.152421303E1
8.618381892E0,2.846699953E0,1.068309975E1,1.414299965E0,1.114596632E1
8.628381892E0,2.269799948E0,1.032450008E1,8.014000058E-1,1.060139310E1
8.638381892E0,1.738099933E0,1.015209961E1,7.249999642E-1,1.032529626E1
8.648381892E0,1.320699930E0,1.024399948E1,4.293999970E-1,1.033770565E1
8.658381892E0,8.986999989E-1,1.047369957E1,9.769999981E-2,1.051263952E1
8.668395955E0,5.464999676E-1,1.056779957E1,-6.099999882E-3,1.058192266E1
8.678381892E0,3.450999856E-1,1.044779968E1,2.369999886E-1,1.045618387E1
8.688381892E0,3.044999838E-1,1.027890015E1,9.278999567E-1,1.032518798E1
8.698381892E0,3.062999845E-1,1.009869957E1,1.796599984E0,1.026183825E1
8.708381892E0,2.522000074E-1,9.857600212E0,2.701900005E0,1.022429217E1
8.718391267E0,1.406999975E-1,9.555600166E0,3.203899860E0,1.007939806E1
8.728381892E0,5.572999716E-1,9.290999413E0,3.214900017E0,9.847275535E0
8.738381892E0,8.845999837E-1,9.299900055E0,2.960899830E0,9.799876834E0
8.748381892E0,1.064899921E0,9.249699593E0,2.645499945E0,9.679340078E0
8.758381892E0,1.487200022E0,8.817399979E0,1.079200029E0,9.006829575E0
8.768389705E0,2.151200056E0,8.551899910E0,1.497000009E-1,8.819584108E0
8.778381892E0,1.887799978E0,8.402799606E0,1.565999985E-1,8.613672477E0
8.788381892E0,2.919999957E-1,7.400300026E0,-4.223899841E0,8.525903726E0
8.798381892E0,-1.080799937E0,6.457599640E0,-4.679500103E0,8.047760112E0
8.808381892E0,-9.918999672E-1,6.429499626E0,-3.095599890E0,7.204517310E0
8.818381892E0,-1.984999925E-1,6.844799995E0,-1.162799954E0,6.945703201E0
8.828381892E0,-1.030399919E0,2.999599934E0,5.572999716E-1,3.220234000E0
8.838381892E0,-9.017899513E0,-2.514270020E1,-2.325700045E0,2.681206380E1
8.848388142E0,-1.524299979E0,-5.208059692E1,2.231999874E0,5.215068446E1
8.858381892E0,9.069099426E0,-6.125979996E1,7.672899723E0,6.240100196E1
8.868381892E0,1.329329967E1,-4.836940002E1,-3.817699909E0,5.030790701E1
8.878381892E0,4.533199787E0,-2.837929916E1,-1.323289967E1,3.163928183E1
8.888381892E0,-7.461999655E-1,-1.740749931E1,-1.615410042E1,2.375989914E1
8.898389705E0,-2.369499922E0,-1.295479965E1,-1.118340015E1,1.727743624E1
8.908381892E0,-2.786200047E0,-1.268289948E1,-3.794499874E0,1.352838051E1
8.918381892E0,-3.522499800E0,-1.378899956E1,1.915799975E0,1.436018117E1
8.928381892E0,-3.368899822E0,-1.393499947E1,5.752099991E0,1.544734121E1
8.938381892E0,-3.314399958E0,-1.305739975E1,6.839099884E0,1.510808467E1
8.948392830E0,-2.523000002E0,-1.097809982E1,5.422599792E0,1.250155163E1
8.958381892E0,-1.347700000E0,-7.523299694E0,3.840600014E0,8.553744329E0
8.968381892E0,-4.065999985E-1,-3.441499949E0,2.411999941E0,4.222201934E0
8.978381892E0,3.270999789E-1,7.155999541E-1,9.930999875E-1,1.267014316E0
8.988381892E0,7.570999861E-1,4.205299854E0,6.740000099E-2,4.273440068E0
8.998383455E0,1.061999917E0,6.899299622E0,-1.387999952E-1,6.981937019E0
9.008381892E0,1.180400014E0,9.034199715E0,-1.290999949E-1,9.111902956E0
9.018381892E0,1.265599966E0,1.053230000E1,-4.339999706E-2,1.060815583E1
9.028381892E0,1.235000014E0,1.121719933E1,-3.643999994E-1,1.129086237E1
9.038381892E0,1.248799920E0,1.133389950E1,-8.543999791E-1,1.143445575E1
9.048388142E0,1.495700002E0,1.140170002E1,-1.617499948E0,1.161258748E1
9.058381892E0,1.819700003E0,1.139120007E1,-2.042599916E0,1.171507411E1
9.068381892E0,2.043799877E0,1.132199955E1,-2.128000021E0,1.170013572E1
9.078381892E0,2.228100061E0,1.118439960E1,-1.914999962E0,1.156384232E1
9.088383455E0,2.472599983E0,1.090999985E1,-1.665300012E0,1.130995453E1
9.098394392E0,2.798399925E0,1.056769943E1,-1.609200001E0,1.104974380E1
9.108381892E0,3.157799959E0,1.032389927E1,-1.374899983E0,1.088324155E1
9.118381892E0,3.442699909E0,1.007089996E1,-6.984999776E-1,1.066597914E1
9.128381892E0,3.473599911E0,9.907099724E0,-1.500000013E-3,1.049840576E1
9.138381892E0,3.277299881E0,9.783299446E0,4.928999841E-1,1.032940429E1
9.148385017E0,2.744699955E0,9.679599762E0,1.160799980E0,1.012795567E1
9.158381892E0,2.035599947E0,9.585599899E0,1.570299983E0,9.924375779E0
9.168381892E0,1.664999962E0,9.608699799E0,1.562099934E0,9.876208427E0
9.178381892E0,1.372499943E0,9.670199394E0,1.632200003E0,9.902554684E0
9.188381892E0,1.092100024E0,9.633199692E0,1.923799992E0,9.883937736E0
9.198381892E0,9.338999987E-1,9.576499939E0,2.256299973E0,9.882935285E0
9.208381892E0,1.016799927E0,9.500499725E0,2.548399925E0,9.888767330E0
9.218381892E0,1.241099954E0,9.434999466E0,2.632999897E0,9.873815497E0
9.228381892E0,1.387499928E0,9.350599289E0,2.452699900E0,9.765992009E0
9.238381892E0,1.443199992E0,9.305999756E0,2.295199871E0,9.692904628E0
9.248381892E0,1.317600012E0,9.202699661E0,2.193599939E0,9.551839171E0
9.258381892E0,7.648999691E-1,9.089399338E0,2.366499901E0,9.423511769E0
9.268381892E0,2.969999909E-1,9.043999672E0,2.472100019E0,9.380480668E0
9.278381892E0,-3.739999980E-2,8.742899895E0,1.001399994E0,8.800142003E0
9.288381892E0,-2.164999992E-1,8.007800102E0,-6.876999736E-1,8.040190668E0
9.298381892E0,2.116999924E-1,7.639699936E0,4.291999936E-1,7.654674691E0
9.308381892E0,-1.709800005E0,1.737299919E0,-8.569999933E-1,2.583810375E0
9.318392830E0,-1.091069984E1,-2.304159927E1,-5.808499813E0,2.614760674E1
9.328381892E0,-8.785300255E0,-3.518399811E1,-7.372399807E0,3.700604683E1
9.338381892E0,-7.560199738E0,-4.331329727E1,-3.879699945E0,4.413898971E1
9.348381892E0,-7.711199760E0,-4.769809723E1,5.506000042E0,4.863010505E1
9.358381892E0,1.431699991E0,-3.350009918E1,5.481400013E0,3.397575836E1
9.368381892E0,5.679999828E0,-2.244359970E1,2.340199947E0,2.326916632E1
9.378381892E0,5.881000042E0,-1.893490028E1,-1.914199948E0,1.991935671E1
9.388381892E0,2.258999825E0,-1.949399948E1,-6.562999725E0,2.069280216E1
9.398381892E0,7.611999512E-1,-1.920949936E1,-7.673699856E0,2.069951595E1
9.408381892E0,9.688999653E-1,-1.735869980E1,-6.183300018E0,1.845254522E1
9.418381892E0,1.639999896E-1,-1.508959961E1,-4.239699841E0,1.567475573E1
9.428381892E0,-5.586000085E-1,-1.260759926E1,-2.401399851E0,1.284641251E1
9.438381892E0,-7.657999992E-1,-9.559199333E0,-1.302999973E0,9.677941437E0
9.448381892E0,-1.329599977E0,-6.159499645E0,-4.370999932E-1,6.316512359E0
9.458381892E0,-1.844399929E0,-2.741199970E0,-4.800999761E-1,3.338635105E0
9.468381892E0,-1.802899957E0,2.247999907E-1,-8.519999981E-1,2.006710564E0
9.478381892E0,-1.386399984E0,3.068899870E0,-1.267599940E0,3.598202459E0
9.488381892E0,-6.737999916E-1,5.515500069E0,-1.275300026E0,5.700976898E0
9.498381892E0,2.309999987E-2,7.545399666E0,-9.571999907E-1,7.605907017E0
9.508381892E0,6.205999851E-1,9.377499580E0,-2.406999916E-1,9.401094575E0
9.518381892E0,1.178699970E0,1.047289944E1,3.989000022E-1,1.054656709E1
9.528381892E0,1.363299966E0,1.081239986E1,1.007399917E0,1.094447039E1
9.538381892E0,1.369799972E0,1.065159988E1,1.580799937E0,1.085503848E1
9.548383455E0,1.751299977E0,1.053989983E1,2.456399918E0,1.096314008E1
9.558381892E0,2.399899960E0,1.057669926E1,3.616899967E0,1.143276224E1
9.568381892E0,3.322999954E0,1.071469975E1,4.306299686E0,1.201629462E1
9.578381892E0,4.023699760E0,1.074059963E1,3.731699944E0,1.206135252E1
9.588383455E0,4.418099880E0,1.064499950E1,2.513999939E0,1.179643237E1
9.598392830E0,4.580999851E0,1.054430008E1,1.400599957E0,1.158142927E1
9.608381892E0,4.628699780E0,1.041699982E1,8.459999561E-1,1.143041831E1
9.618381892E0,4.533400059E0,1.030060005E1,6.046000123E-1,1.127029807E1
9.628394392E0,4.157599926E0,1.017420006E1,5.827000141E-1,1.100634014E1
9.638381892E0,3.640899897E0,1.016409969E1,5.467000008E-1,1.081036334E1
9.648381892E0,2.650899887E0,1.027890015E1,5.658000112E-1,1.063029577E1
9.658381892E0,1.661399961E0,1.034119987E1,4.116999805E-1,1.048189685E1
9.668381892E0,1.001399994E0,1.028179932E1,1.473999918E-1,1.033150163E1
9.678389705E0,6.279000044E-1,1.007129955E1,1.577999890E-1,1.009208769E1
9.688381892E0,2.622999847E-1,9.857099533E0,6.937999725E-1,9.884966914E0
9.698381892E0,-2.058999985E-1,9.796699524E0,1.448899984E0,9.905403956E0
9.708381892E0,-5.640999675E-1,9.724699974E0,2.106099844E0,9.966125371E0
9.718381892E0,-1.054999948E0,9.338099480E0,2.614799976E0,9.754501817E0
9.728381892E0,-1.381799936E0,8.961699486E0,2.690699816E0,9.458398080E0
9.738381892E0,-1.347100019E0,8.880499840E0,2.218199968E0,9.251938552E0
9.748381892E0,-1.260900021E0,9.064099312E0,1.684000015E0,9.305032039E0
9.758381892E0,-1.318300009E0,9.167699814E0,1.438099980E0,9.372980654E0
9.768394392E0,-1.543299913E0,9.023200035E0,1.562600017E0,9.286637298E0
9.778381892E0,-1.867399931E0,8.709599495E0,1.515900016E0,9.035610589E0
9.788381892E0,-2.331099987E0,7.815299988E0,-5.879999697E-2,8.155758609E0
9.798381892E0,-2.367899895E0,7.139999866E0,1.075500011E0,7.598897833E0
9.808381892E0,-3.007200003E0,4.350800037E0,3.434499979E0,6.306227313E0
9.818388142E0,-1.018139935E1,-1.948359871E1,7.719999552E-2,2.198357276E1
9.828381892E0,-1.136839962E1,-3.573080063E1,-5.691499710E0,3.792523952E1
9.838381892E0,-1.657299995E0,-4.377759933E1,-1.598699927E0,4.383811912E1
9.848381892E0,1.266499996E1,-5.240129852E1,4.386699677E0,5.408827456E1
9.858381892E0,1.724989891E1,-3.770339966E1,-6.036999822E-1,4.146649023E1
9.868381892E0,1.061429977E1,-2.256919861E1,-5.747299671E0,2.559420909E1
9.878381892E0,5.442800045E0,-1.555620003E1,-7.056999683E0,1.792820895E1
9.888381892E0,2.719499826E0,-1.447669983E1,-9.180299759E0,1.735650947E1
9.898386580E0,1.944099903E0,-1.676709938E1,-8.394599915E0,1.885164327E1
9.908381892E0,1.647000015E-1,-1.905150032E1,-5.930399895E0,1.995385761E1
9.918381892E0,-1.258399963E0,-1.962819862E1,-2.780599833E0,1.986407529E1
9.928381892E0,-1.149399996E0,-1.794899940E1,-6.265000105E-1,1.799667198E1
9.938381892E0,-1.615299940E0,-1.395629978E1,7.213999629E-1,1.406797482E1
9.948381892E0,-2.371299982E0,-9.729700089E0,1.608099937E0,1.014278625E1
9.958381892E0,-2.072299957E0,-5.602900028E0,1.129099965E0,6.079620265E0
9.968381892E0,-1.258499980E0,-2.018899918E0,6.965000033E-1,2.478889133E0
9.978381892E0,-5.529999733E-1,1.619799972E0,1.055400014E0,2.010828214E0
9.988381892E0,-2.570999861E-1,4.856800079E0,1.468999982E0,5.080607086E0
9.998381892E0,1.841999888E-1,7.679100037E0,1.553900003E0,7.836907058E0
1.000838189E1,8.036999702E-1,9.831099510E0,1.290099978E0,9.947904763E0
1.001838189E1,8.809999824E-1,1.088259983E1,8.683999777E-1,1.095268271E1
1.002838189E1,8.380999565E-1,1.120639992E1,3.057000041E-1,1.124185319E1
1.003838189E1,1.209499955E0,1.131269932E1,1.198999956E-1,1.137780436E1
1.004838189E1,1.673699975E0,1.137790012E1,-9.669999778E-2,1.150074927E1
1.005838189E1,2.013399839E0,1.136349964E1,-2.428999990E-1,1.154304567E1
1.006838189E1,2.257099867E0,1.130929947E1,-3.066000044E-1,1.153641009E1
1.007838189E1,2.599799871E0,1.120590019E1,-1.595999897E-1,1.150463518E1
1.008838189E1,3.072299957E0,1.100489998E1,6.709999591E-2,1.142590710E1
1.009838189E1,3.785300016E0,1.069759941E1,-5.869999900E-2,1.134771233E1
1.010838658E1,4.526599884E0,1.031470013E1,2.131999880E-1,1.126625934E1
1.011838189E1,5.256799698E0,1.019040012E1,6.150999665E-1,1.148288055E1
1.012838189E1,6.269000053E0,1.027610016E1,5.022999644E-1,1.204785879E1
1.013838189E1,7.081500053E0,1.040579987E1,8.757999539E-1,1.261726355E1
1.014838189E1,6.611399651E0,1.063899994E1,6.372999549E-1,1.254213205E1
1.015838971E1,4.489399910E0,1.067039967E1,4.829999804E-1,1.158643300E1
1.016838189E1,2.227099895E0,1.014379978E1,-1.717000008E-1,1.038682477E1
1.017838189E1,1.191599965E0,9.939299583E0,-9.693999887E-1,1.005730198E1
1.018838970E1,6.423000097E-1,9.633999825E0,-3.901000023E-1,9.663264455E0
1.019838189E1,4.825999737E-1,9.452099800E0,8.800999522E-1,9.505244305E0
1.020838189E1,5.889999866E-1,9.354399681E0,2.102200031E0,9.605777394E0
1.021838189E1,5.661999583E-1,9.215499878E0,2.975600004E0,9.700526572E0
1.022838189E1,3.596999943E-1,9.115300179E0,3.565199852E0,9.794321386E0
1.023839752E1,1.824999899E-1,9.045299530E0,4.123099804E0,9.942369025E0
1.024838189E1,1.899999976E-1,9.123600006E0,4.863299847E0,1.034059295E1
1.025838189E1,3.598999977E-1,9.154899597E0,5.919499874E0,1.090789592E1
1.026838189E1,8.348999619E-1,8.561999321E0,6.667199612E0,1.088376961E1
1.027838189E1,1.231799960E0,8.316699982E0,5.453099728E0,1.002103420E1
1.028838189E1,1.294899940E0,8.378700256E0,3.510599852E0,9.176257143E0
1.029838189E1,1.499799967E0,7.960199833E0,8.226999640E-1,8.141929535E0
1.030838189E1,1.785799980E0,2.429100037E0,-4.992599964E0,5.832294828E0
1.031838189E1,-4.473499775E0,-1.894540024E1,-9.885999560E-1,1.949147815E1
1.032838189E1,-1.001280022E1,-4.641569901E1,-3.122999966E-1,4.748442706E1
1.033838189E1,-5.264400005E0,-4.429789734E1,1.385299921E0,4.463111775E1
1.034838189E1,4.663599968E0,-4.233200073E1,-1.980999947E0,4.263416249E1
1.035838189E1,4.314799786E0,-2.916959953E1,-7.256099701E0,3.036665963E1
1.036838189E1,2.826900005E0,-1.980029869E1,-8.031899452E0,2.155352873E1
1.037838814E1,1.622399926E0,-1.499219990E1,-9.135499954E0,1.763109749E1
1.038838189E1,-5.521999598E-1,-1.603719902E1,-9.880299568E0,1.884454820E1
1.039838189E1,-1.478899956E0,-1.874409866E1,-8.942899704E0,2.082075491E1
1.040838189E1,-1.775299907E0,-2.010350037E1,-5.302000046E0,2.086656707E1
1.041838189E1,-2.075199842E0,-1.928149986E1,-1.924999952E0,1.948815836E1
1.042839596E1,-2.282099962E0,-1.718789864E1,2.043999881E-1,1.733994288E1
1.043838189E1,-1.953799963E0,-1.360579967E1,6.046000123E-1,1.375865765E1
1.044838189E1,-1.920099974E0,-9.524899483E0,5.877000093E-1,9.734263473E0
1.045838814E1,-1.773299932E0,-5.581299782E0,3.639999926E-1,5.867537465E0
1.046838189E1,-1.163299918E0,-2.167599916E0,4.626999795E-1,2.503167467E0
1.047838189E1,-4.084999859E-1,7.620999813E-1,7.423999906E-1,1.139660636E0
1.048838189E1,1.967999935E-1,3.725299835E0,1.048399925E0,3.875013742E0
1.049838189E1,1.005499959E0,6.362400055E0,1.488799930E0,6.611179158E0
1.050838502E1,1.869699955E0,8.450900078E0,1.923399925E0,8.866394832E0
1.051838189E1,2.562399864E0,9.756599426E0,2.140799999E0,1.031213606E1
1.052838189E1,2.875900030E0,1.051599979E1,2.285099983E0,1.113906345E1
1.053838189E1,2.669499874E0,1.077909946E1,2.660399914E0,1.141897292E1
1.054838189E1,2.897799969E0,1.048689938E1,2.794499874E0,1.123305536E1
1.055838189E1,3.044199944E0,1.055130005E1,2.872299910E0,1.135108774E1
1.056838189E1,3.354300022E0,1.062889957E1,2.815199852E0,1.149565940E1
1.057838189E1,3.668599844E0,1.066129971E1,2.516700029E0,1.155230346E1
1.058838346E1,3.915099859E0,1.064839935E1,1.931699991E0,1.150860029E1
1.059838189E1,4.337399960E0,1.060939980E1,1.055099964E0,1.151024059E1
1.060838189E1,4.483200073E0,1.055309963E1,5.004000068E-1,1.147681990E1
1.061838189E1,4.294300079E0,1.038999939E1,2.712000012E-1,1.124573919E1
1.062838189E1,3.813199997E0,1.024720001E1,3.813000023E-1,1.094033784E1
1.063838189E1,3.251499891E0,1.016319942E1,2.662999928E-1,1.067397722E1
1.064838189E1,3.096099854E0,1.023530006E1,1.977999955E-1,1.069515435E1
1.065838189E1,2.840299845E0,1.041429996E1,2.221999913E-1,1.079695882E1
1.066838189E1,2.297699928E0,1.048499966E1,6.103999615E-1,1.075115021E1
1.067838189E1,1.762499928E0,1.035869980E1,1.314999938E0,1.058953693E1
1.068838189E1,1.324299932E0,1.011339951E1,2.094099998E0,1.041248648E1
1.069838189E1,1.014699936E0,9.964300156E0,2.811800003E0,1.040303383E1
1.070838189E1,7.368999720E-1,9.891799927E0,3.399600029E0,1.048560955E1
1.071838189E1,5.123999715E-1,9.778900146E0,3.785499811E0,1.049854517E1
1.072838189E1,3.628000021E-1,9.606699944E0,3.925799847E0,1.038422901E1
1.073838189E1,2.318999916E-1,9.414999962E0,3.533699989E0,1.005897796E1
1.074838189E1,4.458999932E-1,9.557099342E0,2.806200027E0,9.970543277E0
1.075838189E1,8.625999689E-1,9.865499496E0,2.063400030E0,1.011581824E1
1.076838189E1,3.993999958E-1,9.554100037E0,1.499599934E0,9.679315463E0
1.077838189E1,3.399999812E-3,8.494400024E0,-2.312299967E0,8.803497854E0
1.078838189E1,-1.497000009E-1,7.290199757E0,-2.865900040E0,7.834717967E0
1.079838970E1,-9.097999930E-1,5.850899696E0,-2.995499849E0,6.635795554E0
1.080838189E1,-1.159699917E0,5.865799904E0,-2.591300011E0,6.516697642E0
1.081838189E1,-8.424999714E-1,7.388099670E0,-1.402499914E0,7.567088539E0
1.082838189E1,-1.627599955E0,2.397999913E-1,-2.089299917E0,2.659278058E0
1.083838189E1,-1.490939999E1,-4.072459793E1,-6.882799625E0,4.391077334E1
1.084838970E1,-8.227700233E0,-5.673119736E1,5.044399738E0,5.754624031E1
1.085838189E1,8.489799500E0,-6.164039993E1,1.020170021E1,6.305307516E1
1.086838189E1,1.447550011E1,-4.435569763E1,-3.813399792E0,4.681356677E1
1.087838189E1,6.027199745E0,-2.415649986E1,-4.555500031E0,2.531039713E1
1.088838189E1,-6.750000119E-1,-1.587729931E1,-6.292799950E0,1.709220845E1
1.089838189E1,-1.593500018E0,-1.103569984E1,-7.369899750E0,1.336567752E1
1.090838189E1,-6.529999524E-2,-1.095790005E1,-5.368000031E0,1.220226462E1
1.091838189E1,1.122999936E-1,-1.449829960E1,-4.404500008E0,1.515298396E1
1.092838658E1,-4.861999750E-1,-1.725489998E1,-4.288599968E0,1.778651324E1
1.093838189E1,5.359999835E-2,-1.727739906E1,-3.580499887E0,1.764458474E1
1.094838189E1,-6.149999797E-2,-1.402749920E1,-2.959899902E0,1.433651016E1
1.095838189E1,-4.587999880E-1,-9.407400131E0,-2.374899864E0,9.713383758E0
1.096838189E1,-3.001999855E-1,-4.731199741E0,-2.351099968E0,5.291695577E0
1.097838189E1,2.600000007E-3,-1.031299949E0,-1.723399997E0,2.008405809E0
1.098838189E1,4.210999906E-1,2.141099930E0,-8.827999830E-1,2.353926490E0
1.099838189E1,1.135100007E0,4.984499931E0,-1.139999926E-2,5.112124955E0
1.100838189E1,1.885999918E0,7.404399872E0,2.870000005E-1,7.646208351E0
1.101838189E1,2.728699923E0,9.343099594E0,3.213000000E-1,9.738713826E0
1.102838189E1,3.298199892E0,1.054629993E1,7.673999667E-1,1.107661806E1
1.103838189E1,2.993299961E0,1.097579956E1,1.526499987E0,1.147859847E1
1.104838189E1,3.031100035E0,1.105369949E1,2.428599834E0,1.171622538E1
1.105838189E1,3.435299873E0,1.123169994E1,3.440199852E0,1.223876398E1
1.106838189E1,3.939199924E0,1.143260002E1,3.729199886E0,1.265419184E1
1.107838971E1,4.489699841E0,1.165769958E1,3.045699835E0,1.285829117E1
1.108838346E1,4.678499699E0,1.173999977E1,1.859499931E0,1.277394591E1
1.109838189E1,4.395199776E0,1.145230007E1,8.705999851E-1,1.229759742E1
1.110838189E1,3.947499990E0,1.110629940E1,4.333999753E-1,1.179493442E1
1.111838189E1,3.458799839E0,1.089639950E1,5.710999966E-1,1.144643934E1
1.112838814E1,2.934299946E0,1.069460011E1,8.671000004E-1,1.112368869E1
1.113838189E1,2.518699884E0,1.053999996E1,9.389999509E-1,1.087736959E1
1.114838189E1,2.138499975E0,1.058979988E1,9.772999883E-1,1.084767989E1
1.115838189E1,1.561299920E0,1.069709969E1,1.067600012E0,1.086302761E1
1.116838189E1,7.813999653E-1,1.071490002E1,1.139099956E0,1.080357427E1
1.117839439E1,-3.819999844E-2,1.055569935E1,1.248399973E0,1.062933443E1
1.118838189E1,-7.038999796E-1,1.019079971E1,1.453400016E0,1.031795743E1
1.119838189E1,-9.853000045E-1,9.728499413E0,1.795199990E0,9.941693011E0
1.120838502E1,-7.942000031E-1,9.394599915E0,2.041899920E0,9.646689405E0
1.121838189E1,-3.233999908E-1,8.992400169E0,2.090299845E0,9.237813692E0
1.122838189E1,-2.779999971E-1,8.854700089E0,2.150699854E0,9.116386758E0
1.123838189E1,-3.085999787E-1,8.843699455E0,2.402099848E0,9.169315006E0
1.124838189E1,-3.782999814E-1,8.880899429E0,2.599400043E0,9.261229191E0
1.125838189E1,-3.906999826E-1,8.937099457E0,2.455499887E0,9.276522671E0
1.126838189E1,-4.457999766E-1,9.021999359E0,2.283900023E0,9.317264049E0
1.127838189E1,-7.125999928E-1,9.017499924E0,2.359899998E0,9.348381230E0
1.128838189E1,-9.282999635E-1,8.639200211E0,1.123000026E0,8.761201411E0
1.129838189E1,-8.635999560E-1,7.963899612E0,-2.439000010E-1,8.014299042E0
1.130838189E1,-1.029699922E0,6.665899754E0,-1.078299999E0,6.830609954E0
1.131838189E1,-1.261899948E0,4.658799648E0,-7.275999784E-1,4.881209622E0
1.132838189E1,-4.623600006E0,-6.766499996E0,-3.082700014E0,8.755925913E0
1.133838189E1,-1.252409935E1,-2.624279976E1,-8.083899498E0,3.018090514E1
1.134838189E1,-1.119729996E1,-3.804949951E1,-5.718599796E0,4.007301240E1
1.135838502E1,-3.455600023E0,-4.529869843E1,2.612599850E0,4.550537252E1
1.136838189E1,2.008800030E0,-4.062899780E1,2.109699965E0,4.073329810E1
1.137838189E1,4.194499969E0,-2.921029854E1,3.260699987E0,2.968951894E1
1.138838189E1,4.623899937E0,-2.119639969E1,5.201699734E0,2.230976222E1
1.139838189E1,4.533400059E0,-1.724769974E1,2.877599955E0,1.806420338E1
1.140839439E1,3.051599979E0,-1.775339890E1,-4.580000043E-2,1.801381504E1
1.141838189E1,2.437799931E0,-1.865919876E1,-3.309799910E0,1.910663085E1
1.142838189E1,6.169999838E-1,-1.815369987E1,-7.034199715E0,1.947864148E1
1.143838189E1,-1.175099969E0,-1.664069939E1,-9.214799881E0,1.905797137E1
1.144838189E1,-1.919499993E0,-1.441559982E1,-8.356800079E0,1.677289796E1
1.145838189E1,-1.600299954E0,-1.156540012E1,-5.828099728E0,1.304937494E1
1.146838189E1,-1.624699950E0,-7.942499638E0,-4.104599953E0,9.086841651E0
1.147838189E1,-1.076099992E0,-4.459499836E0,-2.773599863E0,5.360782236E0
1.148838189E1,-9.089999795E-1,-1.136099935E0,-1.636099935E0,2.189480993E0
1.149838189E1,-3.249000013E-1,1.507499933E0,-1.115999937E0,1.903568207E0
1.150838189E1,2.716000080E-1,3.883499861E0,-7.800999880E-1,3.970377025E0
1.151838189E1,9.289000034E-1,6.089799881E0,4.189999774E-2,6.160379324E0
1.152838189E1,1.321299911E0,7.842499733E0,9.218999743E-1,8.006280977E0
1.153838189E1,1.810099959E0,9.368000031E0,1.576099992E0,9.670572766E0
1.154838189E1,1.893899918E0,1.014789963E1,2.095000029E0,1.053355348E1
1.155838189E1,1.591799974E0,1.027139950E1,2.601799965E0,1.071470195E1
1.156838189E1,1.661999941E0,1.034709930E1,3.230700016E0,1.096640918E1
1.157838189E1,2.007900000E0,1.052320004E1,3.839399815E0,1.138026328E1
1.158838346E1,2.342099905E0,1.072209930E1,3.993199825E0,1.167880517E1
1.159838189E1,2.444099903E0,1.088579941E1,3.714299917E0,1.175883825E1
1.160839283E1,2.399099827E0,1.080770016E1,2.873299837E0,1.143756594E1
1.161838189E1,2.324800014E0,1.063409996E1,1.705099940E0,1.101799178E1
1.162838189E1,2.331500053E0,1.073610020E1,8.188999891E-1,1.101682065E1
1.163838189E1,2.470899820E0,1.087739944E1,1.604999900E-1,1.115566784E1
1.164838189E1,2.725199938E0,1.091079998E1,-1.635999978E-1,1.124717902E1
1.165839439E1,3.047199965E0,1.086609936E1,-8.129999787E-2,1.128557276E1
1.166838189E1,3.418499947E0,1.074349976E1,2.140999883E-1,1.127629228E1
1.167838189E1,3.807199955E0,1.068060017E1,3.296000063E-1,1.134366024E1
1.168838189E1,4.002900124E0,1.073610020E1,2.462999970E-1,1.146070332E1
1.169838189E1,4.082200050E0,1.074259949E1,1.489999983E-2,1.149208523E1
1.170838814E1,3.994999886E0,1.075809956E1,-1.460999995E-1,1.147684954E1
1.171838189E1,3.617199898E0,1.070310020E1,2.161999941E-1,1.129987750E1
1.172840220E1,2.601300001E0,1.019429970E1,6.498000026E-1,1.054100318E1
1.173838189E1,1.371999979E0,9.643699646E0,1.024199963E0,9.794504192E0
1.174838189E1,5.801999569E-1,9.443900108E0,1.525699973E0,9.583926213E0
1.175838189E1,1.639000028E-1,9.399799347E0,2.153699875E0,9.644766152E0
1.176838189E1,-1.027999967E-1,9.286999702E0,2.522399902E0,9.624002940E0
1.177838189E1,-2.246999890E-1,8.920299530E0,2.039200068E0,9.153172713E0
1.178838189E1,-7.113999724E-1,8.436599731E0,3.749999776E-2,8.466623365E0
1.179838189E1,-2.240099907E0,6.471999645E0,-4.382400036E0,8.130821427E0
1.180838189E1,-8.763999939E-1,6.876299858E0,-3.966999948E-1,6.943266348E0
1.181838189E1,-7.067999840E-1,7.309499741E0,-7.099999487E-2,7.343935844E0
1.182838189E1,-6.129999757E-1,7.596299648E0,-1.390399933E0,7.746789612E0
1.183838189E1,-3.813000023E-1,6.772699833E0,-1.560699940E0,6.960649181E0
1.184838189E1,-4.052199841E0,-1.145249939E1,-1.520900011E0,1.224308795E1
1.185838189E1,-1.861219978E1,-5.762559891E1,-3.972099781E0,6.068691133E1
1.186838189E1,-3.245299816E0,-6.353590012E1,1.210569954E1,6.476025429E1
1.187838189E1,5.369400024E0,-5.819579697E1,6.194200039E0,5.877031015E1
1.188838189E1,9.048999786E0,-3.384569931E1,-2.059900045E0,3.509499889E1
1.189838189E1,1.276099920E0,-1.920439911E1,-8.058899879E0,2.086583915E1
1.190838971E1,-3.872499943E0,-1.345199966E1,-1.085379982E1,1.771320189E1
1.191838189E1,-4.376399994E0,-1.202429962E1,-9.053299904E0,1.567478540E1
1.192838189E1,-2.055799961E0,-1.412659931E1,-5.534800053E0,1.531081752E1
1.193838189E1,-1.099900007E0,-1.572009945E1,-1.244699955E0,1.580761161E1
1.194838189E1,-1.221199989E0,-1.614970016E1,1.612399936E0,1.627587105E1
1.195838189E1,-3.109000027E-1,-1.429649925E1,2.205299854E0,1.446892868E1
1.196838189E1,3.799999831E-3,-1.134679985E1,2.043699980E0,1.152937947E1
1.197838189E1,3.790999949E-1,-7.509099960E0,1.539499998E0,7.674656948E0
1.198838189E1,7.770999670E-1,-3.305999994E0,1.144299984E0,3.583705174E0
1.199838189E1,1.546999931E0,3.240999877E-1,7.889999747E-1,1.766570279E0
1.200838189E1,2.237799883E0,3.314699888E0,3.200999796E-1,4.012162467E0
1.201838189E1,2.600899935E0,5.930799961E0,-1.929999888E-2,6.476066795E0
1.202839127E1,2.476699829E0,8.124099731E0,-3.635999858E-1,8.501014259E0
1.203838189E1,2.326200008E0,9.924499512E0,-5.622999668E-1,1.020897048E1
1.204838189E1,2.189199924E0,1.077349949E1,-5.033000112E-1,1.100518961E1
1.205838189E1,2.027199984E0,1.078889942E1,-4.698999822E-1,1.098775211E1
1.206838189E1,2.168299913E0,1.079439926E1,-4.814999998E-1,1.102054546E1
1.207838189E1,2.368199825E0,1.108430004E1,-6.579999924E-1,1.135354754E1
1.208838346E1,2.605999947E0,1.151239967E1,-9.969999790E-1,1.184569926E1
1.209838189E1,2.987699986E0,1.184469986E1,-1.399399996E0,1.229559215E1
1.210838189E1,3.395099878E0,1.177779961E1,-1.575599909E0,1.235822729E1
1.211838189E1,3.827600002E0,1.151799965E1,-1.337700009E0,1.221082630E1
1.212838189E1,4.354499817E0,1.098600006E1,-6.978999972E-1,1.183811346E1
1.213838189E1,4.944999695E0,1.058349991E1,1.460999995E-1,1.168267253E1
1.214838189E1,5.232100010E0,1.036959934E1,1.072199941E0,1.166417909E1
1.215838189E1,4.974599838E0,1.000169945E1,1.903800011E0,1.133159697E1
1.216838189E1,4.359299660E0,9.676199913E0,2.279399872E0,1.085486076E1
1.217838189E1,3.724999905E0,9.578899384E0,2.316799879E0,1.053558254E1
1.218838189E1,3.195699930E0,9.522600174E0,2.090100050E0,1.025967496E1
1.219838189E1,2.893899918E0,9.496399879E0,1.756799936E0,1.008179614E1
1.220838189E1,2.596199989E0,9.411199570E0,1.447799921E0,9.869501322E0
1.221838189E1,2.294499874E0,9.305500031E0,1.176399946E0,9.656136770E0
1.222838189E1,2.118399858E0,9.247099876E0,1.004099965E0,9.539637877E0
1.223839752E1,2.176100016E0,9.274999619E0,9.035999775E-1,9.569614523E0
1.224838189E1,2.335500002E0,9.241999626E0,5.934999585E-1,9.550987360E0
1.225838189E1,2.386399984E0,9.147899628E0,9.167999625E-1,9.498394320E0
1.226838814E1,2.166300058E0,8.944399834E0,1.657400012E0,9.351049092E0
1.227838189E1,1.569599986E0,8.799300194E0,1.676399946E0,9.094044469E0
1.228838189E1,9.977999926E-1,8.947999954E0,1.279299974E0,9.093894459E0
1.229838189E1,6.856999993E-1,8.791799545E0,7.196999788E-1,8.847818477E0
1.230838189E1,-9.109999985E-2,8.084799767E0,-2.358099937E0,8.422168473E0
1.231838189E1,3.495000005E-1,7.382599831E0,-2.645999789E-1,7.395602995E0
1.232838189E1,2.701999843E-1,7.490900040E0,1.313699961E0,7.610019647E0
1.233838189E1,2.534999847E-1,7.444900036E0,8.100000024E-2,7.449655011E0
1.234838189E1,3.892999887E-1,4.361099720E0,-5.586000085E-1,4.413930133E0
1.235838189E1,-6.096399784E0,-2.107049942E1,-3.988099813E0,2.229432610E1
1.236838502E1,-7.462999821E0,-4.450650024E1,-8.400999904E-1,4.513569207E1
1.237838189E1,4.828599930E0,-5.233250046E1,9.896900177E0,5.347854350E1
1.238838189E1,1.346910000E1,-5.306900024E1,5.691299915E0,5.504658333E1
1.239838189E1,9.993299484E0,-3.674819946E1,-4.235899925E0,3.831760753E1
1.240838189E1,-4.625999928E-1,-2.208899879E1,-1.164779949E1,2.497617063E1
1.241838502E1,-3.680799961E0,-1.355349922E1,-1.581469917E1,2.115065813E1
1.242838189E1,-4.639599800E0,-1.020599937E1,-1.310579967E1,1.724674736E1
1.243838189E1,-4.980599880E0,-1.132189941E1,-6.930299759E0,1.417818170E1
1.244838189E1,-4.982199669E0,-1.354640007E1,-1.463799953E0,1.450758349E1
1.245838189E1,-4.923500061E0,-1.489739990E1,9.763999581E-1,1.572026506E1
1.246838189E1,-3.551299810E0,-1.418879986E1,1.959199905E0,1.475710798E1
1.247838189E1,-1.917899966E0,-1.281639957E1,1.645900011E0,1.306320884E1
1.248838189E1,-8.933999538E-1,-1.055299950E1,1.018000007E0,1.063956230E1
1.249838189E1,-5.263999701E-1,-6.792599678E0,5.834000111E-1,6.837899011E0
1.250838189E1,-2.410000004E-2,-3.005299807E0,2.678000033E-1,3.017304191E0
1.251838189E1,1.115599990E0,4.759999812E-1,2.983999848E-1,1.249072404E0
1.252838189E1,2.000499964E0,3.348399878E0,7.299999893E-2,3.901167882E0
1.253838502E1,2.358199835E0,5.779599667E0,1.411999911E-1,6.243782203E0
1.254838189E1,2.450399876E0,7.946799755E0,-5.139999837E-2,8.316172669E0
1.255838189E1,2.507200003E0,9.614699364E0,-3.585999906E-1,9.942690263E0
1.256838189E1,2.411599874E0,1.061639977E1,-2.655999959E-1,1.089010107E1
1.257838189E1,2.025500059E0,1.093249989E1,1.429999992E-2,1.111856145E1
1.258838346E1,1.761999965E0,1.094559956E1,1.567000002E-1,1.108762140E1
1.259838189E1,1.820299983E0,1.099860001E1,3.375999928E-1,1.115332542E1
1.260838189E1,2.054199934E0,1.110109997E1,5.471999645E-1,1.130281317E1
1.261838189E1,2.364699841E0,1.115509987E1,8.432999849E-1,1.143412495E1
1.262838189E1,2.790199995E0,1.114149952E1,1.311100006E0,1.156015617E1
1.263838189E1,3.211599827E0,1.096280003E1,1.670300007E0,1.154501018E1
1.264838189E1,3.530799866E0,1.074730015E1,1.728099942E0,1.144365927E1
1.265838189E1,3.659600019E0,1.052509975E1,1.634499907E0,1.126241480E1
1.266838189E1,3.647199869E0,1.043349934E1,1.604099989E0,1.116839792E1
1.267838189E1,3.651199818E0,1.043289948E1,1.717099905E0,1.118593240E1
1.268838189E1,3.434099913E0,1.041479969E1,1.750599980E0,1.110521027E1
1.269838189E1,2.867399931E0,1.032929993E1,1.404899955E0,1.081157543E1
1.270838189E1,2.365599871E0,1.029269981E1,1.156099916E0,1.062413758E1
1.271838189E1,1.885299921E0,1.029360008E1,1.008700013E0,1.051332650E1
1.272838189E1,1.480399966E0,1.030179977E1,9.249999523E-1,1.044865004E1
1.273838189E1,1.214399934E0,1.024870014E1,8.554999828E-1,1.035579558E1
1.274838189E1,8.938999772E-1,9.947899818E0,1.034199953E0,1.004138126E1
1.275838189E1,5.123999715E-1,9.507899284E0,1.301399946E0,9.610220827E0
1.276838189E1,3.375999928E-1,9.037400246E0,1.770799994E0,9.215438653E0
1.277838189E1,1.718000025E-1,8.733300209E0,1.967599988E0,8.953853779E0
1.278838189E1,2.234999985E-1,8.703700066E0,1.489099979E0,8.832993028E0
1.279838189E1,2.608000040E-1,8.986800194E0,1.283499956E0,9.081738077E0
1.280838189E1,-2.529999986E-2,9.071100235E0,1.085600019E0,9.135864872E0
1.281838189E1,-3.605999947E-1,8.818599701E0,1.499999966E-2,8.825981987E0
1.282838189E1,-3.340999782E-1,7.503099918E0,-1.131799936E0,7.595334244E0
1.283838189E1,-5.497999787E-1,5.664299965E0,-1.465999961E0,5.876710814E0
1.284838189E1,-4.648999870E-1,6.750599861E0,-5.239999890E-1,6.786848051E0
1.285838189E1,-1.808200002E0,-3.008999825E-1,-1.926799893E0,2.659452176E0
1.286838189E1,-9.998199463E0,-2.246659851E1,-4.169499874E0,2.494186782E1
1.287838189E1,-8.709699631E0,-3.390200043E1,-2.546599865E0,3.509543662E1
1.288839127E1,2.558099985E0,-3.454610062E1,3.349200010E0,3.480221378E1
1.289838189E1,4.881599903E0,-3.197649956E1,4.151999950E-1,3.234963574E1
1.290838189E1,3.706099987E0,-2.882719994E1,-2.307000011E-1,2.906537211E1
1.291838189E1,3.021999836E0,-2.279959869E1,-2.904999852E-1,2.300083855E1
1.292838189E1,3.812500000E0,-1.733029938E1,-3.794099808E0,1.814578811E1
1.293839439E1,2.786000013E0,-1.616090012E1,-6.004499912E0,1.746397743E1
1.294838189E1,5.731999874E-1,-1.748200035E1,-7.100599766E0,1.887769614E1
1.295838189E1,-9.355999827E-1,-1.744700050E1,-7.166699886E0,1.888477591E1
1.296838502E1,-1.440599918E0,-1.633160019E1,-4.239299774E0,1.693423029E1
1.297838189E1,-1.653299928E0,-1.525459957E1,-1.356400013E0,1.540376674E1
1.298838189E1,-1.519599915E0,-1.371210003E1,3.750999868E-1,1.380114383E1
1.299838189E1,-1.564700007E0,-1.150119972E1,2.060299873E0,1.178858417E1
1.300838189E1,-2.353899956E0,-9.261400223E0,2.616600037E0,9.907622058E0
1.301838189E1,-2.611500025E0,-6.904099941E0,2.539399862E0,7.806092495E0
1.302838189E1,-1.999799967E0,-4.420300007E0,2.451599836E0,5.435861828E0
1.303838189E1,-1.134599924E0,-1.566100001E0,2.141999960E0,2.885853432E0
1.304838189E1,-5.794999599E-1,1.284799933E0,1.802599907E0,2.288208360E0
1.305838189E1,6.059999764E-2,3.976199865E0,1.897799969E0,4.406300313E0
1.306838189E1,9.088000059E-1,6.253900051E0,1.798799992E0,6.570606114E0
1.307838189E1,1.530099988E0,8.001699448E0,1.564199924E0,8.295488016E0
1.308838346E1,2.091599941E0,9.553599358E0,1.312299967E0,9.867531718E0
1.309838189E1,2.270999908E0,1.035120010E1,1.014699936E0,1.064586305E1
1.310838189E1,2.167899847E0,1.060059929E1,7.912999988E-1,1.084890090E1
1.311838189E1,2.423699856E0,1.072340012E1,4.079999924E-1,1.100145877E1
1.312838189E1,2.843499899E0,1.094519997E1,-6.599999964E-3,1.130853384E1
1.313838189E1,3.406399965E0,1.123670006E1,-5.685999990E-1,1.175543682E1
1.314838189E1,3.962199926E0,1.154949951E1,-1.421800017E0,1.229274105E1
1.315839439E1,4.536999702E0,1.158949947E1,-2.345599890E0,1.266501888E1
1.316838189E1,5.304500103E0,1.137669945E1,-2.912299871E0,1.288598084E1
1.317838189E1,5.988599777E0,1.093050003E1,-2.812599897E0,1.277692750E1
1.318838189E1,5.879099846E0,1.043750000E1,-1.681399941E0,1.209678995E1
1.319838189E1,4.436699867E0,9.711099625E0,-1.718000025E-1,1.067798094E1
1.320838658E1,2.955099821E0,9.456199646E0,6.680999994E-1,9.929687020E0
1.321838189E1,1.779099941E0,9.436100006E0,1.145299911E0,9.670413218E0
1.322838189E1,8.082999587E-1,9.571599960E0,6.098999977E-1,9.625011825E0
1.323838189E1,4.213999808E-1,9.724999428E0,6.604999900E-1,9.756508189E0
1.324838189E1,1.777999997E-1,9.739500046E0,1.208999991E0,9.815862416E0
1.325838189E1,3.920000046E-2,9.703899384E0,1.467000008E0,9.814239090E0
1.326838189E1,-4.250000045E-2,9.726499557E0,1.580299973E0,9.854133544E0
1.327838189E1,-3.779999912E-2,9.738699913E0,1.569800019E0,9.864480571E0
1.328838814E1,5.229999870E-2,9.632699966E0,1.574800014E0,9.760719186E0
1.329838189E1,1.675999910E-1,9.447699547E0,1.440299988E0,9.558325195E0
1.330838189E1,3.061999977E-1,9.262100220E0,1.355399966E0,9.365755068E0
1.331838189E1,2.782999873E-1,8.899299622E0,1.162999943E-1,8.904409600E0
1.332838189E1,1.960000023E-2,8.377300262E0,-2.622999847E-1,8.381428585E0
1.333838189E1,4.175999761E-1,8.126299858E0,1.463799953E0,8.267638685E0
1.334838189E1,3.287000060E-1,7.601799965E0,1.394899964E0,7.735706323E0
1.335838189E1,1.811999977E-1,6.111000061E0,6.875000000E-1,6.152220041E0
1.336839127E1,-3.871199846E0,-4.134599686E0,-1.345799923E0,5.821707674E0
1.337838189E1,-1.028319931E1,-2.230319977E1,-4.012899876E0,2.488534254E1
1.338838189E1,-7.442100048E0,-3.231119919E1,-1.613999963E0,3.319643719E1
1.339838189E1,-1.858000010E-1,-3.713079834E1,2.246099949E0,3.719913537E1
1.340838189E1,3.644500017E0,-3.702409744E1,2.793799877E0,3.730779395E1
1.341838814E1,4.214099884E0,-3.098649979E1,1.732199907E0,3.131967949E1
1.342838189E1,4.129899979E0,-2.382359886E1,-1.920000017E-1,2.417967743E1
1.343838189E1,3.285799980E0,-2.009070015E1,-2.739399910E0,2.054110576E1
1.344838189E1,1.239399910E0,-1.982919884E1,-5.107299805E0,2.051384289E1
1.345838189E1,-1.615099907E0,-1.993280029E1,-6.801599979E0,2.112313512E1
1.346839283E1,-3.907399893E0,-1.846899986E1,-6.695399761E0,2.002998022E1
1.347838189E1,-4.112299919E0,-1.610459900E1,-5.312399864E0,1.744966223E1
1.348838189E1,-4.034199715E0,-1.392799950E1,-3.963499784E0,1.503240725E1
1.349838189E1,-3.729899883E0,-1.182219982E1,-2.761699915E0,1.270053338E1
1.350838189E1,-2.669399977E0,-8.777799606E0,-9.415999651E-1,9.222910206E0
1.351838970E1,-1.961399913E0,-5.657999992E0,4.942999780E-1,6.008692537E0
1.352838189E1,-1.794199944E0,-2.393499851E0,7.082999945E-1,3.074033809E0
1.353838189E1,-8.931999803E-1,5.745999813E-1,9.637999535E-1,1.434183285E0
1.354838189E1,4.643999934E-1,3.589900017E0,1.276999950E0,3.838460415E0
1.355838189E1,1.910099983E0,6.466399670E0,1.428200006E0,6.892210233E0
1.356839283E1,3.104799986E0,8.744299889E0,1.356699944E0,9.377803486E0
1.357838189E1,3.760200024E0,1.021899986E1,1.401899934E0,1.097872424E1
1.358838189E1,3.580099821E0,1.087199974E1,1.434000015E0,1.153576392E1
1.359838189E1,3.437500000E0,1.085099983E1,1.558099985E0,1.148861520E1
1.360838189E1,3.945699930E0,1.093079948E1,2.113600016E0,1.181178354E1
1.361838658E1,4.769700050E0,1.118139935E1,2.267199993E0,1.236583704E1
1.362838189E1,5.766699791E0,1.149639988E1,1.679999948E0,1.297090731E1
1.363838189E1,6.300099850E0,1.158269978E1,9.242999554E-1,1.321758384E1
1.364838189E1,6.226099968E0,1.136109924E1,1.587999910E-1,1.295623843E1
1.365838189E1,5.722300053E0,1.103549957E1,-3.583999872E-1,1.243605320E1
1.366838189E1,4.783999920E0,1.064279938E1,-6.491000056E-1,1.168662332E1
1.367838189E1,3.304800034E0,1.004319954E1,-1.143499970E0,1.063462046E1
1.368838189E1,2.112099886E0,9.763899803E0,-1.397199988E0,1.008696551E1
1.369838189E1,1.453299999E0,9.705499649E0,-1.445899963E0,9.919648735E0
1.370838189E1,1.117900014E0,9.710999489E0,-1.201799989E0,9.848732646E0
1.371839127E1,9.512999654E-1,1.006540012E1,-4.429999888E-1,1.011995555E1
1.372838189E1,7.881999612E-1,1.038689995E1,7.651000023E-1,1.044482301E1
1.373838189E1,3.947999775E-1,1.054939938E1,2.099699974E0,1.076356977E1
1.374838189E1,1.247999966E-1,1.056400013E1,3.120800018E0,1.101603679E1
1.375838189E1,-2.087000012E-1,1.016729927E1,3.409499884E0,1.072577361E1
1.376838658E1,-2.245999873E-1,9.614899635E0,3.171399832E0,1.012692041E1
1.377838189E1,-1.409999933E-2,9.337900162E0,2.864199877E0,9.767303577E0
1.378838189E1,-4.449999705E-2,9.247399330E0,2.699800014E0,9.633550474E0
1.379838189E1,-1.231999993E-1,9.166600227E0,2.631099939E0,9.537527188E0
1.380838189E1,-2.529000044E-1,9.114999771E0,2.500999928E0,9.455272597E0
1.381838502E1,-4.649999738E-1,9.151399612E0,2.377799988E0,9.466692803E0
1.382838189E1,-6.135999560E-1,9.206999779E0,1.966799974E0,9.434704657E0
1.383839752E1,-8.163999915E-1,8.918899536E0,1.179499984E0,9.033520803E0
1.384838189E1,-1.077999949E0,8.472800255E0,1.084999919E0,8.609741743E0
1.385838189E1,-1.136999965E0,8.045599937E0,1.595299959E0,8.280665990E0
1.386838189E1,-1.134400010E0,7.560799599E0,1.317899942E0,7.758183693E0
1.387838189E1,-4.450799942E0,-3.003499985E0,-4.900999963E-1,5.391737224E0
1.388838189E1,-1.347900009E1,-2.307649994E1,-3.050899982E0,2.689825800E1
1.389838189E1,-1.187069988E1,-3.356299973E1,-3.803299904E0,3.580298251E1
1.390838189E1,-3.424799919E0,-3.742110062E1,-2.367599964E0,3.765200599E1
1.391838189E1,2.201200008E0,-3.737269974E1,4.866999984E-1,3.744063092E1
1.392838189E1,4.540899754E0,-3.037369919E1,3.854499817E0,3.095219769E1
1.393838189E1,5.157099724E0,-2.167499924E1,3.649299860E0,2.257694973E1
1.394838189E1,6.407899857E0,-1.767239952E1,1.037999988E0,1.882690440E1
1.395838189E1,6.128399849E0,-1.799339867E1,-3.914999962E-1,1.901244205E1
1.396838189E1,2.829799891E0,-1.970639992E1,-3.190699816E0,2.016260227E1
1.397838189E1,-1.088899970E0,-1.873060036E1,-7.674899578E0,2.027128946E1
1.398838189E1,-4.519499779E0,-1.652239990E1,-9.666199684E0,1.966852799E1
1.399838189E1,-6.603600025E0,-1.411749935E1,-8.428500175E0,1.771866068E1
1.400838189E1,-5.616499901E0,-1.153629971E1,-5.387899876E0,1.391620448E1
1.401838189E1,-3.658299923E0,-9.015399933E0,-1.472899914E0,9.840225019E0
1.402838189E1,-2.838099957E0,-7.517499924E0,6.705999970E-1,8.063331869E0
1.403838189E1,-2.323099852E0,-6.032700062E0,1.347299933E0,6.603444561E0
1.404838189E1,-1.517199993E0,-3.668299913E0,1.610000014E0,4.283739035E0
1.405838189E1,-8.871999979E-1,-7.770999670E-1,1.454299927E0,1.872430632E0
1.406838189E1,7.440000027E-2,2.327499866E0,1.540399909E0,2.792064266E0
1.407838189E1,1.021000028E0,4.969399929E0,1.457399964E0,5.278389088E0
1.408838189E1,2.262699842E0,7.541499615E0,1.157599926E0,7.958270202E0
1.409838189E1,3.227200031E0,9.436599731E0,5.738999844E-1,9.989674455E0
1.410838189E1,3.332499981E0,1.041049957E1,4.144999981E-1,1.093873246E1
1.411838189E1,3.195899963E0,1.055179977E1,2.417999953E-1,1.102781584E1
1.412838189E1,3.653499842E0,1.057639980E1,3.048000038E-1,1.119380172E1
1.413838189E1,4.468599796E0,1.080840015E1,7.798999548E-1,1.172169535E1
1.414838189E1,5.624599934E0,1.115180016E1,1.475999951E0,1.257685760E1
1.415838189E1,6.582399845E0,1.150089931E1,2.064599991E0,1.341123581E1
1.416838189E1,6.498699665E0,1.145599937E1,2.023699999E0,1.332547863E1
1.417838189E1,5.832499981E0,1.106559944E1,1.309700012E0,1.257699730E1
1.418838189E1,5.019399643E0,1.078859997E1,6.092999578E-1,1.191467618E1
1.419838189E1,4.108399868E0,1.063189983E1,4.092999995E-1,1.140542722E1
1.420838189E1,3.220299959E0,1.052409935E1,6.879999489E-2,1.100598621E1
1.421838189E1,2.532399893E0,1.045389938E1,-4.451999962E-1,1.076546630E1
1.422838189E1,2.021499872E0,1.044969940E1,-8.571999669E-1,1.067789638E1
1.423838189E1,1.456699967E0,1.046229935E1,-7.361999750E-1,1.058884662E1
1.424838189E1,9.217999578E-1,1.039379978E1,-4.997999966E-1,1.044655872E1
1.425838189E1,5.102999806E-1,1.027390003E1,-2.404999882E-1,1.028937647E1
1.426838189E1,2.960000001E-2,1.004419994E1,-8.460000157E-2,1.004459983E1
1.427838189E1,-3.992999792E-1,9.665599823E0,1.403999925E-1,9.674862923E0
1.428838189E1,-7.959999889E-2,9.471499443E0,3.529999852E-1,9.478409511E0
1.429838189E1,3.127999902E-1,9.168299675E0,3.996999860E-1,9.182337548E0
1.430839439E1,5.008000135E-1,8.972000122E0,4.005999863E-1,8.994891172E0
1.431838189E1,7.524999976E-1,8.862999916E0,5.424000025E-1,8.911409626E0
1.432838189E1,1.052199960E0,8.703899384E0,1.080899954E0,8.833647828E0
1.433838189E1,1.362599969E0,8.612099648E0,2.298699856E0,9.017148110E0
1.434838189E1,1.559700012E0,8.637000084E0,2.987900019E0,9.271352711E0
1.435838189E1,1.241799951E0,8.289199829E0,1.982399940E0,8.612944354E0
1.436838189E1,9.534999728E-1,7.186499596E0,-9.745999575E-1,7.314696420E0
1.437838189E1,6.119999886E-1,3.182999790E-1,-5.775199890E0,5.816252456E0
1.438838189E1,-5.019399643E0,-1.516839981E1,-6.686499596E0,1.732004626E1
1.439838189E1,-1.259589958E1,-2.904549980E1,-5.795300007E0,3.218514016E1
1.440838189E1,-8.448200226E0,-4.050539780E1,5.228600025E0,4.170608584E1
1.441838502E1,8.581999779E0,-4.626329803E1,8.906499863E0,4.788809043E1
1.442838189E1,1.159140015E1,-3.233829880E1,-1.521499991E0,3.438664114E1
1.443838189E1,2.146199942E0,-2.093799973E1,-5.032499790E0,2.164098105E1
1.444838189E1,-9.167999625E-1,-1.468129921E1,-4.878699780E0,1.549783147E1
1.445838189E1,-6.961999536E-1,-1.348369980E1,-5.281499863E0,1.449789969E1
1.446838189E1,-7.470999956E-1,-1.645179939E1,-5.372699738E0,1.732298370E1
1.447838189E1,-1.303699970E0,-1.899790001E1,-3.433899879E0,1.934971593E1
1.448838189E1,-8.758999705E-1,-1.916399956E1,-1.373600006E0,1.923311875E1
1.449838189E1,-2.746999860E-1,-1.755609894E1,-4.165000021E-1,1.756318713E1
1.450839596E1,3.109999932E-2,-1.467519951E1,3.199999779E-2,1.467526735E1
1.451838189E1,1.277000010E-1,-1.084490013E1,1.460999995E-1,1.084663595E1
1.452838189E1,3.355999887E-1,-7.016499996E0,1.280999929E-1,7.025689230E0
1.453839127E1,3.407000005E-1,-3.895799875E0,1.877999902E-1,3.915175857E0
1.454838189E1,-2.342000008E-1,-9.724999666E-1,1.647000015E-1,1.013771136E0
1.455838189E1,-2.745999992E-1,2.086199999E0,1.739999950E-1,2.111376706E0
1.456838189E1,6.539999694E-2,4.888000011E0,8.069999516E-2,4.889103574E0
1.457838189E1,5.275999904E-1,7.129399776E0,-8.549999446E-2,7.149406491E0
1.458838189E1,1.256099939E0,8.918600082E0,-1.670999974E-1,9.008170563E0
1.459838189E1,2.070800066E0,1.021729946E1,-3.581999838E-1,1.043119017E1
1.460838189E1,2.271499872E0,1.082019997E1,-2.149999887E-1,1.105814921E1
1.461838189E1,2.171599865E0,1.088469982E1,1.349000037E-1,1.110003307E1
1.462838189E1,2.194900036E0,1.089130020E1,4.064999819E-1,1.111769978E1
1.463838189E1,2.343600035E0,1.089900017E1,6.633999944E-1,1.116784515E1
1.464838189E1,2.480299950E0,1.089849949E1,7.522999644E-1,1.120246108E1
1.465838658E1,2.594899893E0,1.090989971E1,7.198999524E-1,1.123733390E1
1.466838189E1,2.697499990E0,1.094349957E1,5.620999932E-1,1.128506293E1
1.467838189E1,2.848199844E0,1.085239983E1,3.919999897E-1,1.122677551E1
1.468838189E1,2.950599909E0,1.045020008E1,5.026999712E-1,1.087039230E1
1.469838189E1,3.026799917E0,1.018709946E1,8.797999620E-1,1.066360919E1
1.470839283E1,3.105599880E0,1.007249928E1,1.139199972E0,1.060178140E1
1.471838189E1,3.125499964E0,1.010610008E1,1.393999934E0,1.066982871E1
1.472838189E1,3.094799995E0,1.014089966E1,1.763700008E0,1.074831478E1
1.473838189E1,2.795500040E0,1.009869957E1,2.081399918E0,1.068320079E1
1.474838189E1,2.228100061E0,9.969399452E0,1.894099951E0,1.038946437E1
1.475838189E1,1.602699995E0,9.771999359E0,1.552199960E0,1.002346963E1
1.476838189E1,1.210099936E0,9.642999649E0,1.317899942E0,9.807580963E0
1.477838189E1,1.104499936E0,9.316899300E0,1.130200028E0,9.449967448E0
1.478838189E1,1.317600012E0,9.097700119E0,1.214800000E0,9.272537748E0
1.479838189E1,1.776199937E0,9.044799805E0,1.474399924E0,9.334727894E0
1.480838189E1,2.307199955E0,9.011899948E0,1.543900013E0,9.429800611E0
1.481838189E1,3.032099962E0,9.294300079E0,1.223199964E0,9.852606878E0
1.482838814E1,3.422999859E0,9.480299950E0,8.763999939E-1,1.011736587E1
1.483838189E1,3.059999943E0,9.226099968E0,1.518399954E0,9.838193873E0
1.484838189E1,1.944599986E0,8.942399979E0,2.560600042E0,9.502876357E0
1.485838189E1,1.664799929E0,8.804299355E0,2.125599861E0,9.208985867E0
1.486838189E1,1.349900007E0,7.428099632E0,-3.503099918E0,8.322896324E0
1.487838189E1,6.620999575E-1,5.113999844E0,-8.572500229E0,1.000395576E1
1.488838189E1,1.692999899E-1,3.920099974E0,-7.708499908E0,8.649671504E0
1.489838189E1,-4.234999657E0,-5.709699631E0,-4.989399910E0,8.685044814E0
1.490838189E1,-1.164009953E1,-2.525860023E1,-1.895199895E0,2.787616519E1
1.491838189E1,-2.485800028E0,-3.903809738E1,7.707999706E0,3.986935551E1
1.492838189E1,1.414779949E1,-4.583879852E1,1.347569942E1,4.982920986E1
1.493838189E1,1.028579998E1,-3.725439835E1,5.152899742E0,3.899025844E1
1.494838189E1,3.821099997E0,-2.503499985E1,7.189999521E-2,2.532503094E1
1.495838189E1,1.296000004E0,-1.712159920E1,-4.435699940E0,1.773426652E1
1.496838189E1,-1.340000033E-1,-1.386579990E1,-7.737499714E0,1.587914559E1
1.497838189E1,-2.200000048E0,-1.298769951E1,-9.639200211E0,1.632282204E1
1.498838189E1,-3.727199793E0,-1.269779968E1,-8.269299507E0,1.560472523E1
1.499838189E1,-4.412699699E0,-1.270930004E1,-4.842999935E0,1.429870185E1
1.500838189E1,-3.970199823E0,-1.316169930E1,-1.380299926E0,1.381658579E1
1.501838189E1,-2.776199818E0,-1.370160007E1,2.832999825E-1,1.398289630E1
1.502838189E1,-1.633399963E0,-1.357479954E1,3.057000041E-1,1.367613361E1
1.503838189E1,-5.830000043E-1,-1.221379948E1,-3.718999922E-1,1.223335997E1
1.504838189E1,1.194599986E0,-9.354899406E0,-1.237699986E0,9.511735556E0
1.505838189E1,3.039399862E0,-5.724199772E0,-2.409699917E0,6.914554811E0
1.506838189E1,3.675099850E0,-2.057299852E0,-3.506500006E0,5.480363480E0
1.507838189E1,3.387899876E0,1.146000028E0,-3.778599977E0,5.202787659E0
1.508838346E1,2.796000004E0,3.337699890E0,-2.906299829E0,5.234924572E0
1.509838189E1,2.244799852E0,5.351799965E0,-1.140599966E0,5.914546265E0
1.510838189E1,2.069700003E0,7.277499676E0,4.950999916E-1,7.582267710E0
1.511838189E1,1.958199978E0,8.693699837E0,1.125100017E0,8.982249944E0
1.512838189E1,1.910200000E0,9.659899712E0,9.696999788E-1,9.894586627E0
1.513838189E1,1.699999928E0,1.026439953E1,7.206000090E-1,1.042914962E1
1.514838189E1,1.415699959E0,1.056599998E1,7.476999760E-1,1.068660925E1
1.515839283E1,1.196799994E0,1.053479958E1,9.081999660E-1,1.064138898E1
1.516838189E1,1.143800020E0,1.045510006E1,1.007499933E0,1.056562596E1
1.517838189E1,1.160499930E0,1.041479969E1,1.036100030E0,1.053035213E1
1.518838189E1,1.120000005E0,1.041370010E1,9.641000032E-1,1.051803397E1
1.519838189E1,1.032699943E0,1.036349964E1,8.984999657E-1,1.045351119E1
1.520839283E1,9.296000004E-1,1.035229969E1,1.141299963E0,1.045642533E1
1.521838189E1,8.218999505E-1,1.038990021E1,1.620000005E0,1.054750899E1
1.522838189E1,6.911000013E-1,1.034939957E1,1.934599996E0,1.055132066E1
1.523838189E1,6.168000102E-1,1.028069973E1,1.977899909E0,1.048738849E1
1.524838189E1,6.194999814E-1,1.020359993E1,2.031800032E0,1.042235305E1
1.525838658E1,5.623999834E-1,1.018680000E1,1.969899893E0,1.039075039E1
1.526838189E1,6.219999790E-1,1.017109966E1,1.882900000E0,1.036259932E1
1.527838189E1,7.002999783E-1,1.021500015E1,1.735399961E0,1.038500174E1
1.528838189E1,7.376999855E-1,1.025939941E1,1.481099963E0,1.039197453E1
1.529838189E1,9.110999703E-1,1.024510002E1,1.081799984E0,1.034226614E1
1.530839283E1,1.240199924E0,1.013269997E1,3.423999846E-1,1.021405611E1
1.531838189E1,1.851499915E0,1.002969933E1,-3.199999928E-1,1.020418152E1
1.532838189E1,2.506500006E0,9.808099747E0,-7.996000051E-1,1.015483742E1
1.533838189E1,2.875599861E0,9.526100159E0,-6.729999781E-1,9.973393994E0
1.534838189E1,3.116899967E0,9.173099518E0,-1.604099989E0,9.820079274E0
1.535838189E1,2.797499895E0,8.100199699E0,-5.177700043E0,1.001238326E1
1.536838189E1,5.852999687E-1,6.037999630E0,-6.517099857E0,8.903516504E0
1.537838189E1,-2.232999951E-1,5.949500084E0,-3.800099850E0,7.063085233E0
1.538839127E1,8.562999964E-1,7.039999962E0,-2.249999940E-1,7.095454471E0
1.539838189E1,2.118900061E0,3.413399935E0,1.642499924E0,4.340373553E0
1.540838189E1,-4.969699860E0,-2.061599922E1,1.492900014E0,2.125902376E1
1.541838189E1,-1.624099970E0,-3.710779953E1,1.057989979E1,3.862072975E1
1.542838189E1,1.133769989E1,-4.550099945E1,1.688290024E1,4.983890759E1
1.543838189E1,7.858500004E0,-4.070309830E1,4.845799923E0,4.173703404E1
1.544838189E1,-1.457799911E0,-3.174049950E1,-6.648699760E0,3.246212712E1
1.545838502E1,-4.626199722E0,-2.163579941E1,-1.861339951E1,2.891311434E1
1.546838189E1,-4.158400059E0,-1.402119923E1,-2.092790031E1,2.553161433E1
1.547838189E1,-5.747200012E0,-1.077680016E1,-1.108699989E1,1.649519009E1
1.548838189E1,-7.781199932E0,-1.075579929E1,-3.401399851E0,1.370415308E1
1.549838189E1,-8.036999702E0,-1.135249996E1,1.273999929E0,1.396766607E1
1.550838970E1,-6.598700047E0,-1.216199970E1,3.861599922E0,1.436555022E1
1.551838189E1,-4.215199947E0,-1.243069935E1,3.873600006E0,1.368557540E1
1.552838189E1,-3.007200003E0,-1.177019978E1,2.926199913E0,1.249573930E1
1.553838189E1,-2.378700018E0,-1.022200012E1,1.970899940E0,1.067857420E1
1.554838189E1,-1.880800009E0,-7.785999775E0,1.370999932E0,8.126428612E0
1.555839283E1,-1.358999968E0,-4.098199844E0,1.403899908E0,4.540160551E0
1.556838189E1,-4.598999918E-1,-4.420999885E-1,1.506000012E-1,6.554698792E-1
1.557838189E1,1.934999973E-1,2.701900005E0,-9.814999700E-1,2.881153949E0
1.558838346E1,1.001899958E0,5.224899769E0,-1.266699910E0,5.468812465E0
1.559838189E1,1.650799990E0,7.480000019E0,-1.348099947E0,7.777719097E0
1.560838970E1,2.368899822E0,9.428699493E0,-1.155200005E0,9.790125002E0
1.561838502E1,3.266799927E0,1.090549946E1,-7.735999823E-1,1.141053711E1
1.562838189E1,3.581899881E0,1.133349991E1,4.279999807E-2,1.188612884E1
1.563838189E1,4.136300087E0,1.134149933E1,4.981999993E-1,1.208249927E1
1.564838189E1,4.967499733E0,1.133259964E1,3.240000010E-1,1.237775602E1
1.565839439E1,6.424399853E0,1.170059967E1,4.960999787E-1,1.335750955E1
1.566838189E1,7.771599770E0,1.200619984E1,6.261999607E-1,1.431568105E1
1.567838189E1,8.338500023E0,1.199650002E1,6.094999909E-1,1.462251981E1
1.568838189E1,7.179399967E0,1.104349995E1,1.094999984E-1,1.317249654E1
1.569838189E1,5.029900074E0,9.585100174E0,-6.017000079E-1,1.084140595E1
1.570838970E1,3.625099897E0,8.841599464E0,-1.097499967E0,9.618718030E0
1.571838189E1,2.364699841E0,8.643099785E0,-7.853999734E-1,8.995100463E0
1.572838189E1,1.129199982E0,8.635399818E0,-3.116999865E-1,8.714492498E0
1.573838189E1,3.278999925E-1,8.720499992E0,-8.449999988E-2,8.727071603E0
1.574838189E1,-2.008000016E-1,8.820799828E0,1.592999995E-1,8.824523031E0
1.575839596E1,-6.417999864E-1,8.897999763E0,5.622999668E-1,8.938819176E0
1.576838189E1,-1.080600023E0,8.943599701E0,1.136500001E0,9.080049795E0
1.577838189E1,-1.466599941E0,9.174699783E0,1.314299941E0,9.383678161E0
1.578838189E1,-1.691199899E0,9.572999954E0,9.625999928E-1,9.768781089E0
1.579838189E1,-1.562999964E0,9.883899689E0,4.530999959E-1,1.001697267E1
1.580838658E1,-1.060400009E0,9.763799667E0,3.109000027E-1,9.826133061E0
1.581838189E1,-8.458999991E-1,9.525799751E0,5.853999853E-1,9.581184731E0
1.582838189E1,-7.340999842E-1,9.257699966E0,9.988999963E-1,9.340327224E0
1.583838189E1,-5.788999796E-1,8.949600220E0,1.835500002E0,9.154208297E0
1.584838189E1,-6.195999980E-1,8.562500000E0,2.421999931E0,8.919999668E0
1.585838189E1,-6.112999916E-1,7.586999893E0,2.260299921E0,7.940101435E0
1.586838189E1,-1.169299960E0,1.394899964E0,4.917999804E-1,1.885437755E0
1.587838189E1,-4.311399937E0,-1.314159966E1,8.689999580E-2,1.383102898E1
1.588838189E1,-5.656899929E0,-2.859739876E1,2.515799999E0,2.925988691E1
1.589838189E1,3.089999855E-1,-3.535329819E1,2.992399931E0,3.548106017E1
1.590838189E1,7.391599655E0,-4.067210007E1,6.324800014E0,4.181935634E1
1.591838189E1,1.251539993E1,-3.986650085E1,7.929399967E0,4.253055972E1
1.592839127E1,7.635900021E0,-2.832719994E1,-3.275599957E0,2.952061619E1
1.593838189E1,2.854899883E0,-1.980239868E1,-1.685280037E1,2.615917291E1
1.594838189E1,-2.484499931E0,-1.601860046E1,-2.009799957E1,2.582049356E1
1.595838189E1,-6.168900013E0,-1.465609932E1,-1.616189957E1,2.267297008E1
1.596838189E1,-7.225399971E0,-1.430949974E1,-6.928499699E0,1.746345601E1
1.597839127E1,-6.021299839E0,-1.359779930E1,-9.034999609E-1,1.489874189E1
1.598838189E1,-4.129799843E0,-1.215530014E1,1.504599929E0,1.292557114E1
1.599838189E1,-2.926199913E0,-9.911299706E0,3.241699934E0,1.083074911E1
1.600838189E1,-2.071500063E0,-7.308499813E0,3.516599894E0,8.370887458E0
1.601838189E1,-1.250199914E0,-4.600599766E0,2.864399910E0,5.561771739E0
1.602838189E1,-2.480999976E-1,-1.982899904E0,1.915199995E0,2.767930032E0
1.603838189E1,2.090999931E-1,4.575999975E-1,1.054499984E0,1.168370994E0
1.604838189E1,6.117999554E-1,2.662699938E0,6.685999632E-1,2.812702625E0
1.605838189E1,1.400399923E0,4.867300034E0,5.310999751E-1,5.092523613E0
1.606838189E1,2.197399855E0,7.061499596E0,4.386000037E-1,7.408489227E0
1.607839283E1,2.876600027E0,9.039699554E0,6.247000098E-1,9.506905167E0
1.608838189E1,3.200199842E0,1.021430016E1,1.028200030E0,1.075315777E1
1.609838189E1,2.682799816E0,1.055700016E1,1.322499990E0,1.097254180E1
1.610838189E1,2.651199818E0,1.063659954E1,1.615099907E0,1.108037265E1
1.611838189E1,2.920899868E0,1.066879940E1,1.720600009E0,1.119443617E1
1.612838970E1,3.264299870E0,1.080119991E1,1.676699996E0,1.140758064E1
1.613838189E1,3.756799936E0,1.086779976E1,1.473899961E0,1.159288568E1
1.614838189E1,4.336199760E0,1.099650002E1,1.015799999E0,1.186412620E1
1.615838189E1,4.585299969E0,1.104080009E1,3.445999920E-1,1.196005818E1
1.616838189E1,4.759599686E0,1.095129967E1,-3.139999807E-1,1.194501359E1
1.617838346E1,4.538799763E0,1.084529972E1,-5.381000042E-1,1.176906033E1
1.618838189E1,3.860199928E0,1.070209980E1,-7.935000062E-1,1.140463616E1
1.619838189E1,2.885399818E0,1.052059937E1,-9.983999729E-1,1.095469514E1
1.620838189E1,1.964299917E0,1.041679955E1,-9.619999528E-1,1.064394809E1
1.621838189E1,1.290199995E0,1.038999939E1,-7.694999576E-1,1.049803951E1
1.622839283E1,7.896999717E-1,1.036110020E1,-5.766999722E-1,1.040714208E1
1.623838189E1,4.162999988E-1,1.020279980E1,-3.718999922E-1,1.021805945E1
1.624838189E1,8.329999447E-2,9.934599876E0,-9.279999882E-2,9.935382501E0
1.625838189E1,3.639999777E-2,9.448800087E0,3.325999975E-1,9.454722143E0
1.626838189E1,5.971999764E-1,9.118299484E0,9.063999653E-1,9.182679031E0
1.627838971E1,9.310999513E-1,8.973299980E0,1.411299944E0,9.131200753E0
1.628838189E1,1.168799996E0,8.965099335E0,1.568699956E0,9.176051387E0
1.629838189E1,1.200299978E0,9.093599319E0,1.239499927E0,9.255842949E0
1.630838189E1,1.072999954E0,9.191599846E0,1.013299942E0,9.309329374E0
1.631838189E1,9.136999846E-1,9.151000023E0,9.986999631E-1,9.250570290E0
1.632839283E1,5.159999728E-1,8.480999947E0,-7.669000030E-1,8.531222168E0
1.633838189E1,1.967999935E-1,6.209599972E0,-4.700399876E0,7.790482722E0
1.634838189E1,6.388999820E-1,6.110799789E0,-3.050299883E0,6.859620735E0
1.635838189E1,6.520999670E-1,3.902499914E0,-3.007999897E0,4.970191478E0
1.636838189E1,-4.056299686E0,-1.145659924E1,-4.992599964E0,1.313899873E1
1.637838189E1,-7.481799603E0,-2.807919884E1,-2.822199821E0,2.919560831E1
1.638838189E1,3.958899975E0,-3.759259796E1,7.341899872E0,3.850687996E1
1.639838189E1,1.096449947E1,-4.265990067E1,8.340899467E0,4.482920898E1
1.640838189E1,9.348199844E0,-3.596739960E1,1.846499920E0,3.720822807E1
1.641838189E1,4.350899696E0,-2.279559898E1,-3.903599977E0,2.353312036E1
1.642838189E1,5.878999829E-1,-1.346169949E1,-6.713699818E0,1.505445930E1
1.643838189E1,-2.268300056E0,-9.441899300E0,-7.658299923E0,1.236706130E1
1.644838658E1,-4.506799698E0,-9.508899689E0,-7.730399609E0,1.305716259E1
1.645838189E1,-6.286099911E0,-1.156369972E1,-5.865599632E0,1.440970029E1
1.646838189E1,-7.313499928E0,-1.422289944E1,-2.468999863E0,1.618252483E1
1.647838189E1,-6.100899696E0,-1.651899910E1,-4.833000004E-1,1.761623931E1
1.648838189E1,-3.957399845E0,-1.704339981E1,-2.425999939E-1,1.749849552E1
1.649838346E1,-2.295599937E0,-1.550199986E1,-4.702999890E-1,1.567810450E1
1.650838189E1,-1.122599959E0,-1.210129929E1,-3.969999850E-1,1.215974030E1
1.651838189E1,-4.348999858E-1,-8.223799706E0,-5.063999891E-1,8.250846050E0
1.652838189E1,3.361999989E-1,-4.388499737E0,-9.577999711E-1,4.504369119E0
1.653838189E1,9.486999512E-1,-5.952999592E-1,-1.403499961E0,1.795612926E0
1.654839439E1,1.232599974E0,2.224099874E0,-1.493799925E0,2.949128882E0
1.655838189E1,1.714199901E0,4.472199917E0,-1.204599977E0,4.938634882E0
1.656838189E1,2.321799994E0,6.522299767E0,6.111999750E-1,6.950159341E0
1.657838189E1,3.178299904E0,8.640099525E0,8.855999708E-1,9.248632191E0
1.658838346E1,3.796499968E0,1.011149979E1,4.450999796E-1,1.080990074E1
1.659838971E1,3.986399889E0,1.104509926E1,4.594999850E-1,1.175145701E1
1.660838189E1,3.549199820E0,1.137329960E1,1.960999966E-1,1.191583897E1
1.661838189E1,3.686100006E0,1.133129978E1,-2.527000010E-1,1.191845398E1
1.662838189E1,4.155900002E0,1.141879940E1,-1.974999905E-1,1.215316793E1
1.663838189E1,4.771100044E0,1.153809929E1,2.344999909E-1,1.248783893E1
1.664838814E1,5.517600060E0,1.153259945E1,6.388999820E-1,1.280050599E1
1.665838189E1,5.731899738E0,1.123609924E1,4.924999774E-1,1.262327838E1
1.666838189E1,4.559499741E0,9.902699471E0,-1.930999905E-1,1.090365912E1
1.667838189E1,3.511600018E0,8.991499901E0,-9.213999510E-1,9.696771783E0
1.668838189E1,2.907399893E0,8.598699570E0,-1.394599915E0,9.183437121E0
1.669838658E1,2.186899900E0,8.498000145E0,-1.506099939E0,8.903194633E0
