"Time (s)","Linear Acceleration x (m/s^2)","Linear Acceleration y (m/s^2)","Linear Acceleration z (m/s^2)","Absolute acceleration (m/s^2)"
5.059400000E-3,-1.537999958E-1,-1.067999974E-1,-1.259099960E0,1.272946734E0
1.504690000E-2,-1.418299913E0,2.470999956E0,7.629999518E-2,2.850129316E0
2.504533800E-2,-1.829199910E0,2.207099915E0,3.646199942E0,4.638106980E0
3.504690000E-2,-2.973599911E0,2.334399939E0,8.776000023E0,9.555621168E0
4.504690000E-2,-4.578899860E0,2.240599871E0,9.755099297E0,1.100675129E1
5.504533800E-2,-4.973499775E0,1.919600010E0,8.163000107E0,9.749622298E0
6.504533800E-2,-5.654299736E0,1.662599921E0,6.720799923E0,8.938931458E0
7.504690000E-2,-3.456199884E0,1.721699953E0,2.187399864E0,4.437824527E0
8.504690000E-2,-4.002500057E0,1.289199948E0,6.259999871E-1,4.251343223E0
9.504533800E-2,-3.852399826E0,9.505999684E-1,-8.445999622E-1,4.056842838E0
1.050453380E-1,-3.727599859E0,7.849999666E-1,-2.329999924E0,4.465436743E0
1.150453380E-1,-3.447399855E0,1.127099991E0,-3.263499975E0,4.879072887E0
1.250469000E-1,-3.054399967E0,1.593400002E0,-3.896199942E0,5.200832309E0
1.350469000E-1,-2.817899942E0,2.039099932E0,-4.352299690E0,5.571445164E0
1.450469000E-1,-2.546799898E0,2.237499952E0,-4.184000015E0,5.385021066E0
1.550469000E-1,-1.766199946E0,2.477200031E0,-3.911599874E0,4.955461212E0
1.650469000E-1,-5.877000093E-1,2.733999968E0,-3.094599962E0,4.170934673E0
1.750469000E-1,4.463000000E-1,2.600600004E0,-2.382900000E0,3.555350402E0
1.850469000E-1,1.721099973E0,3.046099901E0,-1.672099948E0,3.877734901E0
1.950469000E-1,3.402499914E0,4.077899933E0,-3.405999839E-1,5.321868269E0
2.050469000E-1,4.245599747E0,4.630099773E0,6.425999999E-1,6.314734823E0
2.150469000E-1,7.441399574E0,4.092199802E0,2.531999946E-1,8.496154253E0
2.250469000E-1,9.269999504E0,1.345399976E0,5.597999692E-1,9.383835458E0
2.350469000E-1,1.134759998E1,-1.089100003E0,4.611999989E-1,1.140906962E1
2.450469000E-1,1.238000011E1,-3.568599939E0,1.734399915E0,1.300028659E1
2.550469000E-1,1.235299969E1,-5.705199718E0,4.746699810E0,1.441100497E1
2.650469000E-1,9.781899452E0,-6.974299908E0,5.469399929E0,1.320002847E1
2.750469000E-1,6.929399967E0,-6.355000019E0,4.539400101E0,1.044072614E1
2.850484630E-1,3.485899925E0,-5.024199963E0,3.036700010E0,6.827564024E0
2.950469000E-1,1.835799932E0,-3.599099874E0,2.057999969E-1,4.045495636E0
3.050469000E-1,1.370899916E0,-3.078799963E0,-2.816499949E0,4.392157528E0
3.150469000E-1,1.011600018E0,-2.379499912E0,-5.046400070E0,5.670229986E0
3.250469000E-1,1.823899984E0,-1.507599950E0,-3.980799913E0,4.631008174E0
3.350469000E-1,3.418200016E0,-5.072999597E-1,-1.468999982E-1,3.458760502E0
3.450469000E-1,2.254199982E0,-7.458999753E-1,1.856399894E0,3.013968297E0
3.550469000E-1,7.171999812E-1,-9.962999821E-1,2.561899900E0,2.840830964E0
3.650469000E-1,-2.570999861E-1,-1.617200017E0,2.436599970E0,2.935720646E0
3.750469000E-1,-1.212299943E0,-2.845299959E0,1.424700022E0,3.405168595E0
3.850469000E-1,-2.635799885E0,-4.405099869E0,-7.436000109E-1,5.187030640E0
3.950469000E-1,-3.678499937E0,-5.190700054E0,-2.960999966E0,7.017282212E0
4.050469000E-1,-4.850199699E0,-5.359399796E0,-3.713099957E0,8.126174658E0
4.150469000E-1,-4.677000046E0,-4.039899826E0,-4.317899704E0,7.539189471E0
4.250469000E-1,-4.560899734E0,-2.396699905E0,-4.606699944E0,6.911415282E0
4.350469000E-1,-5.834599972E0,-1.639099956E0,-3.537299871E0,7.017242754E0
4.450469000E-1,-7.329499722E0,-1.768499970E0,-1.566699982E0,7.700890023E0
4.550469000E-1,-7.679399967E0,-1.982699990E0,5.809000134E-1,7.952466783E0
4.650469000E-1,-7.586799622E0,-2.256399870E0,1.879799962E0,8.135386701E0
4.750469000E-1,-7.069200039E0,-2.209499836E0,1.866899967E0,7.638114571E0
4.850469000E-1,-5.858500004E0,-2.237200022E0,1.593899965E0,6.470518011E0
4.950469000E-1,-4.882899761E0,-2.236399889E0,1.148999929E0,5.492212248E0
5.050469000E-1,-3.926999807E0,-1.848799944E0,3.948999941E-1,4.358363767E0
5.150469000E-1,-3.794899940E0,-1.249899983E0,-5.575000048E-1,4.034144492E0
5.250469000E-1,-3.447599888E0,-4.296999872E-1,-6.930999756E-1,3.542735474E0
5.350469000E-1,-4.052799702E0,1.612999886E-1,-1.472999901E-1,4.058682101E0
5.450469000E-1,-3.963899851E0,4.655999839E-1,4.059999883E-1,4.011747919E0
5.550469000E-1,-2.202100039E0,1.064899921E0,8.743000031E-1,2.597625246E0
5.650469000E-1,-1.773499966E0,1.613899946E0,1.607999951E-1,2.403296029E0
5.750469000E-1,-1.821699977E0,1.935099959E0,-1.104099989E0,2.877888018E0
5.850469000E-1,-9.085999727E-1,2.403499842E0,-1.313300014E0,2.885675367E0
5.950469000E-1,-1.052000001E-1,2.734400034E0,-1.003600001E0,2.914656678E0
6.050469000E-1,-1.423999965E-1,2.956199884E0,-5.213999748E-1,3.005204394E0
6.150469000E-1,1.979999989E-2,2.990299940E0,1.455500007E0,3.325772999E0
6.250469000E-1,6.125999689E-1,3.248199940E0,2.324899912E0,4.041193038E0
6.350469000E-1,1.757999897E0,3.355999947E0,3.342700005E0,5.052419480E0
6.450469000E-1,2.163499832E0,3.106400013E0,4.461100101E0,5.850800516E0
6.550469000E-1,2.371999979E0,2.723700047E0,3.476899862E0,5.013358006E0
6.650469000E-1,2.265699863E0,2.335799932E0,1.915299892E0,3.775941058E0
6.750469000E-1,1.462199926E0,1.914399981E0,3.146999776E-1,2.429401570E0
6.850469000E-1,2.135999948E-1,1.226799965E0,-4.329999983E-1,1.318389969E0
6.950469000E-1,-3.073999882E-1,6.489999890E-1,-5.418999791E-1,8.996395533E-1
7.050453380E-1,-3.465999961E-1,2.593999803E-1,-9.170999527E-1,1.014146060E0
7.150469000E-1,2.499999944E-3,-1.349999942E-2,-1.312299967E0,1.312371785E0
7.250469000E-1,1.076900005E0,1.401000023E-1,-1.784799933E0,2.089222926E0
7.350469000E-1,1.755199909E0,1.799999923E-1,-2.131599903E0,2.767100444E0
7.450578380E-1,1.859699965E0,-1.018999964E-1,-1.853500009E0,2.627609151E0
7.550469000E-1,1.473699927E0,-5.598999858E-1,-1.483099937E0,2.164454872E0
7.650469000E-1,1.206200004E0,-9.296000004E-1,-1.317999959E0,2.014000621E0
7.750469000E-1,8.608999848E-1,-8.091999888E-1,-6.504999995E-1,1.348741508E0
7.850469000E-1,5.230000019E-1,-4.150999784E-1,6.071999669E-1,9.025124896E-1
7.950469000E-1,4.659999907E-1,3.989000022E-1,2.104899883E0,2.192459970E0
8.050469000E-1,7.263000011E-1,1.396899939E0,3.135200024E0,3.508321581E0
8.150469000E-1,5.504999757E-1,1.999599934E0,3.418099880E0,3.998106666E0
8.250469000E-1,8.473999500E-1,2.589400053E0,3.318399906E0,4.293583264E0
8.350469000E-1,9.185999632E-1,2.391700029E0,4.031499863E0,4.776719174E0
8.450469000E-1,2.061999887E-1,1.161499977E0,5.667500019E0,5.788968569E0
8.550469000E-1,-3.734000027E-1,1.359999925E-1,6.886499882E0,6.897956522E0
8.650515880E-1,-2.038999945E-1,-8.301999569E-1,7.537299633E0,7.585624097E0
8.750469000E-1,-5.755999684E-1,-1.559599996E0,8.303899765E0,8.468672787E0
8.850469000E-1,-6.358000040E-1,-2.148999929E0,9.471399307E0,9.732925931E0
8.950469000E-1,6.053999662E-1,-2.450199842E0,7.935599804E0,8.327288432E0
9.050469000E-1,1.896499991E0,-2.199800014E0,5.238299847E0,5.989625832E0
9.150469000E-1,2.389400005E0,-1.684700012E0,4.602600098E0,5.452648363E0
9.250578380E-1,2.725800037E0,-1.328199983E0,3.950500011E0,4.980015199E0
9.350469000E-1,2.701299906E0,-7.484999895E-1,2.749599934E0,3.926521770E0
9.450469000E-1,2.364199877E0,1.720999926E-1,1.919699907E0,3.050296248E0
9.550469000E-1,2.151499987E0,1.149899960E0,1.434299946E0,2.829918452E0
9.650469000E-1,2.351399899E0,1.930199981E0,1.657799959E0,3.464542416E0
9.750469000E-1,2.443699837E0,2.433799982E0,1.021799922E0,3.597099710E0
9.850469000E-1,1.993799925E0,2.640199900E0,8.259999752E-1,3.410010207E0
9.950469000E-1,9.566999674E-1,2.097800016E0,6.851999760E-1,2.405314687E0
1.005046900E0,1.200999990E-1,8.172000051E-1,1.156199932E0,1.420928619E0
1.015046900E0,5.514999628E-1,-7.103999853E-1,1.280900002E0,1.565095895E0
1.025046900E0,5.776999593E-1,-3.094899893E0,1.012599945E0,3.307189326E0
1.035053150E0,1.016999960E0,-5.800699711E0,4.558999836E-1,5.906797004E0
1.045046900E0,-1.675999910E-1,-8.836199760E0,-1.002900004E0,8.894510913E0
1.055046900E0,-2.287799835E0,-1.095129967E1,-2.108099937E0,1.138459827E1
1.065046900E0,-4.032000065E0,-1.162459946E1,-3.157999992E0,1.270280682E1
1.075054713E0,-3.220299959E0,-1.022200012E1,-5.104799747E0,1.187091398E1
1.085046900E0,-1.495800018E0,-7.840600014E0,-7.766899586E0,1.113719693E1
1.095046900E0,2.857999802E-1,-5.472499847E0,-9.804699898E0,1.123218929E1
1.105046900E0,4.097999930E-1,-4.008999825E0,-9.493800163E0,1.031369270E1
1.115046900E0,1.677099943E0,-2.127699852E0,-8.489299774E0,8.911115617E0
1.125046900E0,3.337999821E0,-1.753999889E-1,-7.555999756E0,8.262332617E0
1.135046900E0,4.404299736E0,4.298999906E-1,-6.874699593E0,8.175828072E0
1.145046900E0,4.169799805E0,1.244199991E0,-6.517699718E0,7.836815275E0
1.155046900E0,4.356299877E0,2.300400019E0,-6.024699688E0,7.782428618E0
1.165046900E0,4.721799850E0,3.061699867E0,-6.415999889E0,8.534310428E0
1.175046900E0,4.282599926E0,3.098099947E0,-6.019799709E0,8.011046994E0
1.185046900E0,3.129400015E0,2.820299864E0,-1.463999987E0,4.459880238E0
1.195046900E0,2.185899973E0,2.972399950E0,3.650699854E0,5.190465256E0
1.205050025E0,-2.509999871E-1,2.533799887E0,2.978699923E0,3.918647227E0
1.215046900E0,-1.486599922E0,2.405599833E0,2.000000000E0,3.463652679E0
1.225046900E0,-1.607899904E0,2.475600004E0,1.814599991E0,3.465070073E0
1.235046900E0,-2.749699831E0,2.003900051E0,2.434099913E0,4.183456341E0
1.245046900E0,-3.649799824E0,1.559599996E0,3.506699800E0,5.296256639E0
1.255046900E0,-6.050299644E0,6.513999701E-1,3.184299946E0,6.868057502E0
1.265046900E0,-6.934700012E0,2.831999958E-1,2.115900040E0,7.255845883E0
1.275046900E0,-7.280999660E0,5.480999947E-1,5.225999951E-1,7.320278712E0
1.285046900E0,-7.033799648E0,1.055699944E0,-1.282400012E0,7.227267095E0
1.295046900E0,-6.124799728E0,1.749599934E0,-2.213199854E0,6.743331909E0
1.305046900E0,-5.474299908E0,2.187000036E0,-2.747099876E0,6.503651772E0
1.315046900E0,-4.370999813E0,2.385599852E0,-2.845599890E0,5.735343473E0
1.325046900E0,-3.125599861E0,2.539799929E0,-2.350499868E0,4.663132831E0
1.335046900E0,-2.202100039E0,2.430099964E0,-2.066400051E0,3.876162998E0
1.345046900E0,-1.429099917E0,2.605599880E0,-2.293900013E0,3.754125008E0
1.355046900E0,-2.840999961E-1,3.559599876E0,-1.034299970E0,3.717692902E0
1.365046900E0,1.948099971E0,4.948499680E0,1.711799979E0,5.586859739E0
1.375046900E0,1.404399991E0,4.607999802E0,1.153200030E0,4.953369744E0
1.385046900E0,5.399199963E0,3.444199800E0,1.728899956E0,6.633473265E0
1.395046900E0,6.771399975E0,6.288999915E-1,3.385299921E0,7.596553717E0
1.405046900E0,6.888499737E0,-3.109200001E0,2.990799904E0,8.127941765E0
1.415046900E0,7.773599625E0,-5.422800064E0,4.007899761E0,1.029071777E1
1.425046900E0,8.770799637E0,-6.723700047E0,4.547399998E0,1.195047762E1
1.435046900E0,7.980199814E0,-6.595299721E0,4.870399952E0,1.144125706E1
1.445046900E0,6.316599846E0,-5.736199856E0,3.998600006E0,9.422962613E0
1.455046900E0,3.646099806E0,-5.262599945E0,1.774500012E0,6.643632460E0
1.465046900E0,1.513399959E0,-4.877599716E0,-1.457799911E0,5.310982866E0
1.475046900E0,5.602999926E-1,-3.886099815E0,-4.832399845E0,6.226379054E0
1.485046900E0,9.356999993E-1,-2.282099962E0,-6.519799709E0,6.970746228E0
1.495046900E0,3.290599823E0,1.074000001E-1,-4.140699863E0,5.290082921E0
1.505046900E0,4.664299965E0,1.628099918E0,-7.156999707E-1,4.991856364E0
1.515046900E0,3.234799862E0,1.582599998E0,5.269999802E-2,3.601573294E0
1.525046900E0,1.754799962E0,1.203299999E0,8.256999850E-1,2.282330883E0
1.535046900E0,1.121899962E0,7.998999953E-1,2.274999857E0,2.659722519E0
1.545048463E0,7.353000045E-1,-5.525999665E-1,2.439399958E0,2.607049093E0
1.555046900E0,1.307999939E-1,-2.259199858E0,1.893399954E0,2.950602654E0
1.565046900E0,-8.080999851E-1,-3.732399940E0,9.598000050E-1,3.937645356E0
1.575046900E0,-2.201599836E0,-5.259099960E0,-1.223999932E-1,5.702644649E0
1.585046900E0,-2.962299824E0,-4.994699955E0,-1.265299916E0,5.943335071E0
1.595053150E0,-3.173199892E0,-3.981099844E0,-2.155400038E0,5.528481061E0
1.605046900E0,-3.687999964E0,-2.906599998E0,-2.891899824E0,5.514775778E0
1.615046900E0,-5.239999771E0,-2.117100000E0,-3.266799927E0,6.527763152E0
1.625046900E0,-5.847899914E0,-2.381700039E0,-2.396399975E0,6.753751648E0
1.635046900E0,-5.719299793E0,-2.701900005E0,-1.120899916E0,6.423945080E0
1.645062525E0,-5.796599865E0,-2.681099892E0,-4.407999814E-1,6.401809998E0
1.655046900E0,-5.297699928E0,-2.409100056E0,-1.127000004E-1,5.820832320E0
1.665046900E0,-4.384200096E0,-2.191699982E0,4.869999737E-2,4.901747748E0
1.675046900E0,-4.065899849E0,-1.934399962E0,2.947999835E-1,4.512244655E0
1.685046900E0,-3.514299870E0,-1.237499952E0,1.981000006E-1,3.731079377E0
1.695046900E0,-3.345299959E0,-4.658999741E-1,-4.769999906E-2,3.377923903E0
1.705046900E0,-3.952600002E0,5.630999804E-1,-9.891999960E-1,4.113228051E0
1.715046900E0,-4.719500065E0,9.675999880E-1,-1.108299971E0,4.943506794E0
1.725059400E0,-3.098500013E0,1.341099977E0,-8.709999919E-2,3.377401056E0
1.735046900E0,-2.466599941E0,1.890299916E0,2.989999950E-2,3.107771397E0
1.745046900E0,-2.042899847E0,2.153499842E0,2.513000071E-1,2.978951669E0
1.755046900E0,-1.355599999E0,2.464799881E0,3.546999991E-1,2.835260464E0
1.765046900E0,-6.812999845E-1,2.853299856E0,-1.310999990E-1,2.936439502E0
1.775050025E0,-5.841999650E-1,2.848299980E0,-4.259999990E-1,2.938635461E0
1.785046900E0,-2.326999903E-1,2.910699844E0,1.335999966E0,3.211108652E0
1.795046900E0,5.620999932E-1,2.696199894E0,2.395900011E0,3.650450264E0
1.805046900E0,1.288399935E0,2.868899822E0,3.537099838E0,4.733036641E0
1.815046900E0,9.973999858E-1,2.603199959E0,3.554999828E0,4.517685307E0
1.825046900E0,7.746999860E-1,2.125099897E0,2.083400011E0,3.075185401E0
1.835046900E0,9.405999780E-1,1.544999957E0,3.140999973E-1,1.835868185E0
1.845046900E0,8.393999934E-1,1.032899976E0,-8.550999761E-1,1.581983147E0
1.855046900E0,8.863999844E-1,3.574000001E-1,-1.343199968E0,1.648522322E0
1.865046900E0,9.365999699E-1,-1.070999950E-1,-1.260699987E0,1.574183716E0
1.875046900E0,1.318400025E0,-1.834999919E-1,-1.206699967E0,1.796656808E0
1.885046900E0,1.768999934E0,-8.850000054E-2,-1.406599998E0,2.261794989E0
1.895046900E0,1.844999909E0,-1.059999969E-2,-1.654500008E0,2.478206469E0
1.905046900E0,1.722599983E0,2.009999938E-2,-1.639999986E0,2.378519427E0
1.915046900E0,1.598599911E0,-1.040999964E-1,-1.558899999E0,2.235291410E0
1.925046900E0,1.471499920E0,-2.560999990E-1,-1.114799976E0,1.863780623E0
1.935046900E0,1.465099931E0,-3.188000023E-1,-2.171999961E-1,1.515033692E0
1.945057838E0,1.487699986E0,-2.441999912E-1,7.978000045E-1,1.705687465E0
1.955046900E0,1.430099964E0,4.519999772E-2,1.485099912E0,2.062219846E0
1.965046900E0,1.459399939E0,5.983999968E-1,1.970199943E0,2.523810324E0
1.975046900E0,1.575199962E0,1.120899916E0,2.301199913E0,3.005527005E0
1.985046900E0,1.645999908E0,1.739599943E0,2.683499813E0,3.596761725E0
1.995057838E0,1.873299956E0,2.463799953E0,3.066399813E0,4.356876260E0
2.005046900E0,1.614300013E0,2.773000002E0,3.978599787E0,5.111237600E0
2.015046900E0,1.044199944E0,2.470899820E0,5.081799984E0,5.746337140E0
2.025046900E0,2.003999949E-1,1.607399940E0,5.674799919E0,5.901461586E0
2.035046900E0,-2.938999832E-1,4.285999835E-1,6.006700039E0,6.029139284E0
2.045046900E0,-7.062999606E-1,-8.776999712E-1,6.028999805E0,6.133355976E0
2.055046900E0,-7.260999680E-1,-1.879199982E0,5.498699665E0,5.856134539E0
2.065046900E0,-6.811999679E-1,-2.604199886E0,4.793499947E0,5.497593308E0
2.075050025E0,-1.885999888E-1,-3.141099930E0,4.410599709E0,5.418068707E0
2.085046900E0,9.149000049E-1,-3.117699862E0,4.785699844E0,5.784463454E0
2.095046900E0,1.703699946E0,-2.192399979E0,5.349899769E0,6.027490250E0
2.105046900E0,1.411199927E0,-8.768000007E-1,4.803699970E0,5.082892570E0
2.115046900E0,1.345600009E0,3.479000032E-1,3.678799868E0,3.932587222E0
2.125046900E0,1.628399968E0,1.109799981E0,2.405499935E0,3.109625764E0
2.135046900E0,2.143300056E0,1.879899979E0,1.234899998E0,3.106885429E0
2.145046900E0,2.409100056E0,2.540299892E0,8.635999560E-1,3.605924501E0
2.155046900E0,2.207599878E0,3.002099991E0,1.098699927E0,3.885002331E0
2.165046900E0,1.629199982E0,3.058799982E0,1.007900000E0,3.609212147E0
2.175046900E0,7.986999750E-1,2.543699980E0,1.046499968E0,2.864174125E0
2.185046900E0,3.157999814E-1,1.496999979E0,1.564799905E0,2.188455462E0
2.195050025E0,7.723000050E-1,-2.078000009E-1,1.605299950E0,1.793492700E0
2.205046900E0,1.191399932E0,-2.555199862E0,1.158900023E0,3.048201009E0
2.215046900E0,1.112499952E0,-5.341899872E0,1.114499927E0,5.569170537E0
2.225046900E0,2.303999960E-1,-7.664000034E0,3.524999917E-1,7.675561017E0
2.235046900E0,-1.222299933E0,-9.591400146E0,-2.398999929E-1,9.671945301E0
2.245057838E0,-1.873999953E0,-1.045749950E1,-1.644699931E0,1.075063764E1
2.255046900E0,-1.765899897E0,-9.903800011E0,-4.034500122E0,1.083885826E1
2.265046900E0,-1.104900002E0,-8.439499855E0,-6.654899597E0,1.080433480E1
2.275046900E0,-2.615000010E-1,-6.483900070E0,-8.214399338E0,1.046831882E1
2.285046900E0,6.287999749E-1,-4.559199810E0,-8.552999496E0,9.712646020E0
2.295053150E0,1.793799996E0,-2.795500040E0,-8.658399582E0,9.273641260E0
2.305046900E0,2.428200006E0,-1.511399984E0,-7.440299988E0,7.971107143E0
2.315046900E0,2.839399815E0,-3.754999936E-1,-7.628299713E0,8.148260432E0
2.325048463E0,2.720999956E0,1.161000013E0,-7.535499573E0,8.095400892E0
2.335046900E0,3.173499823E0,2.415699959E0,-6.299299717E0,7.455728290E0
2.345046900E0,2.846999884E0,2.709399939E0,-4.466799736E0,5.949668583E0
2.355046900E0,3.214299917E0,3.322499990E0,-3.717000008E0,5.931847874E0
2.365046900E0,2.385699987E0,3.838799953E0,-3.704099894E0,5.843655152E0
2.375050025E0,4.781000018E-1,3.229399920E0,-9.154999852E-1,3.390537373E0
2.385046900E0,-3.172000051E-1,2.836400032E0,1.428900003E0,3.191792005E0
2.395046900E0,-1.943899989E0,2.603099823E0,3.500399828E0,4.775738143E0
2.405046900E0,-2.689299822E0,2.675499916E0,5.913699627E0,7.025843480E0
2.415046900E0,-2.448199987E0,2.397199869E0,7.885499954E0,8.597753190E0
2.425046900E0,-4.128999710E0,1.614799976E0,6.356199741E0,7.749676943E0
2.435046900E0,-5.500299931E0,8.231999874E-1,4.436999798E0,7.114627520E0
2.445046900E0,-5.726099968E0,4.960999787E-1,2.905900002E0,6.440387477E0
2.455046900E0,-6.551099777E0,3.337000012E-1,1.039999962E0,6.641525721E0
2.465046900E0,-6.738100052E0,5.026000142E-1,-8.295999765E-1,6.807557213E0
2.475046900E0,-6.464999676E0,9.732999802E-1,-2.171599865E0,6.889076835E0
2.485046900E0,-5.748199940E0,1.401600003E0,-3.363299847E0,6.805738092E0
2.495046900E0,-5.086699963E0,1.501899958E0,-3.850999832E0,6.554419860E0
2.505046900E0,-4.348899841E0,1.400699973E0,-3.406499863E0,5.699046548E0
2.515046900E0,-3.056099892E0,1.636199951E0,-2.736599922E0,4.416545705E0
2.525046900E0,-2.469899893E0,2.040600061E0,-1.869899988E0,3.709579499E0
2.535046900E0,-1.552599907E0,2.378599882E0,-5.202000141E-1,2.887717425E0
2.545046900E0,-9.389999509E-2,2.522699833E0,-1.221999973E-1,2.527402717E0
2.555046900E0,1.511799932E0,2.855099916E0,-2.779999934E-2,3.230775047E0
2.565046900E0,4.833699703E0,2.944599867E0,-1.798599958E0,5.938878935E0
2.575046900E0,8.554299355E0,8.292999864E-1,-1.119099975E0,8.666957982E0
2.585046900E0,8.504599571E0,-1.327600002E0,2.362400055E0,8.925898815E0
2.595046900E0,8.815599442E0,-2.916399956E0,2.094899893E0,9.518864837E0
2.605046900E0,8.389800072E0,-4.319600105E0,3.401599884E0,1.003088092E1
2.615046900E0,7.067499638E0,-5.409199715E0,4.878399849E0,1.014927474E1
2.625046900E0,4.677199841E0,-5.686199665E0,4.483599663E0,8.620425217E0
2.635046900E0,2.441799879E0,-4.598199844E0,2.616999865E0,5.827050433E0
2.645046900E0,2.606899977E0,-3.423699856E0,-2.429999970E-2,4.303282315E0
2.655046900E0,2.033999920E0,-3.466699839E0,-2.334300041E0,4.648023249E0
2.665046900E0,1.812199950E0,-2.749599934E0,-4.048599720E0,5.218766918E0
2.675046900E0,3.300999880E0,-1.417999983E0,-3.071599960E0,4.726737826E0
2.685046900E0,4.904200077E0,1.895999908E-1,-1.957999915E-1,4.911767929E0
2.695046900E0,4.046700001E0,1.724999994E-1,1.464399934E0,4.306971594E0
2.705046900E0,2.500499964E0,-9.510000050E-2,2.481099844E0,3.523833213E0
2.715046900E0,1.758999944E0,-7.645999789E-1,2.469699860E0,3.126997174E0
2.725046900E0,5.371999741E-1,-1.361199975E0,2.347199917E0,2.766007345E0
2.735046900E0,-8.889999986E-1,-2.348899841E0,1.972099900E0,3.193247482E0
2.745046900E0,-2.433500051E0,-3.207000017E0,8.328999877E-1,4.111021041E0
2.755046900E0,-4.597899914E0,-4.025799751E0,-4.211999774E-1,6.125778047E0
2.765046900E0,-5.488100052E0,-4.754799843E0,-1.456099987E0,7.405915939E0
2.775046900E0,-5.885099888E0,-4.192699909E0,-2.384199858E0,7.609043447E0
2.785046900E0,-5.290400028E0,-2.940599918E0,-2.987799883E0,6.749993221E0
2.795046900E0,-4.900000095E0,-1.934499979E0,-3.595899820E0,6.378305937E0
2.805046900E0,-5.480499744E0,-1.770699978E0,-3.276999950E0,6.626460936E0
2.815046900E0,-6.145499706E0,-2.008899927E0,-2.194999933E0,6.827947734E0
2.825046900E0,-6.348000050E0,-2.141999960E0,-1.215199947E0,6.808963164E0
2.835046900E0,-5.792399883E0,-2.005199909E0,-4.833000004E-1,6.148682946E0
2.845046900E0,-4.560899734E0,-1.718299985E0,2.108999938E-1,4.878405481E0
2.855046900E0,-3.576999903E0,-1.402899981E0,5.487999916E-1,3.881267588E0
2.865046900E0,-3.647599936E0,-8.272999525E-1,4.070999920E-1,3.762331844E0
2.875046900E0,-4.144999981E0,-1.284999996E-1,2.248999923E-1,4.153085251E0
2.885046900E0,-3.786299944E0,4.202999771E-1,6.183999777E-1,3.859421960E0
2.895046900E0,-3.323299885E0,7.120999694E-1,8.977999687E-1,3.515316952E0
2.905046900E0,-3.104499817E0,1.149399996E0,6.963999867E-1,3.382899999E0
2.915046900E0,-1.928599954E0,1.517899990E0,9.993999600E-1,2.649965743E0
2.925046900E0,-8.271999955E-1,2.239300013E0,6.714000106E-1,2.479819016E0
2.935046900E0,-4.127999842E-1,2.830600023E0,6.729999930E-2,2.861333537E0
2.945046900E0,3.222000003E-1,2.812199831E0,-7.752999663E-1,2.934854471E0
2.955046900E0,-3.125000000E-1,2.674000025E0,-2.831999958E-1,2.707052755E0
2.965046900E0,3.666999936E-1,2.602999926E0,1.399999976E0,2.978267522E0
2.975046900E0,1.030599952E0,2.666899920E0,3.157899857E0,4.259908795E0
2.985046900E0,9.600999951E-1,2.677299976E0,4.452799797E0,5.283668536E0
2.995046900E0,1.012799978E0,2.575299978E0,3.440199852E0,4.415077439E0
3.005046900E0,1.264599919E0,2.323299885E0,1.472000003E0,3.027163577E0
3.015046900E0,1.380699992E0,1.854499936E0,-2.296999991E-1,2.323416573E0
3.025046900E0,1.634400010E0,1.396699905E0,-4.745999873E-1,2.201653735E0
3.035046900E0,1.590600014E0,7.153999805E-1,-4.986999929E-1,1.813975529E0
3.045046900E0,1.250499964E0,1.736999899E-1,-3.425000012E-1,1.308139173E0
3.055046900E0,1.041999936E0,-1.492999941E-1,-4.616999924E-1,1.149443882E0
3.065046900E0,1.442199945E0,-2.439000010E-1,-1.070899963E0,1.812802975E0
3.075051588E0,1.843400002E0,-2.771999836E-1,-1.928099990E0,2.681889813E0
3.085046900E0,2.036000013E0,-1.316999942E-1,-2.559099913E0,3.272863166E0
3.095046900E0,2.096299887E0,-3.309999779E-2,-2.606099844E0,3.344745913E0
3.105046900E0,1.815499902E0,1.650999933E-1,-1.929999948E0,2.654844195E0
3.115046900E0,1.605799913E0,3.350999951E-1,-1.022899985E0,1.933186424E0
3.125046900E0,1.397099972E0,3.777999878E-1,-2.807999849E-1,1.474269240E0
3.135046900E0,1.394699931E0,4.592999816E-1,6.283999681E-1,1.597194694E0
3.145046900E0,1.193799973E0,5.888000131E-1,1.585799932E0,2.070411857E0
3.155046900E0,1.047099948E0,7.555999756E-1,2.538300037E0,2.847861778E0
3.165056275E0,8.949999809E-1,1.047600031E0,3.245800018E0,3.526146416E0
3.175046900E0,7.641999722E-1,1.415399909E0,3.399399996E0,3.760755088E0
3.185046900E0,7.310999632E-1,1.633299947E0,3.566399813E0,3.990160836E0
3.195046900E0,3.729999810E-2,1.201099992E0,5.045399666E0,5.186529694E0
3.205046900E0,-1.217999980E-1,9.221999645E-1,6.072399616E0,6.143234092E0
3.215046900E0,-5.469999909E-1,3.213999867E-1,7.674899578E0,7.701077228E0
3.225046900E0,-5.485000014E-1,-1.138999984E-1,7.214299679E0,7.236017228E0
3.235046900E0,-3.154999912E-1,-7.432999611E-1,6.385599613E0,6.436452245E0
3.245051588E0,1.129599929E0,-1.183599949E0,5.709799767E0,5.939589061E0
3.255046900E0,1.712599993E0,-1.445699930E0,5.510600090E0,5.948929347E0
3.265046900E0,1.758799911E0,-1.834899902E0,5.006999969E0,5.615183298E0
3.275046900E0,2.127500057E0,-1.792799950E0,4.506700039E0,5.296294308E0
3.285046900E0,2.202100039E0,-1.320899963E0,3.768699884E0,4.560385961E0
3.295046900E0,1.992699981E0,-6.947999597E-1,2.777400017E0,3.488201693E0
3.305046900E0,1.832699895E0,2.630000003E-2,1.909999967E0,2.647183497E0
3.315046900E0,1.491899967E0,7.354999781E-1,1.637699962E0,2.334263673E0
3.325046900E0,1.449199915E0,1.325799942E0,1.513099909E0,2.479394526E0
3.335046900E0,6.371999979E-1,1.797099948E0,1.773799896E0,2.604219294E0
3.345046900E0,-1.538999975E-1,2.277699947E0,1.460299969E0,2.709995989E0
3.355046900E0,-7.965999842E-1,2.278199911E0,1.359300017E0,2.769921101E0
3.365050025E0,-3.233999908E-1,1.416700006E0,1.536799908E0,2.115036741E0
3.375046900E0,3.823999763E-1,-3.762999773E-1,1.564700007E0,1.654121376E0
3.385046900E0,2.845000029E-1,-2.751099825E0,1.534899950E0,3.163132681E0
3.395046900E0,2.369999886E-2,-4.996599674E0,-2.870999873E-1,5.004897241E0
3.405046900E0,-1.114300013E0,-7.558899879E0,-1.100999951E0,7.719509881E0
3.415050025E0,-2.407500029E0,-9.420299530E0,-9.749999642E-1,9.771833224E0
3.425046900E0,-2.945999861E0,-9.912899971E0,-2.012899876E0,1.053547659E1
3.435046900E0,-3.016099930E0,-9.247399330E0,-3.601300001E0,1.037210754E1
3.445046900E0,-2.066599846E0,-7.501699924E0,-4.872399807E0,9.180774290E0
3.455046900E0,-1.599999890E-2,-4.971199989E0,-7.031299591E0,8.611170610E0
3.465053150E0,3.553999960E-1,-3.753199816E0,-7.927199841E0,8.778001784E0
3.475046900E0,8.725000024E-1,-2.651499987E0,-7.723499775E0,8.212439175E0
3.485050025E0,2.384899855E0,-1.312500000E0,-7.108599663E0,7.612003201E0
3.495046900E0,3.927899837E0,2.327999920E-1,-6.886999607E0,7.931794031E0
3.505046900E0,4.734799862E0,2.001499891E0,-4.918200016E0,7.114283024E0
3.515046900E0,5.896599770E0,3.890299797E0,-3.335799932E0,7.812290480E0
3.525046900E0,4.491099834E0,3.197799921E0,-3.026799917E0,6.289468960E0
3.535046900E0,3.423799992E0,2.748699903E0,-3.105799913E0,5.378080572E0
3.545046900E0,2.815899849E0,2.518599987E0,-2.824699879E0,4.717156692E0
3.555046900E0,7.638999820E-1,2.328199863E0,-2.507200003E0,3.505725266E0
3.565046900E0,-1.498899937E0,1.717000008E0,-6.098999977E-1,2.359399935E0
3.575046900E0,-2.648000002E0,1.557599902E0,2.426300049E0,3.914709873E0
3.585046900E0,-3.240700006E0,1.670399904E0,5.598399639E0,6.680901952E0
3.595046900E0,-3.551899910E0,1.519299984E0,6.056399822E0,7.183609414E0
3.605046900E0,-4.408800125E0,1.053699970E0,5.121500015E0,6.839412590E0
3.615046900E0,-5.760399818E0,3.938999772E-1,3.253799915E0,6.627561931E0
3.625046900E0,-6.955299854E0,-1.076999977E-1,7.358999848E-1,6.994951332E0
3.635046900E0,-6.841099739E0,-7.959999889E-2,-9.470999837E-1,6.906806800E0
3.645046900E0,-6.432799816E0,3.701999784E-1,-1.929999948E0,6.726281387E0
3.655046900E0,-5.913300037E0,7.775999904E-1,-2.864599943E0,6.616472770E0
3.665046900E0,-5.312599659E0,1.014999986E0,-3.525300026E0,6.456135096E0
3.675046900E0,-4.551700115E0,1.239599943E0,-3.656399965E0,5.968571241E0
3.685046900E0,-3.924399853E0,1.097700000E0,-3.289199829E0,5.236859270E0
3.695046900E0,-2.426100016E0,1.029999971E0,-3.173599958E0,4.125360339E0
3.705046900E0,-1.046000004E0,1.526700020E0,-2.753799915E0,3.317882296E0
3.715046900E0,-1.445999891E-1,1.771699905E0,-1.601999998E0,2.392955015E0
3.725046900E0,7.179999948E-1,2.111599922E0,-4.465999901E-1,2.274605411E0
3.735046900E0,1.683899999E0,2.425799847E0,9.666999578E-1,3.107174425E0
3.745046900E0,2.738800049E0,2.467299938E0,1.988899946E0,4.188593760E0
3.755046900E0,3.432999849E0,2.263499975E0,6.492999792E-1,4.162992982E0
3.765046900E0,7.487199783E0,2.029199839E0,-2.502000034E-1,7.761340904E0
3.775046900E0,8.806599617E0,-1.586999893E-1,2.645499945E0,9.196741404E0
3.785046900E0,8.755899429E0,-2.387799978E0,4.202799797E0,1.000154437E1
3.795046900E0,6.241799831E0,-4.399399757E0,3.718299866E0,8.493558574E0
3.805046900E0,4.721699715E0,-5.237599850E0,3.082299948E0,7.695938757E0
3.815046900E0,2.776499987E0,-5.191799641E0,2.270699978E0,6.310294294E0
3.825046900E0,1.587999940E0,-3.639999866E0,1.029899955E0,4.102686529E0
3.835046900E0,1.396799922E0,-2.165899992E0,2.309999987E-2,2.577344837E0
3.845046900E0,7.340999842E-1,-1.208199978E0,-1.024399996E0,1.745865208E0
3.855046900E0,1.468400002E0,1.335999966E-1,-1.644999981E0,2.209088604E0
3.865046900E0,3.148099899E0,1.197799921E0,-2.998999953E-1,3.381596906E0
3.875046900E0,5.018899918E0,1.304399967E0,2.978199959E0,5.980007580E0
3.885046900E0,3.776299953E0,2.819999866E-2,4.539499760E0,5.904938158E0
3.895046900E0,2.519599915E0,-7.637999654E-1,5.175399780E0,5.806594269E0
3.905046900E0,1.697799921E0,-9.729999900E-1,4.604899883E0,5.003434469E0
3.915046900E0,9.131000042E-1,-1.080799937E0,3.007999897E0,3.324145530E0
3.925046900E0,5.809999704E-1,-1.087800026E0,1.295300007E0,1.788483148E0
3.935046900E0,-9.309999645E-2,-2.241899967E0,-1.557599902E0,2.731464905E0
3.945046900E0,-2.030699968E0,-4.818599701E0,-4.298699856E0,6.769155478E0
3.955046900E0,-3.998600006E0,-5.818099976E0,-6.148099899E0,9.361528812E0
3.965046900E0,-4.529999733E0,-5.183300018E0,-7.309700012E0,1.004087700E1
3.975046900E0,-4.068299770E0,-3.302599907E0,-7.888199806E0,9.470054137E0
3.985046900E0,-4.775399685E0,-2.464699984E0,-6.488899708E0,8.425260090E0
3.995046900E0,-6.596299648E0,-2.502199888E0,-3.539399862E0,7.893004796E0
4.005046900E0,-8.161299706E0,-2.353699923E0,9.223999977E-1,8.543859664E0
4.015046900E0,-7.585399628E0,-2.444000006E0,2.964999914E0,8.503096379E0
4.025046900E0,-5.750699997E0,-2.079999924E0,2.572099924E0,6.634202903E0
4.035046900E0,-4.378399849E0,-1.548999906E0,2.162499905E0,5.123103725E0
4.045046900E0,-4.089999676E0,-1.286499977E0,1.393700004E0,4.508389872E0
4.055046900E0,-4.570600033E0,-1.187299967E0,4.689999819E-1,4.745527036E0
4.065046900E0,-4.138700008E0,-8.868999481E-1,-5.324000120E-1,4.266014422E0
4.075046900E0,-4.252200127E0,-8.653999567E-1,-1.330399990E0,4.538731886E0
4.085046900E0,-3.820599794E0,-3.546999991E-1,-6.094999909E-1,3.885136435E0
4.095046900E0,-2.312000036E0,2.258999944E-1,-4.580000043E-2,2.323461344E0
4.105046900E0,-1.319700003E0,7.946999669E-1,-7.213999629E-1,1.701050864E0
4.115046900E0,-1.117399931E0,1.097199917E0,-1.732299924E0,2.335228745E0
4.125046900E0,-1.160999984E-1,1.762399912E0,-2.611099958E0,3.152360330E0
4.135046900E0,-4.063999951E-1,2.016700029E0,-3.056499958E0,3.684349598E0
4.145046900E0,-4.533999860E-1,1.940999985E0,-1.871799946E0,2.734353219E0
4.155046900E0,7.161999941E-1,1.977199912E0,-3.480000049E-2,2.103205402E0
4.165046900E0,1.599799991E0,2.258699894E0,1.180999994E0,3.009293307E0
4.175046900E0,1.993499994E0,2.645099878E0,9.393999577E-1,3.442828470E0
4.185046900E0,1.331499934E0,2.528100014E0,1.755699992E0,3.353604660E0
4.195046900E0,1.485199928E0,2.409399986E0,2.020900011E0,3.477795850E0
4.205046900E0,1.377200007E0,2.358099937E0,3.532500029E0,4.464960428E0
4.215046900E0,1.210199952E0,1.986199975E0,3.331899881E0,4.063389113E0
4.225046900E0,6.895999908E-1,1.317099929E0,1.493600011E0,2.107401566E0
4.235046900E0,8.698999882E-1,6.772999763E-1,-3.797999918E-1,1.166065728E0
4.245046900E0,5.331999660E-1,1.777999997E-1,-8.035999537E-1,9.806568865E-1
4.255046900E0,8.599999547E-1,-1.304000020E-1,-5.939999819E-1,1.053299607E0
4.265046900E0,1.323899984E0,-2.092999965E-1,-5.245999694E-1,1.439348042E0
4.275046900E0,1.794600010E0,-2.865999937E-1,-8.215999603E-1,1.994431058E0
4.285046900E0,1.856399894E0,-3.829999864E-1,-1.302299976E0,2.299759723E0
4.295046900E0,1.625800014E0,-3.513000011E-1,-1.561100006E0,2.281155541E0
4.305046900E0,1.496799946E0,-1.409999933E-2,-1.543799996E0,2.150331908E0
4.315046900E0,1.391099930E0,4.617999792E-1,-1.079900026E0,1.820604928E0
4.325046900E0,1.197899938E0,9.091999531E-1,-3.844999969E-1,1.552240015E0
4.335046900E0,1.032999992E0,1.317199945E0,5.784999728E-1,1.771092008E0
4.345050025E0,9.443999529E-1,1.665399909E0,1.697499990E0,2.558701691E0
4.355046900E0,1.244199991E0,2.070400000E0,1.876399994E0,3.058670743E0
4.365046900E0,1.051299930E0,2.129400015E0,2.941200018E0,3.780242520E0
4.375046900E0,2.236000001E-1,1.870799899E0,3.541499853E0,4.011497281E0
4.385046900E0,-9.713999629E-1,1.236199975E0,4.593699932E0,4.855294773E0
4.395054713E0,-1.947199941E0,1.088999957E-1,5.428999901E0,5.768664208E0
4.405046900E0,-2.477599859E0,-1.068099976E0,6.045899868E0,6.620592408E0
4.415046900E0,-2.005499840E0,-1.812999964E0,5.507400036E0,6.135181630E0
4.425046900E0,-1.127799988E0,-2.262500048E0,4.505300045E0,5.166097925E0
4.435046900E0,1.620000005E-1,-2.662099838E0,3.977999926E0,4.789311324E0
4.445046900E0,7.622999549E-1,-3.061199903E0,3.762599945E0,4.910112465E0
4.455050025E0,1.140399933E0,-3.322599888E0,3.631500006E0,5.052521580E0
4.465046900E0,2.463799953E0,-3.240399837E0,3.608699799E0,5.439964665E0
4.475046900E0,3.360899925E0,-2.442699909E0,3.499899864E0,5.432469992E0
4.485046900E0,3.544699907E0,-1.244300008E0,2.882699966E0,4.735307703E0
4.495046900E0,3.680899858E0,-2.809999883E-2,2.067499876E0,4.221891651E0
4.505046900E0,3.968199968E0,1.225899935E0,1.668299913E0,4.475786662E0
4.515046900E0,4.098599911E0,2.213000059E0,1.551499963E0,4.909484965E0
4.525046900E0,4.078799725E0,2.608999968E0,1.758499980E0,5.151292091E0
4.535046900E0,3.536299944E0,2.609499931E0,2.018300056E0,4.836159872E0
4.545046900E0,2.311599970E0,2.518800020E0,1.832499981E0,3.878905019E0
4.555046900E0,8.608999848E-1,2.377199888E0,1.530099988E0,2.955238411E0
4.565046900E0,1.378999949E-1,2.128700018E0,1.727199912E0,2.744740372E0
4.575046900E0,1.955000013E-1,1.235399961E0,1.750299931E0,2.151274776E0
4.585046900E0,6.744999886E-1,-6.775999665E-1,1.820199966E0,2.056020396E0
4.595046900E0,3.942999840E-1,-3.477799892E0,1.409799933E0,3.773340751E0
4.605046900E0,-3.500999808E-1,-6.367799759E0,6.363999844E-1,6.409091098E0
4.615050025E0,-1.026399970E0,-8.566399574E0,-6.006000042E-1,8.648550106E0
4.625046900E0,-1.655099988E0,-9.251199722E0,-2.915199995E0,9.839839596E0
4.635046900E0,-1.552899957E0,-8.759799957E0,-5.127799988E0,1.026839453E1
4.645046900E0,-1.825799942E0,-7.699199677E0,-6.250799656E0,1.008383446E1
4.655046900E0,-2.008699894E0,-5.951200008E0,-6.813600063E0,9.266973758E0
4.665057838E0,-1.158800006E0,-4.108799934E0,-6.936499596E0,8.144942050E0
4.675046900E0,4.409999847E-1,-2.568199873E0,-7.340299606E0,7.789103279E0
4.685046900E0,2.296599865E0,-8.631999493E-1,-5.639499664E0,6.150076549E0
4.695046900E0,4.170399666E0,3.522000015E-1,-4.580699921E0,6.204763491E0
4.705046900E0,4.428800106E0,7.710999846E-1,-5.704199791E0,7.262696525E0
4.715060963E0,3.342499971E0,1.413900018E0,-6.050299644E0,7.055320340E0
4.725046900E0,4.085199833E0,2.280099869E0,-6.201200008E0,7.768049603E0
4.735046900E0,4.848999977E0,3.097100019E0,-6.268099785E0,8.508460743E0
4.745046900E0,2.990499973E0,3.020200014E0,-3.905599833E0,5.772209999E0
4.755046900E0,2.562399864E0,3.281999826E0,4.862999916E-1,4.192123997E0
4.765046900E0,6.132000089E-1,2.775499821E0,3.745999813E0,4.702332199E0
4.775046900E0,-1.341499925E0,1.942199945E0,3.522899866E0,4.240587948E0
4.785046900E0,-2.970299959E0,1.432500005E0,2.476899862E0,4.124290368E0
4.795046900E0,-4.060100079E0,1.332700014E0,2.507799864E0,4.954751470E0
4.805046900E0,-4.966899872E0,1.067000031E0,2.595899820E0,5.705022286E0
4.815046900E0,-5.771100044E0,6.834999919E-1,2.267699957E0,6.238207359E0
4.825046900E0,-6.201699734E0,3.197000027E-1,1.114599943E0,6.309169574E0
4.835046900E0,-5.665499687E0,6.367999911E-1,-5.191999674E-1,5.724768077E0
4.845046900E0,-4.951099873E0,1.166100025E0,-1.750299931E0,5.379287040E0
4.855046900E0,-4.391499996E0,1.603699923E0,-2.235800028E0,5.182270489E0
4.865046900E0,-3.766999960E0,1.938599944E0,-2.463599920E0,4.900794120E0
4.875046900E0,-3.004199982E0,1.954399943E0,-2.862200022E0,4.586620284E0
4.885046900E0,-2.289700031E0,1.719200015E0,-3.177099943E0,4.276954404E0
4.895046900E0,-1.589299917E0,1.625599980E0,-2.558899879E0,3.422925374E0
4.905046900E0,-1.742900014E0,1.526299953E0,-1.934099913E0,3.017952034E0
4.915046900E0,-9.321999550E-1,2.178400040E0,-5.927000046E-1,2.442481686E0
4.925046900E0,5.729999766E-2,2.698899984E0,1.476199985E0,3.076769541E0
4.935046900E0,3.172999918E-1,3.171299934E0,2.066299915E0,3.798344100E0
4.945046900E0,3.786999881E-1,2.722699881E0,1.804399967E0,3.288216471E0
4.955046900E0,4.217999935E0,2.432999849E0,-4.282999933E-1,4.888195230E0
4.965046900E0,7.309700012E0,1.178900003E0,6.466999650E-1,7.432344202E0
4.975046900E0,7.981099606E0,-6.294999719E-1,1.862699986E0,8.219724592E0
4.985046900E0,8.330100060E0,-2.651399851E0,4.119199753E0,9.663761937E0
4.995046900E0,7.808099747E0,-4.146299839E0,4.981999874E0,1.014783458E1
5.005046900E0,7.137899876E0,-4.901199818E0,5.239999771E0,1.012071993E1
5.015046900E0,6.271299839E0,-4.639800072E0,4.681999683E0,9.098245293E0
5.025046900E0,3.900499821E0,-4.389599800E0,3.121799946E0,6.650422555E0
5.035046900E0,2.517499924E0,-3.626699924E0,4.581999779E-1,4.438547671E0
5.045046900E0,2.593499899E0,-2.883699894E0,-2.738099813E0,4.747542248E0
5.055046900E0,2.346799850E0,-1.781399965E0,-4.980599880E0,5.786815233E0
5.065046900E0,2.774600029E0,-3.869999945E-1,-3.892399788E0,4.795722096E0
5.075046900E0,3.990999937E0,6.611999869E-1,-1.110499978E0,4.195053769E0
5.085046900E0,3.141099930E0,5.888999701E-1,5.942999721E-1,3.250616003E0
5.095046900E0,1.927199960E0,-7.729999721E-2,1.576299906E0,2.490942867E0
5.105046900E0,7.890999913E-1,-9.921000004E-1,2.410199881E0,2.723234230E0
5.115046900E0,-7.129999995E-2,-2.051699877E0,2.218299866E0,3.022484139E0
5.125046900E0,-9.842999578E-1,-4.041999817E0,6.134999990E-1,4.205114883E0
5.135046900E0,-2.187700033E0,-5.718100071E0,-1.076200008E0,6.216181007E0
5.145046900E0,-2.502099991E0,-6.426199913E0,-2.011800051E0,7.183584699E0
5.155046900E0,-3.411499977E0,-5.442399979E0,-1.895699978E0,6.697143274E0
5.165046900E0,-3.894899845E0,-3.251399994E0,-2.836499929E0,5.812708368E0
5.175046900E0,-4.072599888E0,-1.489599943E0,-4.481999874E0,6.236449367E0
5.185046900E0,-5.047100067E0,-3.917999864E-1,-4.857699871E0,7.015979928E0
5.195056275E0,-6.134999752E0,-2.019999921E-1,-3.691699982E0,7.162937575E0
5.205045338E0,-6.188799858E0,-1.805000007E-1,-1.993599892E0,6.504480338E0
5.215046900E0,-6.030299664E0,-6.499999762E-2,-1.344999969E-1,6.032149640E0
5.225046900E0,-5.097799778E0,-1.005999967E-1,1.925899982E0,5.450392066E0
5.235046900E0,-4.077099800E0,-6.944999695E-1,1.684399962E0,4.465677577E0
5.245054713E0,-3.109799862E0,-8.690999746E-1,6.809999943E-1,3.299992567E0
5.255046900E0,-3.066399813E0,-1.125900030E0,2.232999951E-1,3.274190217E0
5.265046900E0,-3.534399986E0,-1.151799917E0,6.119999886E-1,3.767382420E0
5.275046900E0,-3.733999968E0,-1.072999954E0,6.010999680E-1,3.931336393E0
5.285046900E0,-3.395200014E0,-8.273999691E-1,3.285000026E-1,3.509969529E0
5.295046900E0,-2.508999825E0,-9.839999676E-2,3.192999959E-1,2.531148981E0
5.305046900E0,-1.366599917E0,5.159000158E-1,6.909999847E-1,1.615929806E0
5.315046900E0,-4.257999957E-1,1.316699982E0,4.531999826E-1,1.456157513E0
5.325060963E0,-2.356999964E-1,1.870299935E0,-4.948999882E-1,1.948974688E0
5.335046900E0,-3.501999974E-1,1.951299906E0,-1.145799994E0,2.289774877E0
5.345046900E0,-6.994999647E-1,2.363899946E0,-1.413200021E0,2.841558983E0
5.355046900E0,-2.877999842E-1,2.402799845E0,1.730999947E-1,2.426157359E0
5.365046900E0,6.090999842E-1,2.470299959E0,9.630999565E-1,2.720468012E0
5.375046900E0,9.375999570E-1,2.368700027E0,1.430199981E0,2.921524514E0
5.385046900E0,8.833999634E-1,2.019500017E0,1.467399955E0,2.648025385E0
5.395046900E0,8.815999627E-1,1.717999935E0,6.466999650E-1,2.036409369E0
5.405046900E0,1.246199965E0,1.485399961E0,2.940999866E-1,1.961102292E0
5.415046900E0,1.204900026E0,1.135299921E0,-2.960000038E-1,1.681756815E0
5.425046900E0,1.017899990E0,7.954999804E-1,-6.256999969E-1,1.435423664E0
5.435046900E0,5.878999829E-1,5.353999734E-1,-5.730000138E-1,9.801063908E-1
5.445046900E0,3.823999763E-1,3.851999938E-1,-4.337999821E-1,6.948317793E-1
5.455046900E0,4.273999929E-1,2.565999925E-1,-3.999999762E-1,6.391512271E-1
5.465046900E0,7.356999516E-1,2.178999931E-1,-5.162000060E-1,9.247687668E-1
5.475046900E0,1.011600018E0,2.588000000E-1,-4.699999988E-1,1.145081671E0
5.485056275E0,1.076300025E0,2.511999905E-1,-5.270999670E-1,1.224482566E0
5.495046900E0,1.430199981E0,2.440999895E-1,-4.013999999E-1,1.505383257E0
5.505046900E0,1.394599915E0,2.962000072E-1,7.199999876E-3,1.425726203E0
5.515046900E0,1.134699941E0,5.442000031E-1,7.287999988E-1,1.454251367E0
5.525046900E0,6.794999838E-1,8.993999958E-1,1.486599922E0,1.865641956E0
5.535062525E0,7.172999978E-1,1.234200001E0,2.414599895E0,2.805006521E0
5.545046900E0,9.325000048E-1,1.685299993E0,3.075799942E0,3.629095977E0
5.555046900E0,1.006500006E0,2.222800016E0,3.317999840E0,4.118616893E0
5.565046900E0,1.298799992E0,2.974099874E0,3.524699926E0,4.791206638E0
5.575046900E0,1.522099972E0,3.115299940E0,4.111199856E0,5.378089465E0
5.585053150E0,1.447099924E0,2.538300037E0,4.942199707E0,5.741289334E0
5.595046900E0,1.164699912E0,1.174999952E0,5.501100063E0,5.744497600E0
5.605046900E0,9.068999887E-1,8.549999446E-2,6.011899948E0,6.080519618E0
5.615051588E0,1.246799946E0,-7.292999625E-1,6.546000004E0,6.703469593E0
5.625046900E0,1.478500009E0,-1.337799907E0,6.618599892E0,6.912418925E0
5.635046900E0,1.226999998E0,-1.906799912E0,6.084699631E0,6.493457053E0
5.645046900E0,1.083500028E0,-2.210799932E0,5.090399742E0,5.654536072E0
5.655046900E0,1.355299950E0,-2.141999960E0,4.236400127E0,4.936809478E0
5.665059400E0,1.796899915E0,-1.592599988E0,4.060800076E0,4.717554587E0
5.675046900E0,1.968599916E0,-6.613999605E-1,3.389799833E0,3.975371485E0
5.685046900E0,2.561499834E0,1.114000008E-1,2.293099880E0,3.439767204E0
5.695046900E0,2.608500004E0,8.138999939E-1,1.412599921E0,3.076059819E0
5.705046900E0,2.332299948E0,1.550999999E0,1.215600014E0,3.053343649E0
5.715046900E0,1.998499990E0,2.379799843E0,1.318699956E0,3.375858272E0
5.725046900E0,1.527199984E0,2.771899939E0,1.355999947E0,3.443037164E0
5.735046900E0,5.162999630E-1,2.651700020E0,1.546800017E0,3.112983929E0
5.745046900E0,-6.229999661E-1,1.843599916E0,2.116999865E0,2.875530913E0
5.755046900E0,-6.202999949E-1,5.509999767E-2,2.388900042E0,2.468734798E0
5.765046900E0,-5.830000043E-1,-2.418900013E0,2.702600002E0,3.673555914E0
5.775057838E0,-5.884000063E-1,-4.836400032E0,1.635100007E0,5.139117811E0
5.785046900E0,-9.706999660E-1,-7.613799572E0,-5.749999732E-2,7.675643855E0
5.795046900E0,-1.767799973E0,-1.023579979E1,-4.034999907E-1,1.039516841E1
5.805046900E0,-2.097599983E0,-1.134099960E1,-6.390999556E-1,1.155104525E1
5.815046900E0,-1.784899950E0,-1.084289932E1,-2.599200010E0,1.129204030E1
5.825057838E0,-1.755399942E0,-9.219200134E0,-4.841199875E0,1.055993827E1
5.835046900E0,-4.250000045E-2,-7.107299805E0,-6.756700039E0,9.806554552E0
5.845046900E0,5.277000070E-1,-5.183199883E0,-7.632899761E0,9.241492687E0
5.855046900E0,1.744300008E0,-2.783200026E0,-6.513199806E0,7.294556643E0
5.865046900E0,4.291100025E0,-1.607199907E0,-6.992300034E0,8.359957579E0
5.875046900E0,6.415099621E0,1.639999896E-1,-6.249300003E0,8.957351711E0
5.885046900E0,4.173699856E0,8.691999912E-1,-7.461099625E0,8.593211665E0
5.895046900E0,2.719899893E0,1.422899961E0,-7.370100021E0,7.983788202E0
5.905053150E0,1.205600023E0,1.646499991E0,-6.485599995E0,6.799076476E0
5.915046900E0,4.271000028E-1,1.835899949E0,-5.607399940E0,5.915731327E0
5.925046900E0,3.324999809E-1,2.006899834E0,-3.896499872E0,4.395556214E0
5.935046900E0,-1.606999934E-1,2.269000053E0,-2.183799982E0,3.153278943E0
5.945046900E0,-1.907299995E0,1.949399948E0,-4.010999799E-1,2.756598379E0
5.955046900E0,-3.241499901E0,1.949299932E0,1.873199940E0,4.220896806E0
5.965046900E0,-3.794999838E0,2.387799978E0,5.323499680E0,6.960119348E0
5.975046900E0,-3.607199907E0,2.701699972E0,8.274600029E0,9.422318162E0
5.985046900E0,-5.379299641E0,2.875799894E0,7.746699810E0,9.859941562E0
5.995046900E0,-5.955499649E0,2.147300005E0,6.025699615E0,8.740018835E0
6.005046900E0,-6.234600067E0,1.271499991E0,3.988199949E0,7.509506579E0
6.015046900E0,-6.330100060E0,6.768999696E-1,1.850499988E0,6.629684045E0
6.025046900E0,-6.272299767E0,5.295999646E-1,-6.140999794E-1,6.324503085E0
6.035046900E0,-6.147599697E0,7.494999766E-1,-2.265499830E0,6.594484190E0
6.045046900E0,-5.626199722E0,1.258299947E0,-3.382999897E0,6.684469341E0
6.055046900E0,-4.719899654E0,1.693799973E0,-3.668099880E0,6.212999905E0
6.065046900E0,-4.294799805E0,1.732299924E0,-4.069799900E0,6.165179609E0
6.075046900E0,-2.816799879E0,1.934999943E0,-3.543900013E0,4.923191408E0
6.085046900E0,-1.404599905E0,2.224900007E0,-2.584899902E0,3.688466950E0
6.095046900E0,1.375000030E-1,2.922600031E0,-9.776999950E-1,3.084865390E0
6.105046900E0,2.172399998E0,2.739399910E0,-7.774999738E-1,3.581639265E0
6.115046900E0,5.355000019E0,3.204999924E0,-1.329899907E0,6.380962582E0
6.125046900E0,9.013500214E0,2.601599932E0,-5.861299992E0,1.106193229E1
6.135046900E0,8.630499840E0,1.620899916E0,2.559999824E-1,8.785122652E0
6.145046900E0,7.880799770E0,4.189999774E-2,4.978099823E0,9.321493361E0
6.155046900E0,6.483599663E0,-1.431899905E0,6.443599701E0,9.252425576E0
6.165046900E0,6.044899940E0,-4.006599903E0,6.993700027E0,1.007499370E1
6.175046900E0,5.510099888E0,-5.456500053E0,6.567699909E0,1.016214917E1
6.185046900E0,4.262899876E0,-5.466899872E0,4.767199993E0,8.413412229E0
6.195046900E0,3.053400040E0,-4.740499973E0,2.152699947E0,6.035702847E0
6.205046900E0,2.432899952E0,-4.757400036E0,-4.219999909E-2,5.343560435E0
6.215046900E0,1.583899975E0,-4.462199688E0,-2.219300032E0,5.229269339E0
6.225046900E0,1.632599950E0,-3.407699823E0,-3.958999872E0,5.472794594E0
6.235046900E0,2.456599951E0,-2.517799854E0,-3.287799835E0,4.814958689E0
6.245046900E0,4.145699978E0,-1.297399998E0,5.810999870E-1,4.382664972E0
6.255046900E0,4.268799782E0,-1.047299981E0,3.437699795E0,5.580077841E0
6.265046900E0,3.205399990E0,-1.623499990E0,3.052199841E0,4.714474009E0
6.275046900E0,2.424799919E0,-2.353699923E0,2.314199924E0,4.095739160E0
6.285046900E0,6.078000069E-1,-2.632400036E0,4.623000026E-1,2.740925408E0
6.295046900E0,-2.214299917E0,-2.520900011E0,-2.352599859E0,4.097900327E0
6.305046900E0,-4.539999962E0,-2.802000046E0,-4.628999710E0,7.063316659E0
6.315046900E0,-5.584499836E0,-2.242399931E0,-4.700699806E0,7.636201578E0
6.325046900E0,-5.705299854E0,-1.262899995E0,-3.672799826E0,6.901798417E0
6.335046900E0,-5.338699818E0,-1.129999980E-1,-1.859599948E0,5.654431599E0
6.345046900E0,-5.493299961E0,1.949999928E-1,3.183999956E-1,5.505973848E0
6.355046900E0,-5.911099911E0,-4.324999750E-1,1.449199915E0,6.101502993E0
6.365046900E0,-5.962499619E0,-1.292400002E0,1.809099913E0,6.363532192E0
6.375046900E0,-5.903699875E0,-2.690199852E0,1.558300018E0,6.672266961E0
6.385046900E0,-5.315299988E0,-3.400300026E0,1.357699990E0,6.454285668E0
6.395046900E0,-4.509699821E0,-3.375200033E0,7.335000038E-1,5.680439244E0
6.405046900E0,-3.253499985E0,-3.038599968E0,-1.017999947E-1,4.452944549E0
6.415046900E0,-2.424700022E0,-2.186100006E0,-8.644999862E-1,3.377212409E0
6.425046900E0,-3.108599901E0,-1.241099954E0,-1.576200008E0,3.699747141E0
6.435046900E0,-3.164499998E0,-7.012999654E-1,-1.513099909E0,3.577059297E0
6.445046900E0,-2.318399906E0,1.823000014E-1,-1.490499973E0,2.762209548E0
6.455046900E0,-1.670799971E0,9.302999973E-1,-1.324199915E0,2.326055898E0
6.465046900E0,-6.606000066E-1,1.562299967E0,-9.849999547E-1,1.961478643E0
6.475046900E0,-3.587999940E-1,1.890999913E0,-3.382999897E-1,1.954242818E0
6.485046900E0,1.641999930E-1,2.366199970E0,-8.479999751E-2,2.373405776E0
6.495046900E0,1.153999940E-1,2.379099846E0,4.465000033E-1,2.423385130E0
6.505046900E0,3.463999927E-1,2.369799852E0,1.116299987E0,2.642360679E0
6.515046900E0,8.039000034E-1,2.612299919E0,1.720299959E0,3.229519784E0
6.525046900E0,6.918999553E-1,2.733799934E0,2.575899839E0,3.819377909E0
6.535046900E0,5.141999722E-1,2.911999941E0,3.184700012E0,4.345855432E0
6.545046900E0,6.595999599E-1,3.108599901E0,3.201699972E0,4.511025179E0
6.555046900E0,8.912000060E-1,3.157099962E0,3.223199844E0,4.598971065E0
6.565046900E0,9.972999692E-1,2.664199829E0,2.451900005E0,3.755580061E0
6.575046900E0,8.459999561E-1,1.933699965E0,1.032299995E0,2.349586083E0
6.585046900E0,1.171999946E-1,1.152499914E0,-5.389999747E-1,1.277698268E0
6.595046900E0,-6.690999866E-1,6.268000007E-1,-1.127300024E0,1.453058284E0
6.605046900E0,-1.136299968E0,2.710999846E-1,-1.643499970E0,2.016374214E0
6.615046900E0,-1.446099997E0,-1.099999994E-1,-1.756699920E0,2.278003470E0
6.625046900E0,-1.003499985E0,-3.208999932E-1,-1.900099993E0,2.172641021E0
6.635056275E0,-6.010000110E-1,-4.702000022E-1,-2.287899971E0,2.411799190E0
6.645046900E0,-1.296000034E-1,-5.577999949E-1,-2.350499868E0,2.419253320E0
6.655046900E0,3.303999901E-1,-5.936999917E-1,-2.113999844E0,2.220504261E0
6.665046900E0,6.585999727E-1,-6.274999976E-1,-1.948599935E0,2.150477128E0
6.675046900E0,8.623999953E-1,-5.225999951E-1,-1.067799926E0,1.468686893E0
6.685046900E0,1.008700013E0,-3.469999880E-2,2.145999968E-1,1.031858985E0
6.695046900E0,1.320899963E0,5.992999673E-1,1.715299964E0,2.246372883E0
6.705046900E0,1.546700001E0,1.324100018E0,2.673099995E0,3.360206144E0
6.715046900E0,1.842700005E0,2.124799967E0,3.072999954E0,4.165770868E0
6.725046900E0,1.713799953E0,2.730900049E0,3.353099823E0,4.651688272E0
6.735046900E0,1.959599972E0,2.883199930E0,3.686699867E0,5.073916613E0
6.745046900E0,2.070600033E0,3.082000017E0,4.476299763E0,5.815786118E0
6.755046900E0,2.003799915E0,2.719499826E0,5.085199833E0,6.104928398E0
6.765046900E0,1.050300002E0,1.344799995E0,5.636399746E0,5.889025320E0
6.775046900E0,1.049999986E-2,-2.366999984E-1,6.414499760E0,6.418874068E0
6.785046900E0,2.362999916E-1,-1.238099933E0,6.887300014E0,7.001687698E0
6.795046900E0,6.645999551E-1,-1.629199982E0,6.653100014E0,6.881840268E0
6.805057838E0,1.016399980E0,-1.656199932E0,5.855599880E0,6.169612394E0
6.815048463E0,1.405699968E0,-1.457000017E0,5.658799648E0,6.010062804E0
6.825046900E0,1.511299968E0,-9.445999861E-1,5.923500061E0,6.185802268E0
6.835046900E0,1.478199959E0,-3.359999955E-1,5.067299843E0,5.289186971E0
6.845046900E0,1.159899950E0,-6.399999559E-2,3.480399847E0,3.669147992E0
6.855046900E0,1.066299915E0,2.440999895E-1,2.060999870E0,2.333302548E0
6.865046900E0,1.261799932E0,5.597999692E-1,7.635999918E-1,1.577529721E0
6.875046900E0,1.595399976E0,5.011999607E-1,8.009999990E-2,1.674191893E0
6.885046900E0,1.597800016E0,2.942999899E-1,3.161000013E-1,1.655142467E0
6.895046900E0,9.868999720E-1,-1.099999994E-1,1.485399961E0,1.786752529E0
6.905046900E0,1.735999882E-1,-1.084599972E0,2.010799885E0,2.291246436E0
6.915046900E0,-1.350999922E-1,-2.805999994E0,1.756699920E0,3.313288787E0
6.925046900E0,6.009999663E-2,-5.156899929E0,1.899599910E0,5.495972044E0
6.935046900E0,1.040000003E-2,-7.573599815E0,9.001999497E-1,7.626918268E0
6.945046900E0,-1.112800002E0,-9.622699738E0,-5.550999641E-1,9.702721786E0
6.955046900E0,-2.500000000E0,-1.052250004E1,-1.656499982E0,1.094152637E1
6.965050025E0,-3.378000021E0,-9.957300186E0,-3.505599976E0,1.108367910E1
6.975046900E0,-2.277899981E0,-8.352499962E0,-5.758999825E0,1.039803649E1
6.985046900E0,-1.121999979E0,-6.463500023E0,-7.725100040E0,1.013473666E1
6.995046900E0,-4.129999876E-2,-5.004999638E0,-9.167200089E0,1.044458159E1
7.005046900E0,1.321599960E0,-3.162899971E0,-8.556599617E0,9.217698177E0
7.015059400E0,3.078599930E0,-1.636500001E0,-6.500499725E0,7.376476561E0
7.025046900E0,4.732299805E0,-2.683999836E-1,-5.216599941E0,7.048376759E0
7.035046900E0,5.823299885E0,1.131600022E0,-4.696300030E0,7.566146584E0
7.045046900E0,4.951799870E0,1.837700009E0,-6.170899868E0,8.122651565E0
7.055046900E0,4.070399761E0,2.170399904E0,-5.719199657E0,7.347655046E0
7.065046900E0,3.569799900E0,2.526399851E0,-4.114799976E0,6.004810270E0
7.075046900E0,2.621000051E0,2.613600016E0,-1.661999941E0,4.057436397E0
7.085048463E0,1.518599987E0,2.423300028E0,-1.754499912E0,3.355115332E0
7.095046900E0,5.949999765E-2,2.533200026E0,-1.203899980E0,2.805355197E0
7.105046900E0,-5.999000072E-1,2.446399927E0,1.067999974E-1,2.521142372E0
7.115046900E0,-1.575299978E0,2.112999916E0,1.180099964E0,2.887728275E0
7.125046900E0,-2.757799864E0,2.040299892E0,1.847599983E0,3.896396982E0
7.135046900E0,-3.959800005E0,2.082299948E0,3.514400005E0,5.689199992E0
7.145046900E0,-5.279900074E0,1.933099985E0,4.204699993E0,7.020948823E0
7.155046900E0,-6.634699821E0,1.131099939E0,3.226300001E0,7.463755120E0
7.165046900E0,-6.890299797E0,6.428999901E-1,1.750599980E0,7.138217703E0
7.175046900E0,-6.748399734E0,6.297999620E-1,8.240000159E-2,6.778225190E0
7.185046900E0,-6.452199936E0,9.643999934E-1,-1.682500005E0,6.737340546E0
7.195046900E0,-6.023799896E0,1.293900013E0,-3.178799868E0,6.932900622E0
7.205046900E0,-5.385200024E0,1.385599971E0,-4.256099701E0,7.002474651E0
7.215046900E0,-4.519599915E0,1.399500012E0,-4.673399925E0,6.650266952E0
7.225046900E0,-3.527499914E0,1.664099932E0,-4.425099850E0,5.898643311E0
7.235046900E0,-2.514699936E0,2.026599884E0,-2.124799967E0,3.865953667E0
7.245046900E0,-2.279500008E0,2.088700056E0,-1.933799982E0,3.646693102E0
7.255046900E0,-8.665999770E-1,3.616699934E0,-1.242499948E0,3.921137597E0
7.265046900E0,6.180999875E-1,4.226999760E0,1.313000023E-1,4.273969379E0
7.275046900E0,2.849999905E0,4.730899811E0,2.491199970E0,6.058876939E0
7.285046900E0,4.225299835E0,3.632200003E0,1.684499979E0,5.820960036E0
7.295046900E0,6.446499825E0,2.890499830E0,2.556299925E0,7.513123090E0
7.305046900E0,9.027400017E0,5.246999860E-1,3.428699970E0,9.670845083E0
7.315046900E0,8.566699982E0,-2.801800013E0,4.035900116E0,9.875571965E0
7.325046900E0,8.748299599E0,-5.088399887E0,4.743599892E0,1.117704340E1
7.335046900E0,7.985199928E0,-6.541199684E0,5.361799717E0,1.163183594E1
7.345046900E0,6.095499992E0,-6.947099686E0,5.073699951E0,1.054323221E1
7.355046900E0,3.686199903E0,-6.090699673E0,3.780399799E0,8.060776320E0
7.365046900E0,2.115499973E0,-4.253299713E0,1.350899935E0,4.938707242E0
7.375046900E0,2.308399916E0,-3.257599831E0,-1.797399998E0,4.378505861E0
7.385046900E0,2.482699871E0,-2.037499905E0,-5.144399643E0,6.064655983E0
7.395046900E0,2.948199987E0,-4.192999899E-1,-5.477499962E0,6.234637237E0
7.405046900E0,5.368999958E0,8.956999779E-1,-2.488100052E0,5.984904416E0
7.415046900E0,4.661499977E0,1.046599984E0,-9.382999539E-1,4.868815089E0
7.425046900E0,2.825999975E0,3.330000043E-1,-1.141700029E0,3.066046937E0
7.435046900E0,1.632299900E0,2.559999935E-2,-5.594999790E-1,1.725716822E0
7.445046900E0,1.100799918E0,-3.698999882E-1,1.823999882E-1,1.175523805E0
7.455046900E0,7.238999605E-1,-1.486699939E0,1.325999945E-1,1.658882340E0
7.465046900E0,-6.388999820E-1,-2.652899981E0,-7.743999958E-1,2.836506099E0
7.475046900E0,-1.965999961E0,-3.998099804E0,-1.544399977E0,4.715413998E0
7.485046900E0,-2.701200008E0,-5.209499836E0,-1.156700015E0,5.981080584E0
7.495046900E0,-4.598299980E0,-4.998600006E0,-1.328199983E0,6.920583785E0
7.505046900E0,-5.320699692E0,-3.727099895E0,-1.704499960E0,6.716132738E0
7.515046900E0,-5.405200005E0,-2.367300034E0,-1.928699970E0,6.208073784E0
7.525046900E0,-5.318599701E0,-1.016399980E0,-1.802199960E0,5.706881494E0
7.535046900E0,-5.405299664E0,-6.771000028E-1,-1.007499933E0,5.539926442E0
7.545054713E0,-5.250599861E0,-1.096799970E0,-3.788000047E-1,5.377291002E0
7.555046900E0,-4.849899769E0,-1.385200024E0,-3.983999789E-1,5.059548341E0
7.565046900E0,-4.240799904E0,-1.485499978E0,-4.955999851E-1,4.520698326E0
7.575046900E0,-3.570299864E0,-1.429199934E0,7.729999721E-2,3.846508658E0
7.585046900E0,-3.227099895E0,-1.286899924E0,1.473999977E0,3.773984775E0
7.595050025E0,-3.667099953E0,-1.277899981E0,1.678799987E0,4.230723321E0
7.605046900E0,-3.509399891E0,-1.430699944E0,1.232699990E0,3.985265260E0
7.615046900E0,-3.720499992E0,-9.199999571E-1,7.267000079E-1,3.900847730E0
7.625054713E0,-3.535599947E0,-2.624000013E-1,1.662999988E-1,3.549221948E0
7.635046900E0,-2.779299974E0,3.587999940E-1,-2.136999965E-1,2.810500573E0
7.645046900E0,-1.678099990E0,9.247999787E-1,-5.543999672E-1,1.994651323E0
7.655046900E0,-1.135800004E0,1.570500016E0,-2.750999928E-1,1.957598518E0
7.665046900E0,-1.210399985E0,1.802999973E0,8.079999685E-2,2.173109677E0
7.675050025E0,-1.046999931E0,2.259299994E0,5.163999796E-1,2.543091476E0
7.685046900E0,-3.380999863E-1,2.635399818E0,1.350299954E0,2.980428454E0
7.695046900E0,4.041999876E-1,2.890899897E0,2.504899979E0,3.846453398E0
7.705046900E0,7.592999935E-1,2.711899996E0,2.996599913E0,4.112243804E0
7.715046900E0,8.303999901E-1,2.388000011E0,2.598000050E0,3.625149991E0
7.725046900E0,6.412000060E-1,2.157299995E0,1.958899975E0,2.983683936E0
7.735046900E0,5.295999646E-1,2.129299879E0,3.352999985E-1,2.219644158E0
7.745046900E0,6.182999611E-1,1.777599931E0,-5.846999884E-1,1.970794366E0
7.755046900E0,1.075799942E0,1.242699981E0,-8.585999608E-1,1.854411672E0
7.765046900E0,1.056499958E0,4.080999792E-1,-6.639999747E-1,1.312872317E0
7.775046900E0,1.236799955E0,1.889999956E-2,-7.866999507E-1,1.465922287E0
7.785046900E0,1.343400002E0,-5.240000039E-2,-3.367999792E-1,1.385966648E0
7.795046900E0,1.316200018E0,3.519999981E-2,-4.323999882E-1,1.385853988E0
7.805046900E0,1.095600009E0,9.429999441E-2,-9.352999926E-1,1.443612810E0
7.815046900E0,9.864999652E-1,3.659999743E-2,-1.179000020E0,1.537713494E0
7.825056275E0,6.848999858E-1,2.889999934E-2,-1.356899977E0,1.520230492E0
7.835046900E0,4.560000002E-1,1.498999894E-1,-1.348599911E0,1.431477463E0
7.845046900E0,3.115999997E-1,3.215000033E-1,-1.121999979E0,1.208031773E0
7.855046900E0,3.489999771E-1,6.413999796E-1,-3.993999958E-1,8.322951847E-1
7.865046900E0,7.026999593E-1,1.236199975E0,8.849999905E-1,1.674873904E0
7.875054713E0,9.927999973E-1,1.936899900E0,1.909500003E0,2.895414188E0
7.885046900E0,1.143399954E0,2.732399940E0,2.566799879E0,3.919417624E0
7.895046900E0,9.432999492E-1,3.170899868E0,3.177899837E0,4.587316007E0
7.905046900E0,8.845999837E-1,2.890100002E0,3.928799868E0,4.956880426E0
7.915046900E0,2.954999804E-1,1.880999923E0,4.598199844E0,4.976838631E0
7.925046900E0,-1.741999984E-1,4.579999745E-1,5.262499809E0,5.285263840E0
7.935046900E0,-7.620999813E-1,-1.034399986E0,6.290400028E0,6.420273532E0
7.945046900E0,-7.933999896E-1,-2.114399910E0,6.941999912E0,7.300105020E0
7.955053150E0,-1.837999970E-1,-2.565299988E0,7.125799656E0,7.575722223E0
7.965046900E0,3.765999973E-1,-2.417000055E0,6.815099716E0,7.240808033E0
7.975046900E0,7.148000002E-1,-1.807699919E0,6.006299973E0,6.313030762E0
7.985046900E0,1.259599924E0,-9.240999818E-1,4.710099697E0,4.962417949E0
7.995046900E0,1.811199903E0,4.699999839E-2,3.670899868E0,4.093673159E0
8.005046900E0,2.049799919E0,5.460999608E-1,2.438400030E0,3.231980752E0
8.015046900E0,2.336599827E0,7.591999769E-1,1.460500002E0,2.858171375E0
8.025046900E0,2.673099995E0,1.068799973E0,8.050000072E-1,2.989284525E0
8.035046900E0,3.164499998E0,1.307799935E0,4.215999842E-1,3.449948906E0
8.045046900E0,2.925099850E0,1.112699986E0,9.479999542E-1,3.270017477E0
8.055046900E0,2.133399963E0,5.812999606E-1,1.240299940E0,2.535280850E0
8.065046900E0,1.025499940E0,-7.989999652E-2,1.387399912E0,1.727111071E0
8.075046900E0,1.942999959E-1,-1.153999925E0,1.009099960E0,1.545234948E0
8.085046900E0,-1.445999891E-1,-2.729099989E0,1.196900010E0,2.983532393E0
8.095046900E0,-3.127999902E-1,-4.738100052E0,1.393999934E0,4.948805083E0
8.105046900E0,-7.513999939E-1,-6.833999634E0,9.380000085E-2,6.875823688E0
8.115046900E0,-1.172599912E0,-8.718400002E0,-1.284500003E0,8.890187253E0
8.125046900E0,-1.789499998E0,-9.598899841E0,-2.197700024E0,1.000855003E1
8.135046900E0,-2.545300007E0,-9.101399422E0,-3.229899883E0,9.987305784E0
8.145046900E0,-1.845499992E0,-7.493399620E0,-5.569900036E0,9.517389059E0
8.155059400E0,-1.530299902E0,-6.177499771E0,-7.334599972E0,9.710802127E0
8.165046900E0,-1.107299924E0,-4.683000088E0,-7.724099636E0,9.100457029E0
8.175046900E0,9.460999966E-1,-2.799599886E0,-7.927699566E0,8.460572388E0
8.185046900E0,2.521999836E0,-1.551699996E0,-7.521899700E0,8.083763427E0
8.195046900E0,4.019499779E0,-4.821999967E-1,-7.420499802E0,8.452970638E0
8.205050025E0,4.679100037E0,8.790999651E-1,-6.928400040E0,8.406516580E0
8.215046900E0,5.232699871E0,2.174200058E0,-5.703399658E0,8.039717750E0
8.225046900E0,6.233399868E0,2.390399933E0,-4.051300049E0,7.809117610E0
8.235046900E0,5.208199978E0,2.665799856E0,-4.191199780E0,7.197082150E0
8.245046900E0,1.976599932E0,3.030599833E0,-3.961199999E0,5.364940640E0
8.255053150E0,1.317899942E0,2.081699848E0,-1.272599936E0,2.773056998E0
8.265046900E0,6.134999990E-1,1.851599932E0,-1.087999940E-1,1.953622787E0
8.275046900E0,-6.398000121E-1,1.322399974E0,6.035000086E-1,1.588174426E0
8.285059400E0,-2.628900051E0,1.091699958E0,1.173300028E0,3.078888961E0
8.295046900E0,-3.286599874E0,1.488199949E0,1.913499951E0,4.083865802E0
8.305046900E0,-3.686899900E0,2.004199982E0,3.206799984E0,5.281440578E0
8.315046900E0,-5.090099812E0,1.429000020E0,4.051700115E0,6.660888152E0
8.325046900E0,-6.753699780E0,7.899000049E-1,3.649999857E0,7.717441395E0
8.335056275E0,-6.789499760E0,8.187999725E-1,2.724799871E0,7.361540241E0
8.345046900E0,-6.438600063E0,1.214299917E0,1.173499942E0,6.656365163E0
8.355046900E0,-6.083999634E0,1.574000001E0,-4.861999750E-1,6.303087970E0
8.365046900E0,-5.828000069E0,1.779699922E0,-1.888899922E0,6.379722528E0
8.375046900E0,-5.446300030E0,1.813199997E0,-2.970499992E0,6.463261440E0
8.385046900E0,-4.625099659E0,1.813300014E0,-3.314299822E0,5.971950025E0
8.395046900E0,-3.591699839E0,1.544099927E0,-3.075699806E0,4.974382536E0
8.405046900E0,-2.907999992E0,1.318400025E0,-2.529500008E0,4.073452206E0
8.415046900E0,-2.169800043E0,1.225000024E0,-1.595999956E0,2.959032468E0
8.425046900E0,-1.044499993E0,1.694899917E0,-4.904999733E-1,2.050428294E0
8.435046900E0,9.454999566E-1,2.883100033E0,1.869999915E-1,3.039935026E0
8.445046900E0,2.397599936E0,2.601300001E0,6.719999760E-2,3.538327710E0
8.455046900E0,3.578099966E0,3.191999912E0,-3.804000020E-1,4.810027751E0
8.465046900E0,6.945399761E0,1.519299984E0,5.828999877E-1,7.133486012E0
8.475046900E0,8.061999321E0,3.545999825E-1,1.538199902E0,8.215085705E0
8.485046900E0,9.953599930E0,-5.802999735E-1,6.663999557E-1,9.992746796E0
8.495046900E0,9.713199615E0,-2.306799889E0,2.284999847E0,1.024152317E1
8.505056275E0,8.879699707E0,-4.346099854E0,3.544199944E0,1.050233327E1
8.515046900E0,7.226500034E0,-5.848099709E0,3.891899824E0,1.007816735E1
8.525046900E0,5.361499786E0,-5.409899712E0,3.120800018E0,8.231165628E0
8.535046900E0,4.941299915E0,-3.292500019E0,1.064399958E0,6.032408184E0
8.545046900E0,3.611899853E0,-2.897199869E0,-1.407599926E0,4.839517040E0
8.555054713E0,1.407400012E0,-2.838099957E0,-3.901499987E0,5.025662971E0
8.565046900E0,7.439000010E-1,-1.738499999E0,-5.232299805E0,5.563517835E0
8.575046900E0,2.520099878E0,-2.043000013E-1,-3.553099871E0,4.360866953E0
8.585046900E0,4.652100086E0,1.098199964E0,9.820000082E-2,4.780974965E0
8.595046900E0,3.888399839E0,1.167299986E0,1.814499974E0,4.446869992E0
8.605056275E0,2.327499866E0,4.831999838E-1,3.165899992E0,3.958997425E0
8.615046900E0,1.897699952E0,4.544000030E-1,4.269299984E0,4.694109801E0
8.625046900E0,7.130999565E-1,-1.701999903E-1,3.935099840E0,4.002810305E0
8.635046900E0,-1.960000023E-2,-1.647699952E0,3.235399961E0,3.630855575E0
8.645046900E0,-6.344999671E-1,-3.349799871E0,2.508499861E0,4.232767527E0
8.655046900E0,-2.026599884E0,-4.600100040E0,1.031299949E0,5.131433236E0
8.665046900E0,-3.342599869E0,-5.708699703E0,-1.038699985E0,6.696351532E0
8.675046900E0,-4.613299847E0,-5.379499912E0,-2.898999929E0,7.656745743E0
8.685046900E0,-4.783499718E0,-4.024899960E0,-3.854599953E0,7.344360423E0
8.695046900E0,-4.751199722E0,-2.017799854E0,-5.035299778E0,7.211078900E0
8.705046900E0,-5.344500065E0,-7.195999622E-1,-5.498899937E0,7.701909215E0
8.715046900E0,-5.821899891E0,-2.459999919E-1,-4.178899765E0,7.170651127E0
8.725046900E0,-6.170300007E0,-5.119000077E-1,-2.595799923E0,6.713629498E0
8.735046900E0,-6.033699989E0,-1.249799967E0,-1.249499917E0,6.287192184E0
8.745046900E0,-5.482299805E0,-1.874499917E0,2.699999809E-1,5.800194917E0
8.755046900E0,-4.462399960E0,-2.351099968E0,1.616599917E0,5.296610213E0
8.765046900E0,-4.171799660E0,-2.371099949E0,1.666299939E0,5.079624283E0
8.775046900E0,-3.796000004E0,-1.916999936E0,1.132200003E0,4.400725125E0
8.785046900E0,-3.062199831E0,-1.458799958E0,6.159999967E-1,3.447407884E0
8.795046900E0,-4.065999985E0,-1.300400019E0,2.597000003E-1,4.276779182E0
8.805046900E0,-3.061699867E0,-6.719999909E-1,4.010000080E-2,3.134836212E0
8.815046900E0,-2.127300024E0,3.109999895E-1,-5.011000037E-1,2.207538810E0
8.825046900E0,-1.819199920E0,1.157799959E0,-9.572999477E-1,2.359324540E0
8.835046900E0,-1.412099957E0,1.800300002E0,-1.067600012E0,2.524851713E0
8.845046900E0,-7.579999566E-1,2.179999828E0,-9.678999782E-1,2.502757190E0
8.855046900E0,-6.261000037E-1,2.353600025E0,-7.037999630E-1,2.535107233E0
8.865046900E0,-2.520000003E-2,2.633999825E0,-4.800999761E-1,2.677514912E0
8.875046900E0,2.239999920E-2,2.647500038E0,4.133999944E-1,2.679674937E0
8.885046900E0,5.773999691E-1,2.570699930E0,2.336799860E0,3.521721517E0
8.895046900E0,1.344599962E0,2.578299999E0,3.116899967E0,4.262703995E0
8.905046900E0,1.466699958E0,2.482899904E0,3.608899832E0,4.619540962E0
8.915046900E0,1.463400006E0,2.245399952E0,2.197799921E0,3.466076314E0
8.925046900E0,1.797999978E0,2.034299850E0,3.572999835E-1,2.738401556E0
8.935046900E0,1.711599946E0,1.734200001E0,-4.555999935E-1,2.478829436E0
8.945046900E0,1.360000014E0,1.484899998E0,-4.980999827E-1,2.074278582E0
8.955046900E0,1.248899937E0,1.140399933E0,-1.201999933E-1,1.695497301E0
8.965046900E0,1.325699925E0,7.597999573E-1,-1.509999949E-2,1.528072079E0
8.975046900E0,1.446299911E0,4.300999939E-1,-2.524999976E-1,1.529877670E0
8.985046900E0,1.769799948E0,1.604999900E-1,-7.017999887E-1,1.910621712E0
8.995046900E0,2.071399927E0,-6.870000064E-2,-1.208599925E0,2.399193849E0
9.005046900E0,2.233399868E0,-6.129999831E-2,-1.722299933E0,2.821019270E0
9.015046900E0,2.285699844E0,1.340000033E-1,-1.659099936E0,2.827541755E0
9.025057838E0,2.197099924E0,3.308999836E-1,-9.576999545E-1,2.419490045E0
9.035046900E0,1.729299903E0,4.109999835E-1,-3.258000016E-1,1.807081841E0
9.045046900E0,1.253299952E0,6.283999681E-1,2.933000028E-1,1.432365938E0
9.055046900E0,9.959999919E-1,1.022499919E0,1.017499924E0,1.752948420E0
9.065046900E0,7.493999600E-1,1.386600018E0,1.667899966E0,2.294809405E0
9.075054713E0,9.219999909E-1,1.994599938E0,2.171399832E0,3.089253976E0
9.085046900E0,1.066499949E0,2.374899864E0,2.574100018E0,3.661087599E0
9.095046900E0,7.457000017E-1,2.036700010E0,3.455499887E0,4.079791036E0
9.105046900E0,5.898999572E-1,1.519799948E0,4.458600044E0,4.747303255E0
9.115046900E0,4.453999996E-1,7.361999750E-1,5.215499878E0,5.286001375E0
9.125046900E0,1.080999970E-1,-3.331999779E-1,6.126899719E0,6.136905409E0
9.135046900E0,-2.893999815E-1,-1.167999983E0,7.261099815E0,7.360132257E0
9.145050025E0,-9.259999543E-2,-1.874899983E0,7.501099586E0,7.732420042E0
9.155046900E0,5.590000004E-2,-2.276799917E0,6.445499897E0,6.836037712E0
9.165046900E0,6.074999571E-1,-2.373800039E0,4.157299995E0,4.825673640E0
9.175046900E0,1.223599911E0,-2.293799877E0,3.118499994E0,4.060019314E0
9.185046900E0,1.304000020E0,-1.949699998E0,3.048699856E0,3.846598100E0
9.195046900E0,1.015499949E0,-1.293599963E0,2.623899937E0,3.096690474E0
9.205045338E0,9.752999544E-1,-5.523999929E-1,1.962799907E0,2.260296270E0
9.215046900E0,1.091899991E0,2.685999870E-1,1.308499932E0,1.725272041E0
9.225046900E0,1.157699943E0,1.057399988E0,1.209900022E0,1.980460036E0
9.235046900E0,1.347000003E0,1.717999935E0,1.430599928E0,2.610086002E0
9.245046900E0,1.424499989E0,2.289099932E0,9.309999943E-1,2.852356868E0
9.255046900E0,7.831000090E-1,2.603799820E0,7.458999753E-1,2.819465534E0
9.265046900E0,4.404999912E-1,2.319499969E0,8.428999782E-1,2.506910594E0
9.275046900E0,9.009999782E-2,1.220899940E0,1.157899976E0,1.685065882E0
9.285046900E0,2.489999980E-1,-5.740999579E-1,1.587799907E0,1.706663501E0
9.295046900E0,7.024999857E-1,-2.351500034E0,1.488499999E0,2.870311985E0
9.305050025E0,1.077499986E0,-4.184099674E0,8.723999858E-1,4.407808757E0
9.315046900E0,2.129999995E-1,-6.567999840E0,1.578999907E-1,6.573349474E0
9.325046900E0,-4.601999819E-1,-8.269999504E0,-7.226999998E-1,8.314263113E0
9.335046900E0,-1.196499944E0,-9.016399384E0,-2.510099888E0,9.435447600E0
9.345046900E0,-1.288100004E0,-8.773300171E0,-4.488399982E0,9.938598086E0
9.355046900E0,-6.785999537E-1,-7.442599773E0,-6.041899681E0,9.610272683E0
9.365046900E0,7.009999454E-2,-5.855299950E0,-6.787499905E0,8.964351982E0
9.375046900E0,7.038999796E-1,-4.447700024E0,-6.577699661E0,7.971426693E0
9.385046900E0,2.757499933E0,-2.684399843E0,-6.521899700E0,7.572647100E0
9.395046900E0,4.388199806E0,-9.554999471E-1,-5.495999813E0,7.097555328E0
9.405046900E0,7.372599602E0,1.135800004E0,-5.066699982E0,9.017578125E0
9.415046900E0,7.492099762E0,1.378199935E0,-5.495800018E0,9.393338690E0
9.425046900E0,2.760999918E0,1.685799956E0,-5.944299698E0,6.767550586E0
9.435046900E0,3.588299990E0,2.250599861E0,-5.967099667E0,7.317607190E0
9.445046900E0,3.528599977E0,2.114699841E0,-5.367300034E0,6.762461302E0
9.455046900E0,5.976999998E-1,1.129999995E0,-4.197700024E0,4.388032676E0
9.465046900E0,-9.147999883E-1,1.061599970E0,-2.774799824E0,3.108595756E0
9.475059400E0,-1.836299896E0,1.183399916E0,-1.073300004E0,2.434010182E0
9.485048463E0,-3.029999971E0,1.581599951E0,2.155599833E0,4.040911886E0
9.495046900E0,-3.329200029E0,2.065999985E0,5.038399696E0,6.382585704E0
9.505046900E0,-3.925799847E0,2.082900047E0,6.092400074E0,7.541068605E0
9.515046900E0,-5.524899960E0,1.334499955E0,5.497699738E0,7.907598377E0
9.525046900E0,-5.864599705E0,1.139999986E0,5.157799721E0,7.892783262E0
9.535046900E0,-7.032699585E0,7.865999937E-1,2.218400002E0,7.416124431E0
9.545046900E0,-6.939799786E0,1.095099926E0,2.630000003E-2,7.025721073E0
9.555046900E0,-6.531499863E0,1.266799927E0,-1.132399917E0,6.748896360E0
9.565046900E0,-6.133399963E0,1.348999977E0,-1.820499897E0,6.538548457E0
9.575046900E0,-5.696899891E0,1.388399959E0,-2.338700056E0,6.312831438E0
9.585046900E0,-4.946300030E0,1.570099950E0,-2.661499977E0,5.832210556E0
9.595046900E0,-4.088200092E0,1.775499940E0,-2.907899857E0,5.321809994E0
9.605046900E0,-2.882599831E0,2.249099970E0,-2.376999855E0,4.360958698E0
9.615046900E0,-1.531599998E0,2.295199871E0,-1.660200000E0,3.220249221E0
9.625046900E0,-3.208000064E-1,2.234899998E0,-1.559799910E0,2.744205969E0
9.635046900E0,1.156599998E0,3.255800009E0,-8.927999735E-1,3.568620048E0
9.645046900E0,2.238299847E0,3.994999886E0,1.031299949E0,4.693995087E0
9.655046900E0,5.361799717E0,3.213799953E0,-5.207999945E-1,6.272849351E0
9.665046900E0,8.899000168E0,1.098399997E0,-1.111099958E0,9.035110938E0
9.675046900E0,9.964799881E0,-2.540999949E-1,1.874499917E0,1.014275867E1
9.685046900E0,9.500499725E0,-2.166300058E0,3.570599794E0,1.037793495E1
9.695046900E0,8.043000221E0,-4.679899693E0,4.715899944E0,1.043221098E1
9.705046900E0,6.273900032E0,-6.102299690E0,5.107299805E0,1.013333086E1
9.715046900E0,4.406699657E0,-5.563699722E0,4.177400112E0,8.235558765E0
9.725046900E0,3.519599915E0,-3.516899824E0,1.774199963E0,5.282419279E0
9.735046900E0,2.585799932E0,-3.188699961E0,-7.421000004E-1,4.171915764E0
9.745046900E0,1.628399968E0,-3.323499918E0,-3.023000002E0,4.778688855E0
9.755046900E0,1.051100016E0,-2.766499996E0,-4.919899940E0,5.741406526E0
9.765046900E0,1.829499960E0,-1.771199942E0,-4.466199875E0,5.141124455E0
9.775046900E0,3.735099792E0,-5.354999900E-1,-1.488600016E0,4.056311219E0
9.785046900E0,3.675299883E0,4.019999877E-2,5.746999979E-1,3.720178135E0
9.795046900E0,2.260900021E0,9.119999409E-2,2.134399891E0,3.110570564E0
9.805046900E0,1.825199962E0,-1.340999901E-1,3.291699886E0,3.766248246E0
9.815046900E0,1.372599959E0,-9.065999985E-1,3.319399834E0,3.704641610E0
9.825046900E0,1.038399935E0,-1.924899936E0,2.829999924E0,3.576648397E0
9.835046900E0,3.773999810E-1,-3.052099943E0,2.084699869E0,3.715335564E0
9.845046900E0,-1.594200015E0,-3.866899967E0,8.531999588E-1,4.268763195E0
9.855046900E0,-3.980799913E0,-4.518899918E0,-1.222000003E0,6.144957968E0
9.865046900E0,-4.206200123E0,-4.024699688E0,-3.269899845E0,6.677018200E0
9.875046900E0,-3.991599798E0,-2.777999878E0,-3.886199951E0,6.225166852E0
9.885050025E0,-4.695899963E0,-1.311399937E0,-4.860300064E0,6.884312818E0
9.895046900E0,-4.863999844E0,-3.224999905E-1,-4.634299755E0,6.726011816E0
9.905046900E0,-4.840799809E0,-1.429999992E-2,-3.566900015E0,6.013012805E0
9.915046900E0,-5.229199886E0,-4.607999921E-1,-1.939899921E0,5.596434560E0
9.925046900E0,-4.924099922E0,-1.106699944E0,-1.395999938E-1,5.048864523E0
9.935053150E0,-4.895499706E0,-1.915399909E0,1.586300015E0,5.490994621E0
9.945046900E0,-4.562799931E0,-2.183799982E0,2.346999884E0,5.576426636E0
9.955046900E0,-4.163199902E0,-1.924399972E0,2.246399879E0,5.107040346E0
9.965046900E0,-3.575799942E0,-1.403699994E0,1.351599932E0,4.072289439E0
9.975046900E0,-3.985399961E0,-1.014699936E0,6.881999969E-1,4.169729973E0
9.985046900E0,-4.494899750E0,-3.161999881E-1,-9.070000052E-2,4.506920532E0
9.995046900E0,-3.928499937E0,4.300999939E-1,-5.378000140E-1,3.988399004E0
1.000504690E1,-2.661999941E0,1.070199966E0,-6.546999812E-1,2.942822407E0
1.001505471E1,-2.172800064E0,1.328699946E0,-4.179999828E-1,2.580935422E0
1.002504690E1,-1.587999940E0,1.695699930E0,-1.911000013E-1,2.331021508E0
1.003504690E1,-7.017999887E-1,2.003900051E0,-2.320999950E-1,2.135886010E0
1.004504690E1,-2.838000059E-1,2.281499863E0,-8.185999990E-1,2.440469222E0
1.005504690E1,-4.948000014E-1,2.047399998E0,-6.739999652E-1,2.211549173E0
1.006504690E1,3.469999880E-2,1.792899966E0,-1.538999975E-1,1.799827655E0
1.007504690E1,3.379999846E-2,1.713499904E0,9.272999763E-1,1.948617357E0
1.008504690E1,1.151299953E0,1.661399961E0,2.326299906E0,3.081787251E0
1.009504690E1,2.072000027E0,1.831299901E0,2.245800018E0,3.562367353E0
1.010504690E1,1.727699995E0,1.643499970E0,2.025199890E0,3.128493890E0
1.011504690E1,1.526999950E0,1.462599993E0,8.560999632E-1,2.281191516E0
1.012504690E1,1.729799986E0,1.075899959E0,-4.403999746E-1,2.084159507E0
1.013504690E1,1.941599965E0,6.225999594E-1,-7.876999974E-1,2.185843640E0
1.014504690E1,1.727299929E0,2.505999804E-1,-5.403000116E-1,1.827098655E0
1.015504690E1,1.157799959E0,8.899999782E-3,-2.483000010E-1,1.184159130E0
1.016504690E1,8.592000008E-1,5.799999926E-3,-9.709999710E-2,8.646887826E-1
1.017504690E1,8.276000023E-1,1.621999890E-1,-5.579000115E-1,1.011179026E0
1.018504690E1,1.229900002E0,3.695999980E-1,-1.213699937E0,1.767010388E0
1.019504690E1,1.364699960E0,3.725000024E-1,-1.481400013E0,2.048342801E0
1.020504690E1,1.300599933E0,2.865000069E-1,-9.044999480E-1,1.609895212E0
1.021504690E1,1.062299967E0,2.430999875E-1,-7.989999652E-2,1.092686063E0
1.022504690E1,7.429999709E-1,3.752000034E-1,5.688999891E-1,1.008201962E0
1.023504690E1,5.536999702E-1,7.421999574E-1,1.013399959E0,1.372743206E0
1.024505471E1,4.333999753E-1,1.206699967E0,1.803699970E0,2.212983039E0
1.025504690E1,5.167999864E-1,1.571699977E0,2.515499830E0,3.010824213E0
1.026504690E1,9.581999779E-1,2.160399914E0,2.643100023E0,3.545624447E0
1.027504690E1,1.172299981E0,2.697399855E0,2.763999939E0,4.036080882E0
1.028504690E1,1.163800001E0,2.898200035E0,2.962100029E0,4.304419876E0
1.029506096E1,9.333999753E-1,2.576599836E0,3.290199995E0,4.281999327E0
1.030504690E1,2.110999972E-1,1.478299975E0,4.053299904E0,4.319626620E0
1.031504690E1,-3.470000029E-1,4.867999852E-1,5.077099800E0,5.112174254E0
1.032505471E1,-3.701999784E-1,-7.301999927E-1,5.661200047E0,5.720089686E0
1.033504690E1,1.748999953E-1,-1.564000010E0,5.217999935E0,5.450156820E0
1.034504690E1,1.801999956E-1,-2.132099867E0,5.493000031E0,5.895029365E0
1.035504690E1,4.400999844E-1,-2.581399918E0,4.813600063E0,5.479786410E0
1.036504690E1,9.064999819E-1,-2.970799923E0,3.883199930E0,4.972588471E0
1.037504690E1,1.207799911E0,-2.595299959E0,3.634999990E0,4.626833413E0
1.038504690E1,1.059299946E0,-1.711199999E0,3.242300034E0,3.816127791E0
1.039504690E1,9.343000054E-1,-8.977999687E-1,2.560699940E0,2.869868545E0
1.040504690E1,1.187099934E0,-3.700000048E-2,2.016499996E0,2.340266542E0
1.041504690E1,1.477699995E0,7.536000013E-1,1.538100004E0,2.262136570E0
1.042504690E1,1.888000011E0,1.484399915E0,1.519999981E0,2.842250357E0
1.043504690E1,2.143100023E0,1.929099917E0,7.175999880E-1,2.971406055E0
1.044504690E1,1.859699965E0,2.058199883E0,9.856999516E-1,2.943853785E0
1.045504690E1,1.473799944E0,1.891399980E0,1.063899994E0,2.623235284E0
1.046504690E1,9.131999612E-1,1.125199914E0,1.564099908E0,2.132232993E0
1.047504690E1,5.777999759E-1,-2.890999913E-1,1.722199917E0,1.839403210E0
1.048505315E1,3.569999933E-1,-2.077199936E0,1.785899997E0,2.762543641E0
1.049504690E1,4.472999871E-1,-3.848699808E0,1.631399989E0,4.204049645E0
1.050504690E1,-2.229999937E-2,-5.725599766E0,8.991000056E-1,5.795806310E0
1.051504690E1,-8.813999891E-1,-7.300199986E0,-3.123999834E-1,7.359849151E0
1.052505002E1,-1.189499974E0,-7.966300011E0,-2.105599880E0,8.325286596E0
1.053504690E1,-1.321900010E0,-7.897500038E0,-3.783199787E0,8.856101124E0
1.054504690E1,-1.500999928E0,-7.233899593E0,-4.692100048E0,8.752034447E0
1.055504690E1,-1.306399941E0,-6.035199642E0,-5.132400036E0,8.029436198E0
1.056504690E1,-4.684999883E-1,-4.669399738E0,-5.624300003E0,7.324993971E0
1.057504846E1,9.143999815E-1,-3.323499918E0,-5.856800079E0,6.795872733E0
1.058504690E1,2.815199852E0,-1.796599984E0,-6.327600002E0,7.154833576E0
1.059504690E1,4.429199696E0,2.216999978E-1,-5.847399712E0,7.338872135E0
1.060504690E1,4.955899715E0,1.239399910E0,-5.201399803E0,7.290515348E0
1.061504690E1,4.064899921E0,1.883699894E0,-6.124099731E0,7.587907102E0
1.062504690E1,2.139099836E0,2.101500034E0,-7.014499664E0,7.628581522E0
1.063504690E1,2.085999966E0,2.050799847E0,-5.120800018E0,5.897437469E0
1.064504690E1,1.403100014E0,1.874699950E0,-3.896999836E0,4.546404873E0
1.065505784E1,2.876999974E-1,1.936899900E0,-2.563099861E0,3.225497390E0
1.066504690E1,-7.143999934E-1,1.724299908E0,-6.251999736E-1,1.968362906E0
1.067504690E1,-2.028899908E0,1.490499973E0,2.989999950E-1,2.535236873E0
1.068504690E1,-2.278599977E0,1.814999938E0,2.808099985E0,4.046191809E0
1.069504690E1,-2.805899858E0,1.792999983E0,3.958899975E0,5.173085343E0
1.070504690E1,-3.666299820E0,1.554799914E0,4.398299694E0,5.933312510E0
1.071504690E1,-4.995899677E0,1.516699910E0,4.147500038E0,6.667919373E0
1.072504690E1,-5.023299694E0,9.810999632E-1,3.550699949E0,6.229250925E0
1.073504690E1,-5.793200016E0,6.833999753E-1,2.342799902E0,6.286247953E0
1.074504690E1,-5.508599758E0,8.619999886E-1,1.169199944E0,5.696906510E0
1.075504690E1,-5.484399796E0,1.093899965E0,-4.162999988E-1,5.607901920E0
1.076504690E1,-5.539000034E0,1.269999981E0,-1.765100002E0,5.950546139E0
1.077504690E1,-5.033400059E0,1.549199939E0,-2.666199923E0,5.902860207E0
1.078504690E1,-4.489500046E0,1.666599989E0,-3.253399849E0,5.789453926E0
1.079504690E1,-3.362099886E0,1.769499898E0,-3.177899837E0,4.953169986E0
1.080504690E1,-2.873899937E0,1.592599988E0,-2.847199917E0,4.347668678E0
1.081504690E1,-1.976699948E0,2.057999849E0,-1.502699971E0,3.225029189E0
1.082504690E1,-1.959999949E-1,2.911000013E0,6.277999878E-1,2.984370939E0
1.083504690E1,5.568999648E-1,2.645699978E0,1.004699945E0,2.884317584E0
1.084504690E1,1.472399950E0,2.339599848E0,2.267999947E-1,2.773648734E0
1.085504690E1,3.843599796E0,2.674099922E0,-1.052199960E0,4.799082677E0
1.086504690E1,7.368599892E0,1.305599928E0,-1.734099984E0,7.681663771E0
1.087504690E1,8.997599602E0,-8.020000160E-2,2.151499987E0,9.251604338E0
1.088504690E1,8.328499794E0,-2.250699997E0,3.680699825E0,9.379611426E0
1.089504690E1,7.353299618E0,-4.505499840E0,4.231699944E0,9.606134940E0
1.090504690E1,6.182799816E0,-6.037399769E0,4.748399734E0,9.860248961E0
1.091504690E1,4.977299690E0,-5.627799988E0,3.871599913E0,8.451918764E0
1.092504690E1,4.308899879E0,-3.645200014E0,1.981499910E0,5.981675619E0
1.093504690E1,3.786099911E0,-2.746399879E0,-4.178999960E-1,4.695945617E0
1.094504690E1,2.202600002E0,-2.814499855E0,-2.900899887E0,4.603050767E0
1.095504690E1,1.191499949E0,-2.555399895E0,-5.090099812E0,5.818836382E0
1.096504690E1,2.221499920E0,-1.378799915E0,-5.363499641E0,5.966848373E0
1.097504690E1,4.475199699E0,1.759999990E-2,-2.351500034E0,5.055420311E0
1.098504690E1,5.418299675E0,4.453999996E-1,8.504999876E-1,5.502699588E0
1.099504690E1,3.704999924E0,-1.784999967E-1,2.454699993E0,4.447970182E0
1.100504690E1,2.048199892E0,1.950000040E-2,3.649199963E0,4.184753686E0
1.101504690E1,1.139099956E0,-6.897999644E-1,3.791099787E0,4.018184950E0
1.102504690E1,7.589999586E-2,-1.212499976E0,3.198099852E0,3.421075805E0
1.103504690E1,-1.034600019E0,-2.058199883E0,2.695699930E0,3.545896511E0
1.104504690E1,-2.194499969E0,-3.158399820E0,2.156599998E0,4.409335902E0
1.105504690E1,-3.807999849E0,-3.878399849E0,4.973999858E-1,5.458044978E0
1.106504690E1,-4.857399940E0,-3.450999975E0,-1.587199926E0,6.166274290E0
1.107504690E1,-4.803199768E0,-2.223599911E0,-3.100499868E0,6.134184869E0
1.108504690E1,-4.335499763E0,-6.107999682E-1,-4.072799683E0,5.979743477E0
1.109504690E1,-4.421599865E0,6.746000051E-1,-4.672100067E0,6.467932403E0
1.110504690E1,-5.019899845E0,9.791999459E-1,-3.726300001E0,6.327996420E0
1.111504690E1,-5.384099960E0,2.935000062E-1,-1.932899952E0,5.728069209E0
1.112504690E1,-4.993899822E0,-6.897000074E-1,-4.484999776E-1,5.061212677E0
1.113504690E1,-4.222099781E0,-1.866199970E0,9.153999686E-1,4.706037186E0
1.114504690E1,-3.201099873E0,-2.758999825E0,1.607199907E0,4.521306445E0
1.115504690E1,-2.529599905E0,-3.175400019E0,2.059799910E0,4.552451716E0
1.116504690E1,-2.893699884E0,-3.088899851E0,1.011199951E0,4.351703879E0
1.117504690E1,-3.026999950E0,-2.586400032E0,6.699999794E-3,3.981486998E0
1.118504690E1,-3.173099995E0,-2.085099936E0,-8.343999982E-1,3.887470730E0
1.119504690E1,-2.825199842E0,-1.297199965E0,-1.225700021E0,3.341679583E0
1.120504690E1,-1.774999976E0,-3.732999861E-1,-1.252699971E0,2.204367259E0
1.121504690E1,-1.827999949E0,4.287000000E-1,-1.628499985E0,2.485433505E0
1.122504690E1,-9.942999482E-1,1.083400011E0,-1.325599909E0,1.979798750E0
1.123504690E1,-2.430999875E-1,1.290099978E0,-6.933999658E-1,1.484674736E0
1.124504690E1,9.186999798E-1,1.829100013E0,-7.475000024E-1,2.179076126E0
1.125504690E1,7.791999578E-1,2.080999851E0,-5.428999662E-1,2.287455645E0
1.126504690E1,5.550999641E-1,2.144799948E0,-8.102999926E-1,2.359001667E0
1.127504690E1,5.575999618E-1,2.198499918E0,-7.926999927E-1,2.402642896E0
1.128504690E1,6.117999554E-1,2.487900019E0,1.111999974E-1,2.564431931E0
1.129504690E1,1.461099982E0,2.707999945E0,1.572899938E0,3.455733073E0
1.130504690E1,1.370599985E0,2.817199945E0,2.591899872E0,4.066092079E0
1.131504690E1,1.061399937E0,2.902099848E0,3.411799908E0,4.603165429E0
1.132504690E1,2.037999928E-1,2.345199823E0,3.067899942E0,3.866976429E0
1.133504690E1,-2.615999877E-1,1.608799934E0,6.193999648E-1,1.743653664E0
1.134504690E1,-4.791999757E-1,9.407999516E-1,-4.502999783E-1,1.147827180E0
1.135504690E1,-3.887999952E-1,4.810999930E-1,-7.588999867E-1,9.790566017E-1
1.136504690E1,-1.096000001E-1,2.105999887E-1,-1.095600009E0,1.121028053E0
1.137504690E1,4.073999822E-1,3.079999983E-2,-1.020699978E0,1.099432504E0
1.138504690E1,6.219999790E-1,-7.859999686E-2,-8.242999911E-1,1.035631406E0
1.139504690E1,9.784999490E-1,-2.163999975E-1,-1.247699976E0,1.600326948E0
1.140504690E1,1.105599999E0,-2.061999887E-1,-1.292599916E0,1.713383885E0
1.141504690E1,1.081200004E0,7.959999889E-2,-6.327999830E-1,1.255294956E0
1.142504690E1,1.050699949E0,3.267000020E-1,2.510000020E-2,1.100605872E0
1.143504690E1,1.110100031E0,6.620000005E-1,2.289000005E-1,1.312616200E0
1.144504690E1,1.040699959E0,9.185000062E-1,1.000100017E0,1.710818140E0
1.145504690E1,1.274500012E0,1.291899920E0,1.434199929E0,2.313068335E0
1.146504690E1,1.562699914E0,1.673900008E0,1.950099945E0,3.007800202E0
1.147504690E1,1.755800009E0,2.054299831E0,2.633999825E0,3.773716543E0
1.148504690E1,2.215999842E0,2.413300037E0,3.178599834E0,4.564884366E0
1.149504846E1,2.648000002E0,2.466500044E0,3.856599808E0,5.288562050E0
1.150504690E1,2.251199961E0,1.605599999E0,4.796700001E0,5.536622031E0
1.151505159E1,1.735700011E0,5.076000094E-1,6.090600014E0,6.353402303E0
1.152504690E1,1.432899952E0,-5.615999699E-1,6.195399761E0,6.383696030E0
1.153504690E1,9.327999949E-1,-1.376399994E0,6.354099751E0,6.568042053E0
1.154504690E1,2.080000006E-2,-2.338199854E0,5.834799767E0,6.285896874E0
1.155504690E1,1.385999918E-1,-3.269899845E0,3.886199951E0,5.080748470E0
1.156504690E1,5.446999669E-1,-3.759399891E0,2.358199835E0,4.471117540E0
1.157505003E1,9.771999717E-1,-3.307099819E0,2.326499939E0,4.159859489E0
1.158504690E1,1.563899994E0,-2.374500036E0,2.363499880E0,3.697318663E0
1.159504690E1,1.921700001E0,-1.550799966E0,2.184299946E0,3.296828428E0
1.160504690E1,1.791499972E0,-9.144999981E-1,1.721300006E0,2.647386656E0
1.161504690E1,1.610299945E0,-2.410000004E-2,1.306900024E0,2.074038186E0
1.162504690E1,1.796000004E0,9.539999962E-1,1.426299930E0,2.483961251E0
1.163504690E1,2.161299944E0,1.813699961E0,1.940299988E0,3.424250142E0
1.164504690E1,1.836499929E0,2.485299826E0,1.602299929E0,3.480921182E0
1.165504690E1,1.057899952E0,2.634899855E0,1.493799925E0,3.208315410E0
1.166504690E1,5.590999722E-1,2.076400042E0,1.634999990E0,2.701343162E0
1.167505159E1,6.743999720E-1,7.024999857E-1,2.359099865E0,2.552189986E0
1.168504690E1,9.748999476E-1,-1.320599914E0,2.582599878E0,3.060103948E0
1.169504690E1,9.881999493E-1,-3.730199814E0,2.072700024E0,4.380298526E0
1.170504690E1,6.003999710E-1,-5.734299660E0,1.012499928E0,5.853872976E0
1.171504690E1,-5.282999873E-1,-7.283399582E0,-1.823000014E-1,7.304809624E0
1.172504690E1,-1.213299990E0,-8.010299683E0,-1.384199977E0,8.219063660E0
1.173504690E1,-8.291999698E-1,-7.616499901E0,-2.677500010E0,8.115888715E0
1.174504690E1,-6.978999972E-1,-6.834099770E0,-3.793799877E0,7.847604830E0
1.175504690E1,-1.294000000E-1,-5.463500023E0,-5.044899940E0,7.437579732E0
1.176504690E1,4.413999915E-1,-4.305799961E0,-5.964399815E0,7.369451296E0
1.177504846E1,9.964999557E-1,-3.143699884E0,-6.928599834E0,7.673418846E0
1.178504690E1,2.139099836E0,-1.515100002E0,-7.539299965E0,7.981999755E0
1.179504690E1,3.432600021E0,5.019999743E-1,-6.864399910E0,7.691211413E0
1.180504690E1,3.353099823E0,2.124199867E0,-5.225399971E0,6.562035382E0
1.181504690E1,3.421799898E0,2.318899870E0,-6.017099857E0,7.300102865E0
1.182504690E1,2.390899897E0,2.568899870E0,-6.682299614E0,7.547766358E0
1.183504690E1,8.560999632E-1,1.581799984E0,-6.740699768E0,6.976534362E0
1.184505159E1,4.027999938E-1,1.673900008E0,-5.325900078E0,5.597267254E0
1.185504690E1,6.884999871E-1,1.509799957E0,-2.400199890E0,2.917959502E0
1.186504690E1,8.251999617E-1,1.895999908E0,1.116099954E0,2.349776529E0
1.187504690E1,1.379999995E0,2.451499939E0,4.728699684E0,5.502258867E0
1.188504690E1,1.587999910E-1,2.620100021E0,8.148599625E0,8.560947226E0
1.189504690E1,-3.062599897E0,1.575099945E0,8.633799553E0,9.295318859E0
1.190504690E1,-5.182899952E0,1.128399968E0,6.108999729E0,8.090464516E0
1.191504690E1,-4.616899967E0,9.957999587E-1,2.978999853E0,5.584068677E0
1.192504690E1,-5.109499931E0,6.798999906E-1,1.378999949E-1,5.156381479E0
1.193504690E1,-5.558199883E0,5.837000012E-1,-2.042199850E0,5.950199312E0
1.194504690E1,-5.881099701E0,6.013000011E-1,-3.411199808E0,6.825333656E0
1.195504690E1,-5.824100018E0,1.029699922E0,-4.078999996E0,7.184612997E0
1.196504690E1,-5.394099712E0,1.566299915E0,-4.436899662E0,7.157910711E0
1.197504690E1,-4.589499950E0,1.927599907E0,-3.739199877E0,6.225814558E0
1.198504690E1,-3.486399889E0,2.200500011E0,-2.893999815E0,5.037104269E0
1.199504690E1,-2.564800024E0,2.765199900E0,-4.858999848E-1,3.802713300E0
1.200504690E1,-2.214200020E0,3.489899874E0,-2.159999870E-2,4.133104090E0
1.201504690E1,-4.320999980E-1,4.196700096E0,-8.382999897E-1,4.301365943E0
1.202504690E1,1.265499949E0,4.495199680E0,1.369400024E0,4.866576488E0
1.203504690E1,2.048899889E0,3.557499886E0,1.147699952E0,4.262746928E0
1.204504690E1,3.049700022E0,2.373499870E0,4.878999889E-1,3.895153175E0
1.205504690E1,6.305099964E0,2.581300020E0,-2.541199923E0,7.271526140E0
1.206504690E1,6.931499958E0,-4.142999947E-1,2.493099928E0,7.377864420E0
1.207504690E1,9.058499336E0,-3.758599997E0,5.614599705E0,1.130076166E1
1.208504690E1,7.878199577E0,-6.462499619E0,6.243000031E0,1.195010374E1
1.209504690E1,5.779399872E0,-7.312099934E0,6.241999626E0,1.121743409E1
1.210504690E1,4.276199818E0,-6.439199924E0,4.813299656E0,9.105879097E0
1.211504690E1,3.056599855E0,-4.701799870E0,1.260299921E0,5.747876180E0
1.212504690E1,2.173599958E0,-3.359200001E0,-1.998699903E0,4.472534262E0
1.213504690E1,1.914799929E0,-2.012099981E0,-4.442199707E0,5.239097569E0
1.214504690E1,2.926699877E0,-9.099999815E-2,-4.471300125E0,5.344752378E0
1.215504690E1,4.679599762E0,1.363199949E0,-9.824999571E-1,4.972149857E0
1.216504690E1,4.592599869E0,1.208799958E0,2.908999920E0,5.569151769E0
1.217504690E1,2.707000017E0,-4.420000017E-1,3.944199800E0,4.804157071E0
1.218504690E1,1.228999972E0,-1.802699924E0,4.549499989E0,5.045603838E0
1.219504690E1,-4.930000007E-1,-2.209699869E0,4.017899990E0,4.611869777E0
1.220504690E1,-1.840099931E0,-3.252899885E0,2.236700058E0,4.355473863E0
1.221504690E1,-2.661900043E0,-4.328399658E0,2.368999869E-1,5.086931988E0
1.222504690E1,-3.236799955E0,-5.952600002E0,-1.890999913E0,7.034642948E0
1.223504690E1,-3.588099957E0,-5.799699783E0,-2.733399868E0,7.347275258E0
1.224504690E1,-3.104899883E0,-3.753399849E0,-4.374899864E0,6.547378295E0
1.225504690E1,-3.660899878E0,-1.849299908E0,-5.837399960E0,7.134236914E0
1.226504690E1,-4.066599846E0,-5.756999850E-1,-5.463699818E0,6.835252773E0
1.227504690E1,-4.883699894E0,-2.597999871E-1,-3.682199955E0,6.121814861E0
1.228504690E1,-5.582099915E0,-2.513000071E-1,-1.829499960E0,5.879631047E0
1.229504690E1,-5.848199844E0,-8.664000034E-1,-2.328999937E-1,5.916614978E0
1.230504690E1,-5.248699665E0,-1.653699994E0,1.183300018E0,5.628833874E0
1.231504690E1,-4.733299732E0,-2.222300053E0,2.016599894E0,5.604410675E0
1.232504690E1,-4.258899689E0,-2.290999889E0,1.630100012E0,5.103345285E0
1.233504690E1,-3.542799950E0,-2.107300043E0,5.367000103E-1,4.156945015E0
1.234504690E1,-3.834499836E0,-1.642799973E0,-4.857999980E-1,4.199783611E0
1.235504690E1,-3.636600018E0,-1.257900000E0,-5.777999759E-1,3.891146991E0
1.236504690E1,-3.279500008E0,-7.939999700E-1,-8.321999907E-1,3.475357978E0
1.237504690E1,-2.180199862E0,1.228000000E-1,-4.909999967E-1,2.238176104E0
1.238504690E1,-1.473500013E0,5.902999640E-1,-6.556999683E-1,1.717439602E0
1.239504690E1,-7.694999576E-1,9.506999850E-1,-1.005200028E0,1.583157523E0
1.240504690E1,-2.741999924E-1,1.076399922E0,-1.078199983E0,1.548010863E0
1.241504690E1,-5.807999969E-1,1.553799987E0,-1.143899918E0,2.014976441E0
1.242504690E1,-2.137999982E-1,1.942199945E0,-6.761999726E-1,2.067630883E0
1.243504690E1,-6.929999590E-2,2.320199966E0,1.133999974E-1,2.324002998E0
1.244504690E1,-2.347999960E-1,2.697099924E0,9.228999615E-1,2.860283793E0
1.245504690E1,4.486999810E-1,2.827499866E0,1.618199944E0,3.288564767E0
1.246504690E1,7.410999537E-1,2.749799967E0,3.049099922E0,4.172246318E0
1.247504690E1,6.152999997E-1,2.559999943E0,3.304499865E0,4.225152441E0
1.248504690E1,3.458999991E-1,2.405499935E0,2.520900011E0,3.501573020E0
1.249504690E1,-8.419999480E-2,1.963799953E0,1.217100024E0,2.311910977E0
1.250504690E1,-2.307999879E-1,1.296000004E0,3.921999931E-1,1.373573980E0
1.251504690E1,-1.509999931E-1,8.355999589E-1,-2.811000049E-1,8.944526270E-1
1.252504690E1,4.779999703E-2,5.834999681E-1,-8.764999509E-1,1.054044219E0
1.253504690E1,4.635999799E-1,4.023999870E-1,-1.235800028E0,1.379874052E0
1.254504690E1,9.993000031E-1,3.804999888E-1,-1.487900019E0,1.832273780E0
1.255504690E1,1.447899938E0,3.306999803E-1,-1.783699989E0,2.321069227E0
1.256505159E1,1.947600007E0,2.527999878E-1,-1.820499897E0,2.677923355E0
1.257504690E1,1.888599992E0,1.462000012E-1,-1.442699909E0,2.381085340E0
1.258504690E1,1.830899954E0,1.869999915E-1,-8.477999568E-1,2.026309059E0
1.259504690E1,1.706799984E0,3.946999907E-1,-1.799999923E-2,1.751935578E0
1.260504690E1,1.564700007E0,6.509000063E-1,7.102999687E-1,1.837520878E0
1.261505784E1,1.273999929E0,8.765999675E-1,1.315699935E0,2.030411200E0
1.262504690E1,1.196299911E0,1.130299926E0,1.749099970E0,2.401679017E0
1.263504690E1,1.439399958E0,1.598099947E0,2.353600025E0,3.188295588E0
1.264504690E1,1.950099945E0,2.230399847E0,3.000000000E0,4.216345962E0
1.265504690E1,2.159800053E0,2.515899897E0,3.442499876E0,4.779675089E0
1.266505784E1,1.395200014E0,1.944000006E0,4.558399677E0,5.148274150E0
1.267504690E1,1.066900015E0,7.407999635E-1,6.615900040E0,6.742195011E0
1.268504690E1,1.165300012E0,9.510000050E-2,7.719699860E0,7.807735526E0
1.269505940E1,7.525999546E-1,-5.795999765E-1,8.204899788E0,8.259704798E0
1.270504690E1,8.240000159E-2,-1.362900019E0,7.722499847E0,7.842275825E0
1.271504690E1,5.777999759E-1,-1.903800011E0,6.779199600E0,7.065115322E0
1.272504690E1,5.083000064E-1,-2.069999933E0,5.703000069E0,6.088306694E0
1.273504690E1,6.955999732E-1,-1.891099930E0,4.247799873E0,4.701480834E0
1.274505628E1,1.469799995E0,-1.230799913E0,3.625699997E0,4.101326727E0
1.275504690E1,1.590399981E0,-5.228999853E-1,3.048199892E0,3.477688755E0
1.276504690E1,1.073799968E0,1.031999961E-1,2.063199997E0,2.328194759E0
1.277504690E1,8.667999506E-1,8.053999543E-1,1.496299982E0,1.907596623E0
1.278504690E1,6.319999695E-1,1.555099964E0,6.286000013E-1,1.792455807E0
1.279504690E1,-2.989999950E-2,2.068199873E0,5.455999970E-1,2.139164342E0
1.280504690E1,-4.266999960E-1,2.404399872E0,1.017400026E0,2.645432752E0
1.281504690E1,-2.681999803E-1,2.211599827E0,2.065399885E0,3.037923914E0
1.282504690E1,-1.407999992E-1,8.029999733E-1,2.937999964E0,3.049012526E0
1.283504690E1,1.689999998E-1,-1.360000014E0,2.953699827E0,3.256148600E0
1.284504690E1,4.614999890E-1,-3.631699800E0,3.278899908E0,4.914611916E0
1.285505159E1,4.972999990E-1,-5.996999741E0,3.058499813E0,6.750239572E0
1.286504690E1,-2.717999816E-1,-8.443300247E0,1.436399937E0,8.568922865E0
1.287504690E1,-7.619999647E-1,-9.887499809E0,1.934999973E-1,9.918706502E0
1.288504690E1,-1.468999982E0,-1.048979950E1,-2.013900042E0,1.078191300E1
1.289504690E1,-1.868199944E0,-9.787300110E0,-4.987699986E0,1.114264626E1
1.290506096E1,-1.395200014E0,-8.348500252E0,-7.795399666E0,1.150705416E1
1.291504690E1,-4.808999896E-1,-6.678099632E0,-9.907599449E0,1.195779270E1
1.292504690E1,5.992999673E-1,-4.742199898E0,-1.047109985E1,1.151049749E1
1.293504690E1,2.824800014E0,-3.162099838E0,-9.469599724E0,1.037553321E1
1.294504690E1,3.289700031E0,-1.751500010E0,-8.896100044E0,9.645230665E0
1.295505315E1,4.111899853E0,-2.617999911E-1,-6.651099682E0,7.823898428E0
1.296504690E1,6.151099682E0,8.034999967E-1,-5.222199917E0,8.108823066E0
1.297504690E1,5.737799644E0,1.800999999E0,-6.027899742E0,8.514782502E0
1.298504690E1,3.545899868E0,1.940599918E0,-6.194099903E0,7.396364480E0
1.299504690E1,3.216399908E0,2.130199909E0,-5.180900097E0,6.459466374E0
1.300504690E1,2.578299999E0,2.170899868E0,-3.658299923E0,4.974293462E0
1.301504690E1,1.658599973E0,2.575399876E0,-2.902199984E0,4.219763398E0
1.302505784E1,1.257099986E0,2.252300024E0,2.959599972E0,3.925861404E0
1.303504690E1,-5.248000026E-1,2.328999996E0,8.161799431E0,8.503800678E0
1.304504690E1,-1.734799981E0,2.553499937E0,1.077059937E1,1.120427167E1
1.305504690E1,-3.407199860E0,2.928599834E0,1.176459980E1,1.259331237E1
1.306504690E1,-5.630899906E0,1.870899916E0,8.098699570E0,1.003973281E1
1.307504690E1,-6.407000065E0,7.159999609E-1,4.111000061E0,7.646085749E0
1.308504690E1,-6.947799683E0,1.358999908E-1,8.693000078E-1,7.003290065E0
1.309504690E1,-7.150899887E0,1.986999959E-1,-1.374499917E0,7.284511027E0
1.310504690E1,-7.124300003E0,6.696999669E-1,-3.362699986E0,7.906446722E0
1.311504690E1,-6.842099667E0,1.247200012E0,-4.447400093E0,8.255253073E0
1.312504690E1,-6.100399971E0,1.755599976E0,-3.919299841E0,7.460423736E0
1.313504690E1,-5.850100040E0,1.868399978E0,-3.151399851E0,6.902601682E0
1.314504690E1,-5.617199898E0,1.650799990E0,-3.697299957E0,6.924456821E0
1.315504690E1,-4.358500004E0,1.565599918E0,-4.092599869E0,6.180372082E0
1.316504690E1,-3.255299807E0,1.675399899E0,-3.222100019E0,4.877075988E0
1.317504690E1,-2.154099941E0,2.118000031E0,-2.159100056E0,3.713190506E0
1.318504690E1,-7.209999561E-1,2.539700031E0,-1.140299916E0,2.875795731E0
1.319504690E1,1.039399981E0,3.301100016E0,9.704999924E-1,3.594368355E0
1.320504534E1,3.506899834E0,3.030799866E0,1.030300021E0,4.748222025E0
1.321504690E1,8.276800156E0,2.881000042E0,-5.838599682E0,1.053066134E1
1.322504690E1,8.973599434E0,1.136299968E0,-1.101499915E0,9.112078055E0
1.323504690E1,9.322599411E0,-1.148699999E0,5.061800003E0,1.067015420E1
1.324504690E1,8.234000206E0,-3.997299910E0,6.414499760E0,1.117689461E1
1.325504690E1,6.887499809E0,-6.255499840E0,7.056900024E0,1.167770396E1
1.326504690E1,5.601899624E0,-6.821099758E0,7.242399693E0,1.141757569E1
1.327504690E1,4.093199730E0,-5.758899689E0,5.921899796E0,9.218899438E0
1.328504690E1,4.107599735E0,-3.819099903E0,3.158399820E0,6.436877277E0
1.329504690E1,2.309299946E0,-3.828699827E0,1.069999952E-2,4.471232839E0
1.330504690E1,9.708999991E-1,-3.362399817E0,-2.979599953E0,4.596345854E0
1.331504690E1,1.107900023E0,-1.839599967E0,-4.990999699E0,5.433382785E0
1.332504690E1,2.436599970E0,-2.196999937E-1,-3.865599871E0,4.574729485E0
1.333504690E1,4.763299942E0,1.250199914E0,-4.384000003E-1,4.944109700E0
1.334504690E1,3.643499851E0,7.648999691E-1,1.180099964E0,3.905483204E0
1.335504690E1,1.876299977E0,1.641999930E-1,1.755199909E0,2.574527134E0
1.336504690E1,1.100499988E0,-1.634999961E-1,2.769299984E0,2.984435436E0
1.337504690E1,2.958000004E-1,-1.158999950E-1,2.415599823E0,2.436401641E0
1.338504690E1,-1.240999997E-1,-4.215999842E-1,1.380299926E0,1.448576971E0
1.339504690E1,-2.086499929E0,-1.641600013E0,3.319999948E-2,2.655077174E0
1.340504690E1,-3.462299824E0,-3.465499878E0,-9.915999770E-1,4.998047618E0
1.341504690E1,-3.717700005E0,-4.184099674E0,-1.479599953E0,5.789404065E0
1.342504690E1,-3.798899889E0,-3.455399990E0,-2.635299921E0,5.772021754E0
1.343504846E1,-4.494100094E0,-2.368199825E0,-3.977599859E0,6.451868466E0
1.344504690E1,-5.166299820E0,-1.679799914E0,-3.542599916E0,6.485552848E0
1.345504690E1,-5.440299988E0,-1.410300016E0,-1.502499938E0,5.817500851E0
1.346504690E1,-5.399499893E0,-1.408699989E0,-1.171000004E-1,5.581464608E0
1.347504690E1,-5.268300056E0,-1.628600001E0,7.342999578E-1,5.562959633E0
1.348504690E1,-5.054500103E0,-1.747399926E0,1.220600009E0,5.485548484E0
1.349504690E1,-4.462399960E0,-1.981699944E0,1.384999990E0,5.075270736E0
1.350504690E1,-3.329399824E0,-1.960599899E0,1.273000002E0,4.068093430E0
1.351504690E1,-2.246700048E0,-1.511199951E0,5.881999731E-1,2.770805949E0
1.352504690E1,-2.053999901E0,-9.108999968E-1,-5.769000053E-1,2.319799132E0
1.353504690E1,-2.658699989E0,-6.593999863E-1,-1.035699964E0,2.928509585E0
1.354504690E1,-2.516899824E0,-2.714999914E-1,-1.310599923E0,2.850643634E0
1.355504690E1,-1.941499949E0,2.660999894E-1,-1.365599990E0,2.388533983E0
1.356504690E1,-1.027699947E0,5.525999665E-1,-1.137799978E0,1.629761546E0
1.357504690E1,7.379999757E-2,9.592999816E-1,-1.266699910E0,1.590670160E0
1.358504690E1,5.228999853E-1,1.484099984E0,-1.637699962E0,2.271131507E0
1.359504690E1,5.108000040E-1,1.557299972E0,-1.189000010E0,2.024801440E0
1.360504690E1,3.373999894E-1,1.630199909E0,-6.226999760E-1,1.777398593E0
1.361504690E1,2.043000013E-1,2.222100019E0,3.738999963E-1,2.262579986E0
1.362504690E1,8.604999781E-1,2.724599838E0,1.486299992E0,3.220712989E0
1.363504690E1,1.243700027E0,3.155699968E0,2.751199961E0,4.367417231E0
1.364504690E1,5.252999663E-1,3.180699825E0,3.779799938E0,4.967864632E0
1.365504690E1,4.465000033E-1,2.917699814E0,2.818399906E0,4.081141077E0
1.366504690E1,6.164999604E-1,2.524499893E0,1.168699980E0,2.849391436E0
1.367504690E1,4.799000025E-1,1.746699929E0,2.830999792E-1,1.833414916E0
1.368504690E1,5.728999972E-1,1.095600009E0,-2.730000019E-2,1.236648324E0
1.369504690E1,-1.075999960E-1,4.053999782E-1,-5.077999830E-1,6.586256328E-1
1.370504690E1,-4.936999977E-1,5.029999837E-2,-1.297899961E0,1.389537365E0
1.371504690E1,-2.726999819E-1,-8.509999514E-2,-1.370499969E0,1.399956233E0
1.372504690E1,-7.349999994E-2,-1.664000005E-1,-1.099599957E0,1.114545323E0
1.373505315E1,1.206000000E-1,-1.667999923E-1,-1.010499954E0,1.031250093E0
1.374504690E1,2.926000059E-1,-9.649999440E-2,-8.741999865E-1,9.269048650E-1
1.375504690E1,3.644999862E-1,7.329999655E-2,-6.933000088E-1,7.867007255E-1
1.376504690E1,7.193999887E-1,2.644000053E-1,-3.489999771E-1,8.421666643E-1
1.377504690E1,9.828999639E-1,5.254999995E-1,1.330000013E-1,1.122466743E0
1.378505784E1,1.288200021E0,9.046999812E-1,9.493999481E-1,1.838287685E0
1.379504690E1,1.257499933E0,1.273100019E0,1.636500001E0,2.424916904E0
1.380504690E1,1.289099932E0,1.796399951E0,2.347800016E0,3.225057571E0
1.381504690E1,8.883000016E-1,2.336400032E0,2.686800003E0,3.669705201E0
1.382504690E1,1.163100004E0,2.500900030E0,2.552700043E0,3.758135188E0
1.383504690E1,7.766999602E-1,2.152099848E0,3.191499949E0,3.926890437E0
1.384504690E1,8.190000057E-2,1.015499949E0,4.529500008E0,4.642662822E0
1.385504690E1,-6.401000023E-1,-3.879999816E-1,5.732999802E0,5.781657092E0
1.386505002E1,-1.342899919E0,-1.517899990E0,6.411599636E0,6.724285127E0
1.387504690E1,-8.076999784E-1,-1.969499946E0,6.583099842E0,6.918707453E0
1.388504690E1,-6.419999599E-1,-2.242699862E0,7.459300041E0,7.815562918E0
1.389504690E1,2.027999908E-1,-2.308199883E0,7.947799683E0,8.278673464E0
1.390504690E1,1.234799981E0,-1.754400015E0,6.880300045E0,7.207022902E0
1.391504690E1,1.867100000E0,-1.004400015E0,5.845399857E0,6.218004606E0
1.392504690E1,2.169600010E0,-1.671999991E-1,4.773799896E0,5.246359261E0
1.393504690E1,2.322599888E0,1.873999983E-1,3.487999916E0,4.194726739E0
1.394504690E1,2.571799994E0,3.148999810E-1,2.043599844E0,3.299942049E0
1.395504690E1,2.919600010E0,5.683999658E-1,1.411799908E0,3.292464384E0
1.396504690E1,2.659299850E0,7.712000012E-1,1.659199953E0,3.227935814E0
1.397504690E1,2.028100014E0,7.859999537E-1,2.835700035E0,3.573818725E0
1.398504690E1,1.504499912E0,8.385999799E-1,1.965699911E0,2.613569600E0
1.399504690E1,5.753999949E-1,5.661999583E-1,1.122399926E0,1.382551678E0
1.400504690E1,-3.786000013E-1,-1.190999970E-1,9.523999691E-1,1.031788967E0
1.401504690E1,-3.434000015E-1,-1.267799973E0,8.736999631E-1,1.577527166E0
1.402504690E1,-2.163999975E-1,-3.217000008E0,1.605999917E-1,3.228267394E0
1.403504690E1,-2.691999972E-1,-5.441799641E0,-1.002799988E0,5.539969294E0
1.404504690E1,-7.457000017E-1,-7.524699688E0,-2.196799994E0,7.874204982E0
1.405504690E1,-1.377699971E0,-8.721499443E0,-3.559999943E0,9.520305107E0
1.406505003E1,-2.306099892E0,-9.048299789E0,-4.928299904E0,1.055831264E1
1.407504690E1,-2.615499973E0,-8.348299980E0,-6.219599724E0,1.073398218E1
1.408504690E1,-3.004699945E0,-7.326599598E0,-6.653800011E0,1.034312999E1
1.409504690E1,-2.653399944E0,-6.026000023E0,-6.411299706E0,9.190101820E0
1.410504690E1,-4.064999819E-1,-4.221499920E0,-6.351799965E0,7.637517044E0
1.411506096E1,5.137000084E-1,-2.860599995E0,-5.691699982E0,6.390803448E0
1.412504690E1,2.682799816E0,-8.398999572E-1,-5.573100090E0,6.241978164E0
1.413504690E1,3.913899899E0,7.095999718E-1,-5.837999821E0,7.064303677E0
1.414504690E1,5.150499821E0,1.925399899E0,-6.996699810E0,8.898798874E0
1.415504690E1,4.584599972E0,2.313199997E0,-8.495900154E0,9.927223708E0
1.416505003E1,2.916999817E0,2.635699987E0,-6.512599945E0,7.607217652E0
1.417504690E1,4.455499649E0,2.554299831E0,-5.493199825E0,7.520051135E0
1.418504690E1,3.182699919E0,2.269899845E0,-1.520299911E0,4.194441071E0
1.419505159E1,1.761199951E0,2.426100016E0,4.743999839E-1,3.035266364E0
1.420504690E1,5.791000128E-1,2.079699993E0,7.278999686E-1,2.278233362E0
1.421504690E1,-1.581999958E-1,1.787299991E0,1.454699993E0,2.309896224E0
1.422504690E1,-3.005000055E-1,2.140699863E0,3.169699907E0,3.836651360E0
1.423504690E1,-1.092199922E0,2.114399910E0,4.920599937E0,5.465884319E0
1.424504690E1,-2.903800011E0,1.587700009E0,5.226500034E0,6.186206304E0
1.425504690E1,-4.131400108E0,9.767999649E-1,4.248199940E0,6.005814496E0
1.426504690E1,-6.263700008E0,1.100999936E-1,2.433199883E0,6.720604249E0
1.427504690E1,-5.622999668E0,4.738999903E-1,1.370000001E-2,5.642950838E0
1.428504690E1,-5.479000092E0,9.595999718E-1,-1.890999913E0,5.875045088E0
1.429504690E1,-5.575599670E0,1.351300001E0,-3.461399794E0,6.700344163E0
1.430504690E1,-4.913300037E0,1.653399944E0,-4.437999725E0,6.824228176E0
1.431504690E1,-3.642999887E0,1.769299984E0,-4.401199818E0,5.981005806E0
1.432504690E1,-3.331399918E0,1.530799985E0,-4.134399891E0,5.525833554E0
1.433504846E1,-2.795399904E0,1.703400016E0,-2.639600039E0,4.205154052E0
1.434504690E1,-1.361299992E0,2.237099886E0,-1.875199914E0,3.220889362E0
1.435504690E1,-7.479999959E-2,2.521100044E0,-4.606999755E-1,2.563939340E0
1.436504690E1,1.509099960E0,3.336699963E0,1.158100009E0,3.840852114E0
1.437504690E1,2.985699892E0,3.641699791E0,2.691499949E0,5.424071643E0
1.438504690E1,4.004099846E0,3.363099813E0,9.031999707E-1,5.306507902E0
1.439504690E1,5.963699818E0,2.974099874E0,1.125100017E0,6.758463999E0
1.440504690E1,8.391799927E0,1.042899966E0,2.512199879E0,8.821626527E0
1.441504690E1,8.950099945E0,-2.150300026E0,4.108900070E0,1.008023507E1
1.442504690E1,9.189199448E0,-3.620599985E0,5.185699940E0,1.115534018E1
1.443504690E1,7.608500004E0,-4.861999989E0,5.466799736E0,1.055529325E1
1.444504690E1,5.214799881E0,-5.107299805E0,4.202099800E0,8.422368540E0
1.445504690E1,4.091899872E0,-4.095099926E0,1.982499957E0,6.119133439E0
1.446504690E1,3.640499830E0,-3.340199947E0,-3.653999865E-1,4.954159046E0
1.447504690E1,2.344399929E0,-3.431099892E0,-2.598999977E0,4.901373111E0
1.448504690E1,1.401799917E0,-2.763900042E0,-4.980899811E0,5.866306280E0
1.449504690E1,1.042299986E0,-1.731899977E0,-5.661799908E0,6.011808795E0
1.450504690E1,2.416800022E0,-7.849999666E-1,-2.628999949E0,3.656335327E0
1.451504690E1,3.386199951E0,-3.844999969E-1,1.431999952E-1,3.410967106E0
1.452504690E1,2.419100046E0,-5.643000007E-1,6.374999881E-1,2.564543967E0
1.453504690E1,6.432999969E-1,-3.615999818E-1,6.434999704E-1,9.791228956E-1
1.454504690E1,-6.639999747E-1,-7.369999588E-2,9.664999843E-1,1.174925477E0
1.455504690E1,-1.344900012E0,-5.941999555E-1,1.248600006E0,1.928945724E0
1.456504690E1,-1.622099996E0,-2.238199949E0,9.672999978E-1,2.928551979E0
1.457504690E1,-2.963099957E0,-3.214499950E0,-3.889999911E-2,4.372011493E0
1.458504690E1,-3.782499790E0,-3.613899946E0,1.723999977E-1,5.234242948E0
1.459504690E1,-3.957499981E0,-3.220499992E0,6.065999866E-1,5.138228279E0
1.460504690E1,-4.342599869E0,-2.450799942E0,2.002999932E-1,4.990462310E0
1.461504690E1,-4.612999916E0,-1.455599904E0,-4.968999922E-1,4.862658626E0
1.462504690E1,-5.127500057E0,-8.975999951E-1,-8.172000051E-1,5.269227499E0
1.463504690E1,-5.570099831E0,-1.401799917E0,-1.074399948E0,5.843405718E0
1.464504690E1,-5.164899826E0,-1.879099965E0,-1.020099998E0,5.589974141E0
1.465504690E1,-4.479499817E0,-2.046999931E0,-9.267999530E-1,5.011495334E0
1.466504690E1,-3.830899954E0,-2.447700024E0,-6.536999941E-1,4.592858973E0
1.467504690E1,-2.854099989E0,-2.769099951E0,-1.518999934E-1,3.979557123E0
1.468504690E1,-2.116600037E0,-2.975100040E0,3.671999872E-1,3.669611941E0
1.469504690E1,-3.184199810E0,-2.734799862E0,-1.525999904E-1,4.200183981E0
1.470504690E1,-3.839900017E0,-2.248999834E0,-8.374999762E-1,4.528160620E0
1.471504690E1,-2.781100035E0,-1.419799924E0,-1.224599957E0,3.354101114E0
1.472504690E1,-1.636600018E0,-7.282999754E-1,-9.468999505E-1,2.026203343E0
1.473504690E1,-8.507999778E-1,-1.516999900E-1,-6.765999794E-1,1.097570509E0
1.474504690E1,-2.732999921E-1,5.528999567E-1,-5.740999579E-1,8.426043019E-1
1.475504690E1,1.131999940E-1,1.130100012E0,-5.816000104E-1,1.276008953E0
1.476504690E1,8.069999516E-2,1.628099918E0,-7.181999683E-1,1.781300937E0
1.477504690E1,-2.199999988E-1,1.851300001E0,-1.715999991E-1,1.872206787E0
1.478504690E1,1.294000000E-1,2.280599833E0,1.895999908E-1,2.292123058E0
1.479504690E1,3.669999838E-1,2.640199900E0,3.240000010E-1,2.685203996E0
1.480504690E1,1.036399961E0,3.222899914E0,3.854999840E-1,3.407318443E0
1.481504690E1,1.230399966E0,3.625799894E0,1.177500010E0,4.005847629E0
1.482504690E1,6.882999539E-1,3.396799803E0,1.492799997E0,3.773653079E0
1.483504690E1,7.407999635E-1,3.351599932E0,1.342999935E0,3.685872422E0
1.484504690E1,9.091999531E-1,2.893299818E0,1.148399949E0,3.242938611E0
1.485504690E1,6.994999647E-1,2.022099972E0,4.624999762E-1,2.189085363E0
1.486504690E1,3.069999814E-1,1.110899925E0,-3.470999897E-1,1.203671897E0
1.487504690E1,2.237999886E-1,5.338999629E-1,-4.693999887E-1,7.452999092E-1
1.488504690E1,1.967999935E-1,1.248999983E-1,-5.694000125E-1,6.152614251E-1
1.489504690E1,3.219999745E-2,6.030000001E-2,-1.100700021E0,1.102820686E0
1.490504690E1,9.649999440E-2,7.609999925E-2,-1.551999927E0,1.556858128E0
1.491504690E1,2.942000031E-1,1.924999952E-1,-1.725099921E0,1.760562305E0
1.492504690E1,4.676999748E-1,3.208999932E-1,-1.492599964E0,1.596738778E0
1.493504690E1,5.191000104E-1,4.902999997E-1,-8.543999791E-1,1.113489216E0
1.494505002E1,6.151999831E-1,6.705999970E-1,-2.945999801E-1,9.565377795E-1
1.495504690E1,6.872000098E-1,8.319999576E-1,2.140999883E-1,1.100139349E0
1.496504690E1,8.991000056E-1,1.091400027E0,8.883000016E-1,1.669913690E0
1.497504690E1,9.134999514E-1,1.379099965E0,1.941599965E0,2.550727210E0
1.498504690E1,9.623999596E-1,1.390100002E0,2.809000015E0,3.278577860E0
1.499504690E1,7.991999984E-1,1.437799931E0,3.277899981E0,3.667508359E0
1.500504690E1,1.051399946E0,1.826399922E0,3.306299925E0,3.920815950E0
1.501504690E1,7.642999887E-1,1.476899981E0,3.546099901E0,3.916658338E0
1.502504690E1,3.102999926E-1,4.777999818E-1,4.256099701E0,4.294061431E0
1.503504690E1,4.449999928E-1,-3.258999884E-1,5.663899899E0,5.690693970E0
1.504504690E1,3.168999851E-1,-8.750000000E-1,7.070899963E0,7.131877515E0
1.505504690E1,4.659999907E-1,-1.080799937E0,7.602200031E0,7.692771270E0
1.506504846E1,8.438000083E-1,-1.511500001E0,6.911200047E0,7.124697663E0
1.507504690E1,1.070199966E0,-1.686399937E0,5.322000027E0,5.684448698E0
1.508504690E1,1.558099985E0,-1.948799968E0,4.107999802E0,4.806366533E0
1.509504690E1,2.088099957E0,-2.093199968E0,4.098499775E0,5.053646994E0
1.510504690E1,2.301199913E0,-1.777199984E0,4.107299805E0,5.032283031E0
1.511504690E1,2.228800058E0,-1.060599923E0,3.569199800E0,4.339540196E0
1.512504690E1,1.750199914E0,-2.674999833E-1,2.676599979E0,3.209196695E0
1.513504690E1,1.439399958E0,4.554999769E-1,1.891999960E0,2.420540501E0
1.514504690E1,1.459900022E0,8.350999951E-1,1.744499922E0,2.423216881E0
1.515504690E1,1.370999932E0,9.984999895E-1,1.392899990E0,2.194723998E0
1.516504690E1,1.182799935E0,1.161199927E0,4.272999763E-1,1.711720254E0
1.517504690E1,8.795999885E-1,1.627599955E0,4.279999807E-2,1.850570072E0
1.518504690E1,-1.640000008E-2,1.289600015E0,1.102800012E0,1.696910435E0
1.519504690E1,-2.114999890E-1,7.889999449E-2,2.504400015E0,2.514553020E0
1.520504690E1,5.959999934E-2,-1.304099917E0,1.986999989E0,2.377477173E0
1.521504690E1,7.400000095E-2,-3.211400032E0,1.233199954E0,3.440835406E0
1.522504690E1,7.421999574E-1,-5.173399925E0,7.349999994E-2,5.226885288E0
1.523504690E1,1.972000003E-1,-7.070999622E0,-9.681999683E-1,7.139701302E0
1.524504690E1,-8.337000012E-1,-8.190699577E0,-2.357699871E0,8.563957259E0
1.525504690E1,-1.159799933E0,-8.627499580E0,-3.983699799E0,9.573335311E0
1.526504690E1,-1.191299915E0,-8.354599953E0,-5.737299919E0,1.020466296E1
1.527504690E1,-1.098699927E0,-7.685999870E0,-7.141299725E0,1.054892873E1
1.528505002E1,-9.987999797E-1,-6.730000019E0,-7.669399738E0,1.025232627E1
1.529504690E1,2.425999939E-1,-5.061899662E0,-7.553999901E0,9.096405743E0
1.530504690E1,1.624199986E0,-3.156899929E0,-7.502799988E0,8.300364475E0
1.531504690E1,1.856199980E0,-1.705699921E0,-6.823199749E0,7.273991023E0
1.532504690E1,3.462499857E0,9.268999696E-1,-7.339699745E0,8.168184692E0
1.533504690E1,3.627300024E0,2.917799950E0,-3.929799795E0,6.092141532E0
1.534504690E1,5.156499863E0,3.665899992E0,-4.345099926E0,7.675168203E0
1.535504690E1,3.899399996E0,3.256999969E0,-5.708799839E0,7.642235585E0
1.536504690E1,2.255300045E0,2.599599838E0,-5.242899895E0,6.271546613E0
1.537504690E1,5.988999605E-1,2.648099899E0,-3.329699993E0,4.296279354E0
1.538504690E1,1.494999975E-1,3.202499866E0,-1.304700017E0,3.461300013E0
1.539504690E1,2.386999875E-1,2.697799921E0,2.962999821E0,4.014283253E0
1.540505628E1,-1.707199931E0,1.956499934E0,5.671000004E0,6.237200064E0
1.541504690E1,-2.759899855E0,2.163899899E0,7.789000034E0,8.542132726E0
1.542504690E1,-3.901799917E0,2.232100010E0,7.083699703E0,8.389583693E0
1.543504690E1,-5.022999763E0,2.243999958E0,5.697099686E0,7.919785809E0
1.544504690E1,-5.745299816E0,1.636999965E0,3.244499922E0,6.798162885E0
1.545504690E1,-6.169699669E0,1.034199953E0,1.325999975E0,6.394766570E0
1.546504690E1,-6.915499687E0,1.229799986E0,-8.714999557E-1,7.077856745E0
1.547504690E1,-6.824199677E0,1.842199922E0,-2.670099974E0,7.555980125E0
1.548504690E1,-6.071699619E0,2.334599972E0,-3.875000000E0,7.571757940E0
1.549504690E1,-4.918600082E0,2.286000013E0,-4.420399666E0,6.997024799E0
1.550504690E1,-3.508199930E0,1.960199952E0,-4.411699772E0,5.967658291E0
1.551504690E1,-2.669399977E0,1.709999919E0,-3.590199947E0,4.789502231E0
1.552504690E1,-1.700299978E0,2.233199835E0,-2.013799906E0,3.454503087E0
1.553504690E1,-5.525000095E-1,2.821399927E0,-1.256799936E0,3.137690216E0
1.554504690E1,1.581299901E0,3.334699869E0,-7.922999859E-1,3.774714805E0
1.555504690E1,2.686599970E0,3.077199936E0,1.235099912E0,4.267604789E0
1.556505003E1,3.398799896E0,2.250499964E0,1.808799982E0,4.459635433E0
1.557504690E1,5.261199951E0,1.665399909E0,1.440299988E0,5.703353911E0
1.558504690E1,7.172299862E0,1.155999973E-1,1.579699993E0,7.345114072E0
1.559504690E1,1.028619957E1,-2.633999825E0,3.799599886E0,1.127744723E1
1.560504690E1,8.850199699E0,-5.012000084E0,6.666800022E0,1.216110201E1
1.561504690E1,6.982999802E0,-6.563299656E0,6.429999828E0,1.154054099E1
1.562504690E1,4.874799728E0,-6.353399754E0,4.736999989E0,9.304221070E0
1.563504690E1,3.315599918E0,-4.405699730E0,2.692100048E0,6.136024413E0
1.564504690E1,3.080099821E0,-2.292199850E0,3.222999871E-1,3.852930358E0
1.565504690E1,1.790699959E0,-2.317199945E0,-1.972799897E0,3.531000052E0
1.566504690E1,1.338400006E0,-1.397599936E0,-4.263299942E0,4.681914838E0
1.567504690E1,2.297499895E0,-3.999999724E-3,-4.584599972E0,5.128067733E0
1.568504690E1,3.237200022E0,6.725999713E-1,-1.902799964E0,3.814774227E0
1.569504690E1,3.684700012E0,-3.429999948E-2,1.243499994E0,3.889020816E0
1.570504690E1,1.682500005E0,-1.876799941E0,2.807600021E0,3.773036200E0
1.571504690E1,8.114999533E-1,-2.312599897E0,3.246399879E0,4.067648293E0
1.572504690E1,1.011999995E-1,-1.748699903E0,3.048300028E0,3.515725509E0
1.573504690E1,-3.944999874E-1,-1.202899933E0,2.351599932E0,2.670696675E0
1.574504690E1,-9.577999711E-1,-1.215600014E0,1.220899940E0,1.971207965E0
1.575504690E1,-1.817199945E0,-1.992799997E0,-2.866999805E-1,2.712132805E0
1.576504690E1,-3.114799976E0,-3.065899849E0,-2.406699896E0,4.989381241E0
1.577504690E1,-3.918200016E0,-3.945499897E0,-3.773099899E0,6.719787471E0
1.578504690E1,-3.918999910E0,-4.106899738E0,-4.078000069E0,6.989654521E0
1.579504690E1,-3.643499851E0,-3.453599930E0,-4.830599785E0,6.966859976E0
1.580504690E1,-3.989699841E0,-2.537199974E0,-5.616299629E0,7.341519601E0
1.581504690E1,-4.675899982E0,-1.930699944E0,-4.004199982E0,6.451764132E0
1.582504690E1,-6.068099976E0,-1.765299916E0,-1.636899948E0,6.528212814E0
1.583504690E1,-5.890599728E0,-1.435299993E0,3.251000047E-1,6.071650618E0
1.584504690E1,-5.256700039E0,-1.334999919E0,1.130499959E0,5.540139912E0
1.585504690E1,-3.643800020E0,-1.241500020E0,1.589999914E0,4.164937048E0
1.586504690E1,-2.605999947E0,-1.394400001E0,1.709599972E0,3.414428085E0
1.587504690E1,-2.109499931E0,-1.327000022E0,1.237999916E0,2.782725788E0
1.588504690E1,-2.484400034E0,-1.295599937E0,4.386000037E-1,2.836052307E0
1.589504690E1,-2.654599905E0,-8.949999809E-1,-2.883000076E-1,2.816210666E0
1.590504690E1,-2.353600025E0,-3.662999868E-1,-3.242999911E-1,2.403909159E0
1.591504690E1,-1.623299956E0,4.769999906E-2,1.896999925E-1,1.635042545E0
1.592504690E1,-1.182399988E0,5.712999701E-1,-2.019999921E-1,1.328629890E0
1.593505159E1,-7.695999742E-1,1.291100025E0,-1.729799986E0,2.291600180E0
1.594504690E1,-8.303999901E-1,1.579599977E0,-2.269199848E0,2.886861303E0
1.595504690E1,-6.768999696E-1,1.544899940E0,-2.005499840E0,2.620484498E0
1.596504690E1,5.759999901E-2,2.040299892E0,-1.590399981E0,2.587569035E0
1.597504690E1,1.261000037E-1,2.564899921E0,-4.571999907E-1,2.608379698E0
1.598504690E1,2.897000015E-1,2.686399937E0,1.490199924E0,3.085671162E0
1.599504690E1,3.624999821E-1,3.070299864E0,3.238399982E0,4.477206935E0
1.600504690E1,2.386000007E-1,2.950899839E0,2.842499971E0,4.104210754E0
1.601504690E1,4.081999958E-1,2.524600029E0,1.576699972E0,3.004366047E0
1.602504690E1,4.835999906E-1,1.880399942E0,6.832999587E-1,2.058317694E0
1.603504690E1,4.019999802E-1,1.431299925E0,4.418999851E-1,1.550967136E0
1.604504690E1,1.365000010E-1,9.821999669E-1,9.975000024E-1,1.406540181E0
1.605504690E1,2.430999875E-1,7.498999834E-1,2.687999904E-1,8.328871616E-1
1.606504690E1,3.342999816E-1,6.466999650E-1,-3.023000062E-1,7.882655746E-1
1.607504690E1,7.053999901E-1,6.631000042E-1,-7.134000063E-1,1.202593169E0
1.608504690E1,1.279399991E0,8.971999884E-1,-8.460999727E-1,1.776996714E0
1.609504690E1,1.849200010E0,1.113099933E0,-8.991999626E-1,2.338181497E0
1.610504690E1,2.157399893E0,1.388399959E0,-8.059999943E-1,2.689175475E0
1.611504690E1,2.477399826E0,1.585399985E0,-6.365000010E-1,3.009341334E0
1.612504690E1,2.906599998E0,1.674199939E0,-1.947999895E-1,3.359942860E0
1.613504690E1,3.108399868E0,1.860299945E0,4.506999850E-1,3.650478887E0
1.614505628E1,3.285899878E0,1.897799969E0,1.054199934E0,3.938288997E0
1.615504690E1,3.407099962E0,1.864799976E0,1.868999958E0,4.310332928E0
1.616504690E1,3.194900036E0,2.044999838E0,2.705299854E0,4.659190689E0
1.617504690E1,2.635900021E0,2.036099911E0,2.694299936E0,4.284031269E0
1.618504690E1,1.807599902E0,1.602499962E0,2.553299904E0,3.514934414E0
1.619505784E1,7.439000010E-1,1.097899914E0,3.451699972E0,3.697702548E0
1.620504690E1,-4.083999991E-1,4.504999816E-1,5.500000000E0,5.533510711E0
1.621504690E1,-1.222999930E0,-4.245999753E-1,7.148499966E0,7.264782566E0
1.622504690E1,-1.468599916E0,-1.046599984E0,7.479599953E0,7.693930900E0
1.623504690E1,-1.312799931E0,-1.616799951E0,6.899799824E0,7.207268785E0
1.624504690E1,-8.511999846E-1,-2.135200024E0,5.828999996E0,6.265848826E0
1.625504690E1,-3.103999794E-1,-2.406599998E0,4.860699654E0,5.432722414E0
1.626504690E1,4.178999960E-1,-2.441400051E0,4.548599720E0,5.179269642E0
1.627505003E1,1.622599959E0,-2.260099888E0,4.348799706E0,5.162648643E0
1.628504690E1,2.251699924E0,-1.952499986E0,4.045799732E0,5.025027783E0
1.629504690E1,2.510499954E0,-1.490499973E0,3.257499933E0,4.374414933E0
1.630504690E1,2.525799990E0,-7.955999970E-1,1.817799926E0,3.212015180E0
1.631504690E1,2.329900026E0,-3.380999863E-1,1.031000018E0,2.570156954E0
1.632505628E1,1.857399940E0,-2.648999989E-1,1.198499918E0,2.226321765E0
1.633504690E1,8.266999722E-1,-3.619999811E-2,1.408599973E0,1.633675968E0
1.634504690E1,2.194999903E-1,4.669999778E-1,1.659299970E0,1.737683980E0
1.635504690E1,-3.752999902E-1,4.323000014E-1,1.877699971E0,1.963030961E0
1.636504690E1,-3.598999977E-1,-1.594000012E-1,2.328500032E0,2.361535257E0
1.637504690E1,1.206999943E-1,-1.044899940E0,1.174600005E0,1.576727480E0
1.638504690E1,3.795000017E-1,-2.572399855E0,4.303999841E-1,2.635622395E0
1.639504690E1,7.769999653E-2,-4.727699757E0,-4.484999776E-1,4.749561507E0
1.640504690E1,-2.593999803E-1,-6.454099655E0,-1.129499912E0,6.557321157E0
1.641504690E1,-6.020999551E-1,-7.662999630E0,-2.447099924E0,8.066745671E0
1.642504690E1,-1.432600021E0,-8.234000206E0,-3.613899946E0,9.105568353E0
1.643504690E1,-1.722199917E0,-7.709699631E0,-5.027599812E0,9.363877446E0
1.644504690E1,-1.598500013E0,-6.700999737E0,-6.632899761E0,9.563156331E0
1.645504690E1,-1.470099926E0,-5.084599972E0,-7.526399612E0,9.201143505E0
1.646504690E1,-1.834299922E0,-2.964699984E0,-7.334399700E0,8.120807913E0
1.647504690E1,1.969999969E-1,-1.417099953E0,-4.305699825E0,4.537183296E0
1.648504690E1,3.474799871E0,1.163999960E-1,-8.637999892E-1,3.582447980E0
1.649505002E1,3.108899832E0,9.821999669E-1,-2.619599819E0,4.182377093E0
1.650504690E1,2.368999958E0,1.958499908E0,-4.432199955E0,5.393725905E0
1.651504690E1,2.204999924E0,2.181099892E0,-6.823599815E0,7.495380967E0
1.652504690E1,1.770900011E0,2.051699877E0,-6.500400066E0,7.042780719E0
1.653504690E1,1.851699948E0,2.649799824E0,-4.866199970E0,5.842100132E0
1.654505628E1,1.396600008E0,2.313899994E0,-1.882699966E0,3.293809941E0
1.655504690E1,6.024999619E-1,2.330299854E0,1.625100017E0,2.904178658E0
1.656504690E1,1.088500023E0,3.115799904E0,6.544199944E0,7.329365200E0
1.657505315E1,-4.073999822E-1,2.974499941E0,9.271900177E0,9.745858481E0
1.658504690E1,-2.305199862E0,2.305500031E0,6.627399921E0,7.385912707E0
