"Time (s)","Linear Acceleration x (m/s^2)","Linear Acceleration y (m/s^2)","Linear Acceleration z (m/s^2)","Absolute acceleration (m/s^2)"
1.240310000E-4,-1.348899961E0,-7.361799717E0,-1.440400004E0,7.621704425E0
1.011778100E-2,-5.018999577E-1,3.467999995E-1,6.409999728E-2,6.134187940E-1
2.011621900E-2,-3.419999778E-2,2.334999889E-1,-1.362999976E-1,2.725244466E-1
3.011621900E-2,3.224000037E-1,1.149000004E-1,-2.441999912E-1,4.204490554E-1
4.011621900E-2,8.254999518E-1,1.520999968E-1,-5.087000132E-1,9.815091864E-1
5.011778100E-2,1.612800002E0,2.849999964E-1,-1.654999971E0,2.328384365E0
6.011621900E-2,2.154099941E0,3.077999949E-1,-2.189599991E0,3.086945985E0
7.011778100E-2,2.919999838E0,3.091000021E-1,-2.751899958E0,4.024288166E0
8.011778100E-2,4.693599701E0,7.184999585E-1,-3.931599855E0,6.164705813E0
9.011778100E-2,5.672899723E0,9.298999906E-1,-5.721499920E0,8.110614440E0
1.001177810E-1,5.434299946E0,1.107599974E0,-5.623199940E0,7.898023244E0
1.101177810E-1,5.417099953E0,1.767599940E0,-5.568500042E0,7.967281479E0
1.201162190E-1,4.638599873E0,2.453899860E0,-5.179299831E0,7.373152653E0
1.301162190E-1,3.673899889E0,2.680099964E0,-4.005700111E0,6.060207059E0
1.401177810E-1,3.053900003E0,2.497499943E0,-3.052799940E0,4.988326239E0
1.501177810E-1,2.427999973E0,1.936699986E0,-2.097100019E0,3.747508399E0
1.601177810E-1,2.008699894E0,7.544999719E-1,-2.712000012E-1,2.162797936E0
1.701271560E-1,2.326099873E0,-6.822999716E-1,1.133000016E0,2.675810701E0
1.801177810E-1,1.340899944E0,-2.643599987E0,1.041599989E0,3.141904532E0
1.901177810E-1,6.482999921E-1,-3.112399817E0,7.963999510E-1,3.277434725E0
2.001177810E-1,-7.589999586E-2,-3.379499912E0,1.630699992E0,3.753127087E0
2.101177810E-1,-2.851999998E-1,-3.876999855E0,2.230900049E0,4.482118020E0
2.201177810E-1,-2.437999994E-1,-4.943599701E0,1.909299970E0,5.305095929E0
2.301177810E-1,1.676999927E-1,-5.264899731E0,1.586399913E0,5.501268685E0
2.401177810E-1,2.709999867E-2,-5.544600010E0,1.229499936E0,5.679348006E0
2.501177810E-1,-1.759999990E-1,-5.444099903E0,1.085600019E0,5.554073024E0
2.601177810E-1,-4.043999910E-1,-5.145299911E0,1.358099937E0,5.336861060E0
2.701177810E-1,-8.950999975E-1,-5.022599697E0,1.799099922E0,5.409664708E0
2.801177810E-1,-8.050999641E-1,-4.710799694E0,2.124699831E0,5.230121326E0
2.901177810E-1,-1.084900022E0,-4.658499718E0,2.426100016E0,5.363262903E0
3.001177810E-1,-8.417999744E-1,-4.334399700E0,2.531299829E0,5.089511449E0
3.101177810E-1,-1.075699925E0,-4.111299992E0,2.539899826E0,4.950859428E0
3.201177810E-1,-1.226099968E0,-3.742999792E0,2.367799997E0,4.595633297E0
3.301177810E-1,-1.292899966E0,-3.092900038E0,2.146800041E0,3.980750103E0
3.401177810E-1,-1.737899899E0,-2.418200016E0,1.928999901E0,3.548102027E0
3.501177810E-1,-2.119999886E0,-1.592199922E0,1.666199923E0,3.131408994E0
3.601177810E-1,-2.498199940E0,-7.229999900E-1,1.349599957E0,2.930042998E0
3.701177810E-1,-2.883199930E0,2.080000006E-2,1.098600030E0,3.085481567E0
3.801177810E-1,-3.137499809E0,5.809000134E-1,9.659000039E-1,3.333813537E0
3.901177810E-1,-3.378799915E0,9.865999818E-1,8.835999966E-1,3.629106963E0
4.001177810E-1,-3.479699850E0,1.237800002E0,8.121999502E-1,3.781551091E0
4.101177810E-1,-3.568099976E0,1.353899956E0,9.753999710E-1,3.939008458E0
4.201177810E-1,-3.624399900E0,1.334699988E0,1.191299915E0,4.041892402E0
4.301177810E-1,-3.462499857E0,1.307799935E0,1.314399958E0,3.927708388E0
4.401177810E-1,-3.171599865E0,1.272099972E0,1.328899980E0,3.666505039E0
4.501177810E-1,-2.851199865E0,1.293699980E0,1.291299939E0,3.386806142E0
4.601177810E-1,-2.561499834E0,1.282299995E0,1.143299937E0,3.084268053E0
4.701177810E-1,-2.361700058E0,1.217800021E0,1.119599938E0,2.883429915E0
4.801177810E-1,-2.222300053E0,1.168499947E0,9.745000005E-1,2.693261944E0
4.901177810E-1,-2.044899940E0,1.104900002E0,7.964999676E-1,2.456996537E0
5.001177810E-1,-1.760899901E0,1.085799932E0,6.082999706E-1,2.156329940E0
5.101177810E-1,-1.544099927E0,1.020900011E0,4.353999794E-1,1.901592638E0
5.201177810E-1,-1.375399947E0,9.266999960E-1,2.876999974E-1,1.683231768E0
5.301177810E-1,-1.146999955E0,8.618999720E-1,2.179999948E-1,1.451207930E0
5.401177810E-1,-9.470999837E-1,8.269000053E-1,1.600999981E-1,1.267435997E0
5.501177810E-1,-7.461000085E-1,8.220999837E-1,1.348000020E-1,1.118340130E0
5.601177810E-1,-5.931000113E-1,8.376999497E-1,9.399999678E-2,1.030701134E0
5.701177810E-1,-2.818000019E-1,9.036999941E-1,1.160999984E-1,9.537107161E-1
5.801177810E-1,5.939999968E-2,9.504999518E-1,8.309999853E-2,9.559728700E-1
5.901177810E-1,4.681999981E-1,1.005499959E0,9.200000018E-2,1.112971431E0
6.001177810E-1,8.254999518E-1,9.393999577E-1,9.259999543E-2,1.253992508E0
6.101177810E-1,1.198699951E0,8.683999777E-1,7.409999520E-2,1.482056309E0
6.201177810E-1,1.597399950E0,7.114999890E-1,4.779999703E-2,1.749343784E0
6.301177810E-1,2.042500019E0,5.259999633E-1,1.024999991E-1,2.111631724E0
6.401177810E-1,2.452699900E0,3.201999962E-1,3.469999880E-2,2.473756036E0
6.501177810E-1,2.869599819E0,9.879999608E-2,-3.189999983E-2,2.871477350E0
6.601177810E-1,3.107199907E0,-1.384000033E-1,-2.768000066E-1,3.122573309E0
6.701177810E-1,3.382399797E0,-3.615999818E-1,-7.896999717E-1,3.492135304E0
6.801177810E-1,3.793399811E0,-4.626999795E-1,-1.802699924E0,4.225363938E0
6.901177810E-1,3.994299889E0,7.699999958E-3,-2.660300016E0,4.799133991E0
7.001177810E-1,4.536799908E0,1.008399963E0,-2.881500006E0,5.468314747E0
7.101177810E-1,5.752899647E0,4.113999903E-1,-1.536639977E1,1.641314553E1
7.201177810E-1,5.381399632E0,-3.921999931E-1,-2.156929970E1,2.223393740E1
7.301287190E-1,5.435199738E0,-6.653000116E-1,-1.502909946E1,1.599555723E1
7.401177810E-1,5.751699924E0,-8.378999829E-1,-9.915299416E0,1.149335856E1
7.501177810E-1,5.053599834E0,-1.248000026E0,-6.548699856E0,8.365515235E0
7.601177810E-1,3.951200008E0,-1.429399967E0,-4.441599846E0,6.114161837E0
7.701177810E-1,3.007799864E0,-1.177799940E0,-3.029199839E0,4.428332009E0
7.801177810E-1,1.998199940E0,-7.073000073E-1,-2.011399984E0,2.922123577E0
7.901177810E-1,1.082000017E0,-2.929999828E-1,-1.412699938E0,1.803411806E0
8.001177810E-1,4.490000010E-1,4.419999942E-2,-1.038999915E0,1.132729211E0
8.101177810E-1,-1.659999974E-2,1.933999956E-1,-7.069999576E-1,7.331630503E-1
8.201177810E-1,-3.334999979E-1,1.518999934E-1,-4.301999807E-1,5.651264283E-1
8.301177810E-1,-4.226999879E-1,-1.010999978E-1,-1.501999944E-1,4.598440253E-1
8.401177810E-1,-3.333999813E-1,-5.857999921E-1,4.769999906E-2,6.757162630E-1
8.501177810E-1,-8.439999819E-2,-1.457700014E0,2.269999981E-1,1.477681187E0
8.601177810E-1,6.191999912E-1,-2.390599966E0,2.999999821E-1,2.487644833E0
8.701177810E-1,1.090199947E0,-3.354699850E0,3.980999887E-1,3.549793038E0
8.801177810E-1,1.112800002E0,-3.936899900E0,3.186999857E-1,4.103544121E0
8.901177810E-1,6.864999533E-1,-4.263700008E0,-8.639999479E-2,4.319477388E0
9.001177810E-1,-2.229999937E-2,-4.538599968E0,-2.533999979E-1,4.545723102E0
9.101177810E-1,-8.948999643E-1,-4.589900017E0,-8.410000056E-2,4.677082522E0
9.201177810E-1,-2.068500042E0,-4.514899731E0,1.204999983E-1,4.967648564E0
9.301177810E-1,-2.883199930E0,-4.212899685E0,1.338000000E-1,5.106786468E0
9.401177810E-1,-3.279099941E0,-3.554999828E0,2.451999933E-1,4.842586421E0
9.501177810E-1,-3.513099909E0,-2.614199877E0,4.852999747E-1,4.405840218E0
9.601177810E-1,-3.556799889E0,-1.542099953E0,6.107000113E-1,3.924519361E0
9.701177810E-1,-3.725199938E0,-6.370999813E-1,7.965999842E-1,3.862328637E0
9.801177810E-1,-3.980700016E0,-1.184999943E-1,1.008800030E0,4.108246873E0
9.901177810E-1,-4.274199963E0,2.493999898E-1,1.175400019E0,4.439881854E0
1.000117781E0,-4.340899944E0,6.254999638E-1,1.208199978E0,4.549110871E0
1.010117781E0,-4.329299927E0,5.880999565E-1,1.289799929E0,4.555467404E0
1.020117781E0,-4.309199810E0,5.004999638E-1,1.415399909E0,4.563229133E0
1.030117781E0,-4.123399734E0,4.131000042E-1,1.379199982E0,4.367524422E0
1.040117781E0,-3.722499847E0,3.953000009E-1,1.165799975E0,3.920759721E0
1.050117781E0,-3.469799995E0,4.264999926E-1,7.060999870E-1,3.566509700E0
1.060117781E0,-3.237099886E0,4.573999941E-1,3.676999807E-1,3.289868341E0
1.070117781E0,-3.003999949E0,4.001999795E-1,2.620999813E-1,3.041853401E0
1.080117781E0,-2.710899830E0,3.926999867E-1,2.180999964E-1,2.747864403E0
1.090117781E0,-2.436800003E0,3.949999809E-1,3.445999920E-1,2.492542556E0
1.100117781E0,-2.015199900E0,5.342999697E-1,4.530999959E-1,2.133496356E0
1.110117781E0,-1.653299928E0,6.620999575E-1,5.895000100E-1,1.875976350E0
1.120117781E0,-1.595600009E0,6.311999559E-1,8.416999578E-1,1.911233003E0
1.130117781E0,-1.580500007E0,4.108999968E-1,1.110100031E0,1.974624308E0
1.140117781E0,-1.584999919E0,2.193999887E-1,1.367200017E0,2.104660777E0
1.150117781E0,-1.423299909E0,2.338999957E-1,1.464599967E0,2.055613023E0
1.160117781E0,-1.321799994E0,2.775000036E-1,1.348699927E0,1.908704526E0
1.170127156E0,-1.182600021E0,3.698999882E-1,1.056800008E0,1.628556130E0
1.180117781E0,-9.548999667E-1,4.536999762E-1,4.963999987E-1,1.167942881E0
1.190117781E0,-4.893999994E-1,4.623000026E-1,-1.542000026E-1,6.906600412E-1
1.200117781E0,2.741999924E-1,4.849999845E-1,-1.205899954E0,1.328384477E0
1.210117781E0,1.060999990E0,5.008000135E-1,-2.036000013E0,2.349854822E0
1.220117781E0,2.390699863E0,6.259999871E-1,-2.649899960E0,3.623436437E0
1.230117781E0,3.602099895E0,6.973999739E-1,-3.263199806E0,4.910189747E0
1.240117781E0,5.614299774E0,1.289399981E0,-7.383399963E0,9.364694831E0
1.250117781E0,6.869400024E0,1.769899964E0,-9.569099426E0,1.191171131E1
1.260117781E0,5.874700069E0,1.688300014E0,-6.765899658E0,9.118105945E0
1.270117781E0,5.065700054E0,2.221600056E0,-4.901099682E0,7.390372246E0
1.280117781E0,4.557600021E0,2.804499865E0,-4.895499706E0,7.252782557E0
1.290117781E0,4.093699932E0,2.992499828E0,-4.373199940E0,6.696141581E0
1.300117781E0,3.621599913E0,2.764899969E0,-3.905399799E0,6.001067018E0
1.310117781E0,3.615499973E0,2.268699884E0,-3.587899923E0,5.576007988E0
1.320117781E0,3.955499887E0,1.328099966E0,-3.400099993E0,5.382425925E0
1.330117781E0,3.832399845E0,-2.142999917E-1,-2.593299866E0,4.632323095E0
1.340117781E0,3.369799852E0,-1.697799921E0,-1.115299940E0,3.934713404E0
1.350117781E0,2.596999884E0,-2.461599827E0,2.768000066E-1,3.588941396E0
1.360117781E0,1.492299914E0,-2.494499922E0,9.127999544E-1,3.046751163E0
1.370117781E0,4.957999885E-1,-2.396199942E0,1.575899959E0,2.910507253E0
1.380117781E0,2.241999954E-1,-2.353600025E0,1.842000008E0,2.997109065E0
1.390117781E0,1.269000024E-1,-2.663800001E0,1.965899944E0,3.313109815E0
1.400117781E0,3.790000081E-2,-3.101300001E0,1.991599917E0,3.685914858E0
1.410117781E0,-8.129999787E-2,-3.725399971E0,1.891599894E0,4.178919094E0
1.420117781E0,2.324999869E-1,-3.925699949E0,2.014199972E0,4.418390868E0
1.430117781E0,4.302999973E-1,-3.879899979E0,2.343199968E0,4.552951573E0
1.440117781E0,3.333999813E-1,-3.864799976E0,2.503099918E0,4.616637695E0
1.450117781E0,1.398999989E-1,-3.789399862E0,2.561499834E0,4.576068698E0
1.460117781E0,-1.283999979E-1,-3.660899878E0,2.639600039E0,4.515103857E0
1.470117781E0,-2.730999887E-1,-3.260599852E0,2.546099901E0,4.145928087E0
1.480117781E0,-2.944000065E-1,-2.609200001E0,2.325700045E0,3.507631210E0
1.490117781E0,-9.093999863E-1,-1.984200001E0,2.396600008E0,3.241565914E0
1.500117781E0,-1.274299979E0,-1.207899928E0,2.113800049E0,2.747910719E0
1.510117781E0,-1.781499982E0,-4.767999947E-1,1.979399920E0,2.705384346E0
1.520117781E0,-2.185600042E0,1.306999922E-1,1.856899977E0,2.870889680E0
1.530117781E0,-2.427599907E0,6.347999573E-1,1.774999976E0,3.073570759E0
1.540117781E0,-2.693699837E0,9.860999584E-1,1.860099912E0,3.418827814E0
1.550117781E0,-2.905999899E0,1.262399912E0,2.196199894E0,3.855098303E0
1.560117781E0,-3.144099951E0,1.472999930E0,2.410699844E0,4.226886210E0
1.570117781E0,-3.163899899E0,1.687099934E0,2.503399849E0,4.373051516E0
1.580117781E0,-3.241499901E0,1.805799961E0,2.605399847E0,4.533910395E0
1.590117781E0,-3.220999956E0,1.828899980E0,2.731999874E0,4.602557894E0
1.600117781E0,-3.181799889E0,1.776199937E0,2.858999968E0,4.631697050E0
1.610117781E0,-3.095700026E0,1.657099962E0,2.765699863E0,4.469724227E0
1.620117781E0,-2.934000015E0,1.584199905E0,2.592799902E0,4.223820162E0
1.630117781E0,-2.724400043E0,1.413599968E0,2.358299971E0,3.870684593E0
1.640117781E0,-2.449599981E0,1.219399929E0,2.091399908E0,3.444042658E0
1.650117781E0,-2.205899954E0,1.034399986E0,1.830799937E0,3.047590253E0
1.660117781E0,-1.992199898E0,8.586999774E-1,1.591300011E0,2.690438962E0
1.670117781E0,-1.797699928E0,6.728000045E-1,1.427099943E0,2.391861017E0
1.680117781E0,-1.602999926E0,5.446000099E-1,1.242100000E0,2.099764354E0
1.690117781E0,-1.457399964E0,4.538999796E-1,1.067799926E0,1.862857088E0
1.700117781E0,-1.272199988E0,3.712999821E-1,9.274999499E-1,1.617594710E0
1.710117781E0,-1.086099982E0,3.562999964E-1,8.144999743E-1,1.403557290E0
1.720117781E0,-8.598999977E-1,4.384000003E-1,7.404999733E-1,1.216537207E0
1.730117781E0,-7.214999795E-1,5.780999660E-1,6.954999566E-1,1.156927820E0
1.740117781E0,-5.536000133E-1,7.164999843E-1,7.174999714E-1,1.155271142E0
1.750117781E0,-3.662000000E-1,7.850999832E-1,7.750999928E-1,1.162438997E0
1.760117781E0,-1.202999949E-1,7.348999977E-1,8.658999801E-1,1.142073934E0
1.770117781E0,1.836999953E-1,5.952000022E-1,1.034099936E0,1.207216389E0
1.780117781E0,5.358999968E-1,4.346999824E-1,1.107999921E0,1.305303300E0
1.790117781E0,9.756999612E-1,2.243999988E-1,1.111500025E0,1.495920479E0
1.800117781E0,1.463599920E0,-6.599999964E-3,1.052099943E0,1.802521172E0
1.810117781E0,2.116999865E0,-3.182999790E-1,9.678999782E-1,2.349432627E0
1.820117781E0,2.739199877E0,-6.330999732E-1,8.388999701E-1,2.933902640E0
1.830117781E0,3.290400028E0,-9.429000020E-1,6.367999911E-1,3.481566743E0
1.840117781E0,3.673199892E0,-1.198499918E0,3.517999947E-1,3.879763232E0
1.850117781E0,3.888700008E0,-1.301100016E0,8.410000056E-2,4.101453622E0
1.860117781E0,3.947899818E0,-1.259799957E0,-2.913999856E-1,4.154265622E0
1.870117781E0,3.958999872E0,-9.764999747E-1,-1.213299990E0,4.254330623E0
1.880117781E0,3.735699892E0,-4.010000080E-2,-4.742199898E0,6.037012636E0
1.890117781E0,4.112800121E0,2.138799906E0,-1.073919964E1,1.169700811E1
1.900117781E0,8.669599533E0,1.276499987E0,-4.871239853E1,4.949433481E1
1.910117781E0,6.420599937E0,-1.563999951E-1,-1.551789951E1,1.679445652E1
1.920117781E0,3.836199999E0,-1.068199992E0,-3.164999962E0,5.086718629E0
1.930117781E0,3.892299891E0,-4.515999854E-1,-2.164000034E0,4.476252577E0
1.940120906E0,2.807799816E0,9.559999406E-2,-1.063099980E0,3.003840997E0
1.950117781E0,1.220199943E0,2.405999899E-1,-2.056999952E-1,1.260590633E0
1.960117781E0,8.253999949E-1,3.323999941E-1,2.532999814E-1,9.251679783E-1
1.970117781E0,8.528999686E-1,3.134999871E-1,6.692999601E-1,1.128575667E0
1.980117781E0,8.499999642E-1,-1.579999924E-2,1.152999997E0,1.432535714E0
1.990117781E0,1.081300020E0,-6.266999841E-1,1.334900022E0,1.828639022E0
2.000117781E0,1.576799989E0,-1.409600019E0,1.313300014E0,2.489583769E0
2.010117781E0,2.092099905E0,-2.224999905E0,1.272599936E0,3.308627689E0
2.020117781E0,2.402099848E0,-2.826099873E0,1.165699959E0,3.887901820E0
2.030117781E0,2.418099880E0,-3.154099941E0,9.663999677E-1,4.090168990E0
2.040117781E0,1.873399973E0,-3.300199986E0,7.475000024E-1,3.867777612E0
2.050117781E0,9.150999784E-1,-3.637499809E0,4.587000012E-1,3.778785324E0
2.060117781E0,5.699999630E-3,-3.751299858E0,3.806999922E-1,3.770572317E0
2.070117781E0,-7.742999792E-1,-3.813999891E0,2.397999913E-1,3.899184487E0
2.080117781E0,-1.552799940E0,-3.647399902E0,2.933000028E-1,3.975014288E0
2.090117781E0,-2.556499958E0,-3.507299900E0,2.316000015E-1,4.346318348E0
2.100117781E0,-3.371799946E0,-3.135900021E0,1.935999990E-1,4.608729193E0
2.110117781E0,-4.341000080E0,-3.061599970E0,5.746999979E-1,5.343028744E0
2.120117781E0,-4.763299942E0,-2.722299814E0,6.344000101E-1,5.522898332E0
2.130117781E0,-4.691899776E0,-1.875099897E0,5.777999759E-1,5.085644104E0
2.140117781E0,-4.664400101E0,-1.186100006E0,8.046000004E-1,4.879635507E0
2.150117781E0,-4.734499931E0,-6.351000071E-1,1.061699986E0,4.893469984E0
2.160117781E0,-4.765399933E0,-1.464999914E-1,1.383199930E0,4.964246248E0
2.170127156E0,-4.640699863E0,2.674999833E-1,1.762799978E0,4.971429898E0
2.180117781E0,-4.756999969E0,4.169999957E-1,2.035599947E0,5.191011929E0
2.190117781E0,-4.695799828E0,6.245999932E-1,2.189699888E0,5.218759122E0
2.200117781E0,-4.635900021E0,6.647999883E-1,2.309999943E0,5.222032915E0
2.210117781E0,-4.491499901E0,6.942999959E-1,2.344099998E0,5.113748982E0
2.220117781E0,-4.332499981E0,6.735999584E-1,2.283999920E0,4.943778780E0
2.230117781E0,-4.129699707E0,6.613000035E-1,2.222199917E0,4.736022575E0
2.240117781E0,-3.941499949E0,5.888999701E-1,2.095299959E0,4.502500076E0
2.250117781E0,-3.589900017E0,4.671999812E-1,1.996599913E0,4.134255576E0
2.260117781E0,-3.161399841E0,3.267999887E-1,1.872999907E0,3.689088755E0
2.270117781E0,-2.753799915E0,1.374000013E-1,1.777499914E0,3.280518050E0
2.280117781E0,-2.327899933E0,-2.329999954E-2,1.634799957E0,2.844684849E0
2.290117781E0,-1.971499920E0,-9.669999778E-2,1.448300004E0,2.448210719E0
2.300117781E0,-1.802199960E0,-2.206999958E-1,1.260999918E0,2.210600366E0
2.310117781E0,-1.485700011E0,-1.592999995E-1,1.076300025E0,1.841494707E0
2.320117781E0,-1.295499921E0,-1.471000016E-1,8.217999935E-1,1.541205270E0
2.330117781E0,-1.072999954E0,-1.726000011E-1,6.586999893E-1,1.270828603E0
2.340117781E0,-8.175999522E-1,-2.343999892E-1,5.676999688E-1,1.022592926E0
2.350117781E0,-3.134999871E-1,-2.245999873E-1,5.173000097E-1,6.452338307E-1
2.360117781E0,4.082999825E-1,-2.622999847E-1,-2.114999890E-1,5.293792620E-1
2.370117781E0,1.425199986E0,-2.025000006E-1,-1.486699939E0,2.069414883E0
2.380117781E0,2.345199823E0,-1.354999989E-1,-2.094500065E0,3.147261188E0
2.390117781E0,3.698199987E0,-3.199999779E-2,-3.064499855E0,4.803005987E0
2.400117781E0,4.914999962E0,2.338999957E-1,-4.603600025E0,6.738328207E0
2.410117781E0,7.738599777E0,1.748999953E0,-1.222709942E1,1.457555788E1
2.420117781E0,7.014299870E0,1.985199928E0,-1.207369995E1,1.410374602E1
2.430117781E0,5.047800064E0,2.131999969E0,-7.213199615E0,9.058474378E0
2.440117781E0,4.244800091E0,2.813799858E0,-5.690499783E0,7.636595133E0
2.450117781E0,3.515100002E0,3.458499908E0,-5.124700069E0,7.111940695E0
2.460117781E0,3.034600019E0,3.695400000E0,-5.412499905E0,7.222183441E0
2.470117781E0,2.582799911E0,3.489300013E0,-5.480199814E0,6.991327482E0
2.480117781E0,2.826900005E0,2.869599819E0,-4.680500031E0,6.175196134E0
2.490117781E0,2.596799850E0,1.485499978E0,-2.731400013E0,4.051003046E0
2.500117781E0,2.454200029E0,3.979999945E-2,-4.319999740E-2,2.454902862E0
2.510117781E0,2.289899826E0,-1.068699956E0,1.555400014E0,2.967327082E0
2.520117781E0,2.092599869E0,-2.092900038E0,1.817299962E0,3.473007908E0
2.530117781E0,1.558499932E0,-2.288899899E0,1.805400014E0,3.305669977E0
2.540117781E0,6.785999537E-1,-2.503799915E0,1.992599964E0,3.271080331E0
2.550117781E0,3.577999771E-1,-2.902999878E0,1.932899952E0,3.505928028E0
2.560117781E0,2.754999995E-1,-3.631699800E0,1.966399908E0,4.139066596E0
2.570117781E0,3.446999788E-1,-4.532000065E0,1.841099977E0,4.903824201E0
2.580117781E0,2.626999915E-1,-5.172599792E0,1.672399998E0,5.442584097E0
2.590117781E0,4.536999762E-1,-5.121299744E0,1.531899929E0,5.364724795E0
2.600117781E0,3.768000007E-1,-4.841700077E0,1.818199992E0,5.185546171E0
2.610117781E0,1.472999901E-1,-4.306200027E0,2.340299845E0,4.903270269E0
2.620117781E0,-1.545999944E-1,-3.815599918E0,2.714099884E0,4.684980478E0
2.630117781E0,-2.795999944E-1,-3.342199802E0,2.874899864E0,4.417411562E0
2.640117781E0,-4.684999883E-1,-2.930699825E0,2.859299898E0,4.121175756E0
2.650117781E0,-6.762999892E-1,-2.458499908E0,2.691599846E0,3.707602083E0
2.660117781E0,-9.600999951E-1,-1.807299972E0,2.518499851E0,3.245145095E0
2.670117781E0,-1.456699967E0,-1.232599974E0,2.404500008E0,3.069673888E0
2.680117781E0,-1.821399927E0,-4.384000003E-1,2.097599983E0,2.812404300E0
2.690117781E0,-2.240000010E0,1.930999905E-1,1.934799910E0,2.966199309E0
2.700117781E0,-2.574199915E0,7.506999969E-1,1.889599919E0,3.280341986E0
2.710117781E0,-2.755100012E0,1.107499957E0,1.863599896E0,3.505729140E0
2.720117781E0,-2.831799984E0,1.419899940E0,1.982099891E0,3.736833816E0
2.730117781E0,-2.972299814E0,1.617900014E0,2.201299906E0,4.037064269E0
2.740117781E0,-3.030599833E0,1.701399922E0,2.474299908E0,4.266316570E0
2.750117781E0,-2.939299822E0,1.709699988E0,2.724099874E0,4.356980333E0
2.760117781E0,-2.886399984E0,1.613199949E0,2.962800026E0,4.439808885E0
2.770117781E0,-2.696599960E0,1.412400007E0,3.143899918E0,4.376143487E0
2.780117781E0,-2.518800020E0,1.195500016E0,3.231899977E0,4.268342921E0
2.790117781E0,-2.275300026E0,1.001600027E0,3.135099888E0,4.001130356E0
2.800117781E0,-2.015399933E0,8.302999735E-1,2.892699957E0,3.622008832E0
2.810117781E0,-1.748299956E0,6.901999712E-1,2.587899923E0,3.198461310E0
2.820117781E0,-1.590899944E0,5.705999732E-1,2.276000023E0,2.834911474E0
2.830117781E0,-1.424199939E0,4.806999862E-1,2.012799978E0,2.512126926E0
2.840117781E0,-1.316100001E0,4.197999835E-1,1.851999998E0,2.310466453E0
2.850117781E0,-1.207999945E0,4.168999791E-1,1.608099937E0,2.054033804E0
2.860117781E0,-1.099499941E0,4.619999826E-1,1.411000013E0,1.847502406E0
2.870117781E0,-9.809999466E-1,5.345999599E-1,1.204299927E0,1.642710055E0
2.880117781E0,-9.806999564E-1,6.238999963E-1,1.019099951E0,1.545829331E0
2.890117781E0,-1.098500013E0,7.690999508E-1,8.671000004E-1,1.596896811E0
2.900117781E0,-1.068099976E0,9.329999685E-1,7.597000003E-1,1.608872459E0
2.910117781E0,-8.300999999E-1,1.067299962E0,6.796999574E-1,1.513336463E0
2.920117781E0,-4.827999771E-1,1.093299985E0,6.678999662E-1,1.369120535E0
2.930117781E0,8.069999516E-2,1.010299921E0,7.246999741E-1,1.245956850E0
2.940117781E0,6.927999854E-1,8.564999700E-1,7.698999643E-1,1.343990317E0
2.950117781E0,1.381399989E0,6.111999750E-1,8.686999679E-1,1.742547266E0
2.960117781E0,1.919799924E0,3.125000000E-1,9.483000040E-1,2.163922571E0
2.970117781E0,2.494499922E0,4.930000007E-2,1.013599992E0,2.693017878E0
2.980117781E0,2.900099993E0,-2.461999953E-1,9.909999967E-1,3.074617927E0
2.990117781E0,3.255499840E0,-4.258999825E-1,8.969999552E-1,3.403568557E0
3.000117781E0,3.571499825E0,-5.381000042E-1,4.244999886E-1,3.636669197E0
3.010117781E0,3.828499794E0,-1.221999973E-1,-1.337499976E0,4.057246566E0
3.020117781E0,3.760299921E0,6.820999980E-1,-4.421400070E0,5.844133339E0
3.030117781E0,4.211299896E0,1.806100011E0,-1.774219894E1,1.832437359E1
3.040117781E0,4.835599899E0,1.835699916E0,-1.907609940E1,1.976487766E1
3.050117781E0,4.433300018E0,4.287000000E-1,-8.712100029E0,9.784611370E0
3.060117781E0,4.463099957E0,-5.649999902E-2,-4.842700005E0,6.585908958E0
3.070117781E0,3.834199905E0,2.586999834E-1,-3.856799841E0,5.444531165E0
3.080117781E0,3.197299957E0,2.821999788E-1,-3.139600039E0,4.489927867E0
3.090117781E0,2.904799938E0,-1.359999925E-2,-2.310999870E0,3.711976299E0
3.100117781E0,2.774499893E0,-2.030999959E-1,-1.628999949E0,3.223777303E0
3.110117781E0,2.142199993E0,3.920000046E-2,-1.053399920E0,2.387511014E0
3.120117781E0,1.184899926E0,3.894999921E-1,-4.602999985E-1,1.329501473E0
3.130117781E0,5.401999950E-1,5.791000128E-1,-1.246999949E-1,8.017000363E-1
3.140117781E0,1.402999908E-1,5.417999625E-1,9.929999709E-2,5.684116257E-1
3.150117781E0,2.107999921E-1,2.273999900E-1,4.601999819E-1,5.549156832E-1
3.160117781E0,6.236000061E-1,-3.547999859E-1,7.953000069E-1,1.071103216E0
3.170127156E0,1.171899915E0,-1.058300018E0,1.037199974E0,1.889214685E0
3.180117781E0,1.816100001E0,-1.804799914E0,1.066200018E0,2.773500392E0
3.190117781E0,2.212399960E0,-2.447799921E0,9.918999672E-1,3.445330692E0
3.200117781E0,2.194200039E0,-3.016599894E0,8.276000023E-1,3.820904408E0
3.210117781E0,1.968099952E0,-3.471400023E0,3.638999760E-1,4.007051126E0
3.220117781E0,1.211499929E0,-3.909099817E0,-1.449999958E-2,4.092554668E0
3.230117781E0,2.292999923E-1,-4.219799995E0,-1.122999936E-1,4.227517212E0
3.240117781E0,-9.363999963E-1,-4.536299706E0,-2.274999917E-1,4.637522638E0
3.250117781E0,-1.940400004E0,-4.766699791E0,-3.507999778E-1,5.158453227E0
3.260117781E0,-2.582099915E0,-4.552599907E0,-4.987999797E-1,5.257585691E0
3.270117781E0,-3.212100029E0,-3.980899811E0,7.189999521E-2,5.115693453E0
3.280117781E0,-3.307299852E0,-2.728499889E0,1.043599963E0,4.412714000E0
3.290117781E0,-3.190299988E0,-1.121599913E0,1.773399949E0,3.818500721E0
3.300117781E0,-3.474499941E0,-3.039999865E-2,2.109699965E0,4.064961001E0
3.310117781E0,-3.901399851E0,4.032999873E-1,2.361799955E0,4.578391716E0
3.320117781E0,-4.209599972E0,6.323999763E-1,2.553799868E0,4.964126853E0
3.330117781E0,-4.489799976E0,6.197999716E-1,2.578999996E0,5.214757599E0
3.340117781E0,-4.499399662E0,5.133000016E-1,2.503299952E0,5.174416378E0
3.350117781E0,-4.446199894E0,4.794999957E-1,2.227900028E0,4.996213794E0
3.360117781E0,-4.242399693E0,4.973999858E-1,1.759099960E0,4.619501550E0
3.370117781E0,-3.857499838E0,5.949999690E-1,1.146899939E0,4.068133409E0
3.380117781E0,-3.515899897E0,6.125000119E-1,3.282999992E-1,3.583920931E0
3.390117781E0,-3.116999865E0,6.371999979E-1,-4.139999747E-1,3.208287389E0
3.400117781E0,-2.756899834E0,5.410000086E-1,-1.053099990E0,3.000366193E0
3.410117781E0,-2.276700020E0,6.669999957E-1,-1.544299960E0,2.830744485E0
3.420117781E0,-1.861799955E0,8.190000057E-1,-1.593299985E0,2.583730815E0
3.430117781E0,-1.807500005E0,7.502999902E-1,-8.764999509E-1,2.144355033E0
3.440117781E0,-2.105099916E0,7.067999840E-1,-9.489999712E-2,2.222615101E0
3.450117781E0,-2.382299900E0,7.106999755E-1,5.946999788E-1,2.556191568E0
3.460117781E0,-2.238399982E0,6.759999990E-1,1.059000015E0,2.566883619E0
3.470117781E0,-1.950799942E0,5.037999749E-1,1.266799927E0,2.379961530E0
3.480117781E0,-1.621199965E0,2.800999880E-1,1.339800000E0,2.121746774E0
3.490117781E0,-1.299499989E0,2.400999963E-1,1.146000028E0,1.749189610E0
3.500117781E0,-9.553999901E-1,3.059999943E-1,5.913000107E-1,1.164500253E0
3.510117781E0,-5.672000051E-1,4.087999761E-1,-2.563000023E-1,7.446629824E-1
3.520117781E0,-1.816999912E-1,3.030999899E-1,-8.942999840E-1,9.615908444E-1
3.530117781E0,1.247999966E-1,-1.069999952E-2,-1.096899986E0,1.104028582E0
3.540117781E0,5.205000043E-1,-2.071999907E-1,-1.235800028E0,1.356854377E0
3.550117781E0,1.074999928E0,-3.634999990E-1,-1.330899954E0,1.749014518E0
3.560117781E0,1.622900009E0,-4.876999855E-1,-1.440099955E0,2.223857818E0
3.570117781E0,2.202899933E0,-5.791000128E-1,-2.079499960E0,3.084225190E0
3.580117781E0,3.345099926E0,-2.833999991E-1,-3.782199860E0,5.057177558E0
3.590117781E0,5.393099785E0,5.252000093E-1,-9.214499474E0,1.068963801E1
3.600117781E0,5.024399757E0,7.597999573E-1,-9.297699928E0,1.059571200E1
3.610117781E0,3.273399830E0,1.175499916E0,-5.255099773E0,6.301826729E0
3.620117781E0,2.723999977E0,1.827600002E0,-3.270799875E0,4.632324413E0
3.630117781E0,2.675299883E0,2.216799974E0,-2.702899933E0,4.401942712E0
3.640117781E0,2.670500040E0,2.294199944E0,-2.329099894E0,4.221330378E0
3.650117781E0,3.447299957E0,2.088999987E0,-2.442299843E0,4.713027314E0
3.660117781E0,4.280299664E0,1.745999932E0,-3.089099884E0,5.559857828E0
3.670117781E0,4.092499733E0,1.036899924E0,-2.759599924E0,5.043719586E0
3.680117781E0,3.881099939E0,4.869000018E-1,-1.100499988E0,4.063386343E0
3.690117781E0,3.254999876E0,3.359999880E-2,-4.079999775E-2,3.255428972E0
3.700117781E0,2.020099878E0,-6.899999976E-1,3.402999938E-1,2.161644652E0
3.710117781E0,1.652199984E0,-1.601999998E0,1.180699944E0,2.586546179E0
3.720117781E0,1.072299957E0,-2.280799866E0,1.529699922E0,2.948195563E0
3.730117781E0,2.294999957E-1,-2.444000006E0,1.579999924E0,2.919281767E0
3.740117781E0,-2.680999935E-1,-2.799599886E0,1.563300014E0,3.217692350E0
3.750117781E0,-3.504999876E-1,-3.258999825E0,1.369699955E0,3.552465069E0
3.760117781E0,-4.769999981E-1,-3.645499945E0,1.420300007E0,3.941376784E0
3.770117781E0,-6.678999662E-1,-3.823799849E0,1.181699991E0,4.057579391E0
3.780117781E0,-7.942000031E-1,-3.900699854E0,1.279399991E0,4.181276998E0
3.790117781E0,-3.770999908E-1,-3.593899965E0,1.869099975E0,4.068397237E0
3.800117781E0,-6.768999696E-1,-3.741799831E0,2.399899960E0,4.496529702E0
3.810117781E0,-3.987999856E-1,-3.439199924E0,2.575700045E0,4.315248344E0
3.820117781E0,-7.087000012E-1,-3.224099874E0,2.848999977E0,4.360490404E0
3.830117781E0,-5.056999922E-1,-2.779399872E0,2.907199860E0,4.053715228E0
3.840117781E0,-4.958999753E-1,-2.192999840E0,2.916499853E0,3.682544837E0
3.850117781E0,-7.682999969E-1,-1.711199999E0,2.856299877E0,3.417153685E0
3.860117781E0,-8.424999714E-1,-1.137199998E0,2.537199974E0,2.905239017E0
3.870117781E0,-1.286999941E0,-7.070999742E-1,2.444900036E0,2.851998493E0
3.880117781E0,-1.620199919E0,-2.624999881E-1,2.334300041E0,2.853578578E0
3.890117781E0,-1.861599922E0,1.871999949E-1,2.154500008E0,2.853501076E0
3.900117781E0,-2.061199903E0,5.528999567E-1,2.031800032E0,2.946600545E0
3.910117781E0,-2.347399950E0,8.524999619E-1,1.975799918E0,3.184466679E0
3.920117781E0,-2.543999910E0,1.046599984E0,1.956599951E0,3.375735540E0
3.930117781E0,-2.670899868E0,1.144899964E0,1.932899952E0,3.490072242E0
3.940117781E0,-2.816900015E0,1.147199988E0,1.931599975E0,3.603064247E0
3.950117781E0,-2.785899878E0,1.132200003E0,1.872099996E0,3.542297752E0
3.960117781E0,-2.647199869E0,1.040699959E0,1.781799912E0,3.356416911E0
3.970117781E0,-2.499599934E0,9.104999900E-1,1.679199934E0,3.145905669E0
3.980117781E0,-2.402699947E0,7.993999720E-1,1.554499984E0,2.971275408E0
3.990117781E0,-2.376600027E0,7.263000011E-1,1.396899939E0,2.850801434E0
4.000117781E0,-2.371700048E0,7.008000016E-1,1.178399920E0,2.739472237E0
4.010117781E0,-2.289199829E0,7.330999970E-1,9.799999595E-1,2.595818057E0
4.020117781E0,-2.236700058E0,7.245999575E-1,7.558000088E-1,2.469636795E0
4.030117781E0,-2.066999912E0,7.434999943E-1,5.871999860E-1,2.273782026E0
4.040117781E0,-1.858599901E0,7.010999918E-1,4.183000028E-1,2.030002385E0
4.050117781E0,-1.621399999E0,6.067999601E-1,2.421999872E-1,1.748086091E0
4.060117781E0,-1.374599934E0,5.493999720E-1,1.206000000E-1,1.485230510E0
4.070117781E0,-1.147699952E0,5.291000009E-1,6.000000052E-3,1.263802987E0
4.080117781E0,-1.019400001E0,6.046000123E-1,-7.019999623E-2,1.187284960E0
4.090117781E0,-9.994999766E-1,6.976999640E-1,-1.466999948E-1,1.227724045E0
4.100117781E0,-9.215999842E-1,7.694000006E-1,-1.515000015E-1,1.210072371E0
4.110117781E0,-7.154999971E-1,7.823999524E-1,-1.063999981E-1,1.065556611E0
4.120117781E0,-3.964000046E-1,7.231999636E-1,-6.589999795E-2,8.273415019E-1
4.130117781E0,4.219999909E-2,5.850999951E-1,2.569999918E-2,5.871825391E-1
4.140117781E0,5.457999706E-1,4.248999953E-1,1.595000029E-1,7.098435496E-1
4.150117781E0,1.108899951E0,2.850999832E-1,1.838999987E-1,1.159638009E0
4.160117781E0,1.858999968E0,1.262999922E-1,-2.500999868E-1,1.879995365E0
4.170127156E0,2.854499817E0,1.731999964E-1,-9.549999833E-1,3.014994596E0
4.180117781E0,4.399600029E0,5.830000043E-1,-2.257200003E0,4.979088398E0
4.190117781E0,5.904099941E0,1.165400028E0,-6.034399986E0,8.522355105E0
4.200117781E0,6.079799652E0,3.434999883E-1,-8.202699661E0,1.021597953E1
4.210117781E0,4.984999657E0,-8.529999852E-1,-6.226299763E0,8.021511035E0
4.220117781E0,4.261799812E0,-7.882999778E-1,-5.230599880E0,6.792902885E0
4.230117781E0,3.894099951E0,-2.899999917E-1,-5.029799938E0,6.367652773E0
4.240117781E0,3.820899963E0,1.216999963E-1,-5.146199703E0,6.410729974E0
4.250117781E0,3.989899874E0,1.414999962E-1,-5.220399857E0,6.572054315E0
4.260117781E0,4.331299782E0,-1.130999997E-1,-5.104300022E0,6.695284021E0
4.270117781E0,4.442999840E0,-4.751999974E-1,-4.555299759E0,6.380973163E0
4.280117781E0,3.961899996E0,-5.823000073E-1,-3.377399921E0,5.238564222E0
4.290117781E0,3.025399923E0,-3.461999893E-1,-2.286200047E0,3.807835314E0
4.300117781E0,2.026499987E0,-4.169999808E-2,-1.499899983E0,2.521535454E0
4.310117781E0,1.102699995E0,1.727000028E-1,-8.346999884E-1,1.393734781E0
4.320117781E0,3.827999830E-1,3.161000013E-1,-2.122000009E-1,5.398924691E-1
4.330117781E0,-7.299999893E-2,3.581999838E-1,2.953999937E-1,4.699972176E-1
4.340117781E0,-2.058999985E-1,2.094999999E-1,6.243999600E-1,6.900437446E-1
4.350117781E0,-9.459999949E-2,-2.581000030E-1,8.028999567E-1,8.486537055E-1
4.360117781E0,2.011999935E-1,-9.763999581E-1,8.728999496E-1,1.325063258E0
4.370117781E0,6.825999618E-1,-1.757200003E0,8.314999938E-1,2.060360841E0
4.380117781E0,9.279999733E-1,-2.521499872E0,5.515999794E-1,2.742883172E0
4.390117781E0,1.095099926E0,-3.140399933E0,-2.850000001E-2,3.325983740E0
4.400117781E0,9.680999517E-1,-3.426999807E0,-5.597999692E-1,3.604846904E0
4.410117781E0,-2.799999900E-3,-4.047800064E0,-5.909000039E-1,4.090703609E0
4.420117781E0,-8.835999966E-1,-4.321599960E0,-1.236500025E0,4.581037817E0
4.430117781E0,-1.847700000E0,-4.272099972E0,-1.673799992E0,4.946356222E0
4.440117781E0,-2.719399929E0,-4.027100086E0,-1.355199933E0,5.044723772E0
4.450117781E0,-3.309399843E0,-3.526599884E0,-4.726999998E-1,4.859267368E0
4.460117781E0,-3.338899851E0,-2.455699921E0,4.068000019E-1,4.164636906E0
4.470117781E0,-3.347199917E0,-1.328199983E0,9.455999732E-1,3.723173618E0
4.480117781E0,-3.661799908E0,-8.560000062E-1,1.336099982E0,3.990824193E0
4.490117781E0,-3.785199881E0,-3.930999935E-1,1.509799957E0,4.094113048E0
4.500117781E0,-4.014400005E0,-1.750999987E-1,1.652499914E0,4.344746641E0
4.510117781E0,-4.027699947E0,3.469999880E-2,1.659199953E0,4.356204247E0
4.520117781E0,-4.013499737E0,1.485999972E-1,1.526399970E0,4.296528711E0
4.530117781E0,-3.875399828E0,2.049999982E-1,1.393800020E0,4.123521229E0
4.540117781E0,-3.682399988E0,3.604999781E-1,1.001699924E0,3.833201357E0
4.550117781E0,-3.443199873E0,4.675999880E-1,4.991999865E-1,3.510480842E0
4.560117781E0,-3.018699884E0,6.334999800E-1,-3.999999911E-2,3.084715743E0
4.570117781E0,-2.780499935E0,7.391999960E-1,-3.768000007E-1,2.901650352E0
4.580117781E0,-2.678900003E0,7.149999738E-1,-4.417999983E-1,2.807653367E0
4.590117781E0,-2.114599943E0,8.068000078E-1,-3.407000005E-1,2.288784757E0
4.600117781E0,-1.687199950E0,9.047999978E-1,1.028999984E-1,1.917262402E0
4.610117781E0,-1.713699937E0,1.035699964E0,6.441000104E-1,2.103403602E0
4.620117781E0,-2.153199911E0,1.062299967E0,8.896999955E-1,2.560530640E0
4.630117781E0,-2.679899931E0,1.059599996E0,1.072899938E0,3.075017084E0
4.640117781E0,-2.833999872E0,9.290999770E-1,1.444199920E0,3.313683064E0
4.650117781E0,-2.372299910E0,6.933000088E-1,1.901099920E0,3.118116847E0
4.660117781E0,-1.641199946E0,4.680999815E-1,1.905499935E0,2.558043170E0
4.670117781E0,-1.065199971E0,3.574999869E-1,1.701399922E0,2.038925922E0
4.680117781E0,-7.619000077E-1,2.125999928E-1,1.293599963E0,1.516275451E0
4.690117781E0,-6.205999851E-1,1.515000015E-1,8.481999636E-1,1.061856756E0
4.700117781E0,-6.279000044E-1,-1.040000003E-2,4.162999988E-1,7.534402859E-1
4.710117781E0,-5.044999719E-1,-1.024999991E-1,-9.899999946E-3,5.149023999E-1
4.720117781E0,2.749999985E-2,-2.194999903E-1,-6.064000130E-1,6.454901018E-1
4.730117781E0,7.329999804E-1,-3.907999992E-1,-1.091199994E0,1.371397476E0
4.740117781E0,1.718499899E0,-5.794999599E-1,-1.583599925E0,2.407665016E0
4.750117781E0,2.834899902E0,-7.782999873E-1,-2.373199940E0,3.778159113E0
4.760117781E0,4.955199718E0,-3.109000027E-1,-5.419300079E0,7.349794311E0
4.770117781E0,6.375099659E0,2.416999936E-1,-8.703700066E0,1.079141832E1
4.780117781E0,5.658999920E0,6.912999749E-1,-6.368099689E0,8.547214131E0
4.790117781E0,5.269799709E0,1.857599974E0,-5.052899837E0,7.533476183E0
4.800117781E0,5.204199791E0,3.012799978E0,-5.271599770E0,7.996900856E0
4.810117781E0,3.913599968E0,3.414899826E0,-4.627299786E0,6.956271188E0
4.820117781E0,3.612099886E0,3.604699850E0,-3.887499809E0,6.415121305E0
4.830117781E0,4.385600090E0,3.387799978E0,-3.165699959E0,6.382188737E0
4.840117781E0,3.533399820E0,2.337499857E0,-2.701999903E0,5.024900332E0
4.850117781E0,2.720599890E0,1.134699941E0,-1.565199971E0,3.337522834E0
4.860117781E0,3.202099800E0,1.331999898E-1,-1.299999934E-2,3.204895375E0
4.870117781E0,3.220199823E0,-9.889999628E-1,6.574000120E-1,3.432197926E0
4.880117781E0,2.332200050E0,-1.938899994E0,9.908999801E-1,3.190669684E0
4.890117781E0,1.022199988E0,-1.763700008E0,1.241299987E0,2.386704044E0
4.900117781E0,2.779999934E-2,-1.464800000E0,1.436999917E0,2.052164867E0
4.910117781E0,-2.476999909E-1,-1.485099912E0,1.675099969E0,2.252295926E0
4.920117781E0,-1.059999969E-2,-2.081099987E0,1.801099896E0,2.752280936E0
4.930117781E0,6.779999733E-1,-2.529399872E0,1.664299965E0,3.102811958E0
4.940117781E0,1.012799978E0,-3.020099878E0,1.740000010E0,3.629651100E0
4.950117781E0,1.189299941E0,-3.261099815E0,1.640699983E0,3.839414381E0
4.960117781E0,8.064999580E-1,-3.487099886E0,1.578099966E0,3.911611854E0
4.970117781E0,5.335999727E-1,-3.185999870E0,1.667400002E0,3.635319363E0
4.980117781E0,-3.349999785E-1,-3.111999989E0,1.737100005E0,3.579704645E0
4.990117781E0,-4.611999989E-1,-2.600899935E0,1.750000000E0,3.168577900E0
5.000117781E0,-7.782999873E-1,-2.380800009E0,1.946199894E0,3.172010968E0
5.010117781E0,-9.521999955E-1,-2.145999908E0,2.157999992E0,3.188881372E0
5.020117781E0,-1.081300020E0,-1.827600002E0,2.291899920E0,3.124441829E0
5.030117781E0,-1.274099946E0,-1.288100004E0,2.273799896E0,2.907352449E0
5.040117781E0,-1.836499929E0,-8.439999819E-1,2.294100046E0,3.057443864E0
5.050117781E0,-2.229599953E0,-3.667999804E-1,2.197099924E0,3.151651353E0
5.060117781E0,-2.610399961E0,1.240999997E-1,2.117699862E0,3.363664887E0
5.070117781E0,-2.969499826E0,5.403000116E-1,2.033799887E0,3.639532292E0
5.080117781E0,-3.287799835E0,8.519999981E-1,2.002300024E0,3.942681466E0
5.090117781E0,-3.487099886E0,1.000299931E0,2.002099991E0,4.143533509E0
5.100117781E0,-3.607199907E0,1.063499928E0,2.000900030E0,4.259873730E0
5.110117781E0,-3.599799871E0,1.011500001E0,1.919399977E0,4.203068836E0
5.120117781E0,-3.467399836E0,9.241999984E-1,1.810899973E0,4.019498224E0
5.130117781E0,-3.299899817E0,6.876999736E-1,1.707799911E0,3.778736639E0
5.140117781E0,-3.085899830E0,4.943999946E-1,1.576299906E0,3.500275776E0
5.150117781E0,-2.792999983E0,3.224999905E-1,1.417699933E0,3.148766147E0
5.160117781E0,-2.548599958E0,2.004999965E-1,1.264400005E0,2.852064054E0
5.170127156E0,-2.332900047E0,1.574999988E-1,1.158999920E0,2.609695326E0
5.180117781E0,-2.205199957E0,1.140999943E-1,1.034899950E0,2.438635595E0
5.190117781E0,-2.116299868E0,1.289999932E-1,9.335999489E-1,2.316673260E0
5.200117781E0,-1.997099996E0,1.438999921E-1,8.759999871E-1,2.185518606E0
5.210117781E0,-1.886999965E0,1.782999933E-1,8.330000043E-1,2.070374063E0
5.220117781E0,-1.707499981E0,2.223999947E-1,8.335999846E-1,1.913088309E0
5.230117781E0,-1.508000016E0,2.858999968E-1,8.082999587E-1,1.734690658E0
5.240117781E0,-1.396799922E0,3.975999951E-1,7.853999734E-1,1.651056903E0
5.250117781E0,-1.305499911E0,5.180999637E-1,7.552999854E-1,1.594752538E0
5.260117781E0,-1.312399983E0,6.575999856E-1,7.957999706E-1,1.669769161E0
5.270117781E0,-1.240599990E0,7.184000015E-1,8.276999593E-1,1.655377335E0
5.280117781E0,-9.911999702E-1,7.214999795E-1,8.888999820E-1,1.514325850E0
5.290117781E0,-5.349000096E-1,6.571999788E-1,9.674999714E-1,1.286112758E0
5.300117781E0,9.699999355E-3,4.851000011E-1,1.002399921E0,1.113652416E0
5.310117781E0,6.909999847E-1,2.436999977E-1,1.010900021E0,1.248514926E0
5.320117781E0,1.360799909E0,-6.790000200E-2,9.905999899E-1,1.684540039E0
5.330117781E0,2.136499882E0,-4.309999943E-1,9.501999617E-1,2.377661184E0
5.340117781E0,2.831899881E0,-7.766999602E-1,8.793999553E-1,3.065332616E0
5.350117781E0,3.476799965E0,-1.124400020E0,8.272999525E-1,3.746576919E0
5.360117781E0,4.003600121E0,-1.277099967E0,6.855999827E-1,4.257915639E0
5.370117781E0,4.245699883E0,-1.264299989E0,4.928999841E-1,4.457283068E0
5.380117781E0,4.282299995E0,-1.036899924E0,2.488999963E-1,4.413072163E0
5.390117781E0,4.378499985E0,2.777999938E-1,-7.843999863E-1,4.456873152E0
5.400117781E0,5.045099735E0,2.021499872E0,-5.329199791E0,7.611823926E0
5.410117781E0,7.148399830E0,4.787600040E0,-3.002429962E1,3.123266402E1
5.420117781E0,7.807699680E0,4.199999809E0,-2.965110016E1,3.094814879E1
5.430117781E0,5.919699669E0,6.155999899E-1,-7.175299644E0,9.322378050E0
5.440117781E0,6.300499916E0,-6.847999692E-1,-1.522699952E0,6.517964815E0
5.450117781E0,5.126699924E0,-7.884999514E-1,-7.389999628E-1,5.239361147E0
5.460117781E0,3.071499825E0,-1.074000001E-1,-2.795000076E-1,3.086059978E0
5.470117781E0,1.308599949E0,6.808999777E-1,-6.030000001E-2,1.476378913E0
5.480117781E0,3.515999913E-1,1.020300031E0,2.920999825E-1,1.118014806E0
5.490117781E0,-1.328999996E-1,1.036899924E0,5.782999992E-1,1.194677677E0
5.500117781E0,-6.679999828E-2,7.788999677E-1,7.947999835E-1,1.114833805E0
5.510117781E0,2.449999899E-1,1.665999889E-1,9.113000035E-1,9.582527056E-1
5.520117781E0,7.917000055E-1,-7.422999740E-1,8.912000060E-1,1.404291850E0
5.530117781E0,1.505100012E0,-1.534799933E0,6.933999658E-1,2.258703255E0
5.540117781E0,2.110599995E0,-2.083600044E0,4.953999817E-1,3.006899171E0
5.550117781E0,2.165099859E0,-2.293299913E0,1.697999984E-1,3.158435361E0
5.560117781E0,1.893700004E0,-2.243499994E0,-1.885999888E-1,2.941931659E0
5.570117781E0,1.226400018E0,-2.210599899E0,-4.667999744E-1,2.570741359E0
5.580117781E0,3.683999777E-1,-2.419999838E0,-4.351999760E-1,2.486265629E0
5.590117781E0,-9.044999480E-1,-3.428499937E0,-1.749999970E-1,3.550120698E0
5.600117781E0,-2.108500004E0,-4.435899734E0,-2.696000040E-1,4.918908709E0
5.610117781E0,-2.423399925E0,-4.539499760E0,-3.041999936E-1,5.154848485E0
5.620117781E0,-2.821099997E0,-3.868999958E0,-3.109999895E-1,4.798383776E0
5.630117781E0,-3.943199873E0,-3.197499990E0,-4.810999930E-1,5.099440031E0
5.640117781E0,-5.228799820E0,-3.204299927E0,-1.803999990E-1,6.135179683E0
5.650117781E0,-5.513099670E0,-3.115999937E0,-1.827999949E-1,6.335387867E0
5.660117781E0,-4.464200020E0,-1.679899931E0,-9.699999355E-3,4.769825960E0
5.670117781E0,-4.116499901E0,-4.584999979E-1,4.066999853E-1,4.161874405E0
5.680117781E0,-4.228300095E0,1.833999902E-1,9.562000036E-1,4.338948685E0
5.690117781E0,-4.310299873E0,5.569999814E-1,1.515900016E0,4.602921554E0
5.700117781E0,-4.474800110E0,4.948999882E-1,2.132599831E0,4.981640700E0
5.710117781E0,-4.433799744E0,3.407999873E-1,2.551300049E0,5.126778398E0
5.720117781E0,-4.409299850E0,1.827999949E-1,2.773399830E0,5.212205639E0
5.730117781E0,-4.268300056E0,1.397999972E-1,2.784899950E0,5.098391623E0
5.740117781E0,-4.186999798E0,2.799999900E-2,2.600800037E0,4.929088368E0
5.750117781E0,-3.701399803E0,5.669999868E-2,2.091899872E0,4.252013695E0
5.760117781E0,-3.013700008E0,1.391000003E-1,1.517499924E0,3.377061233E0
5.770117781E0,-2.446099997E0,2.525999844E-1,9.523999691E-1,2.637096442E0
5.780117781E0,-2.125299931E0,4.529999793E-1,5.285999775E-1,2.236409335E0
5.790117781E0,-1.834599972E0,5.916999578E-1,1.985999942E-1,1.937861671E0
5.800117781E0,-1.759199977E0,5.903999805E-1,1.829999872E-2,1.855718617E0
5.810117781E0,-1.751299977E0,5.083999634E-1,7.869999856E-2,1.825298831E0
5.820117781E0,-1.653999925E0,4.547999799E-1,3.264999986E-1,1.746184704E0
5.830117781E0,-1.420300007E0,4.190999866E-1,5.764999986E-1,1.589103255E0
5.840117781E0,-1.112200022E0,4.093999863E-1,7.099999785E-1,1.381556082E0
5.850117781E0,-9.287999868E-1,3.844999969E-1,6.406999826E-1,1.192059617E0
5.860117781E0,-6.543999910E-1,3.542999923E-1,2.374999970E-1,7.811364038E-1
5.870117781E0,-3.261999786E-1,2.513000071E-1,-3.766999841E-1,5.580869086E-1
5.880117781E0,1.667999923E-1,5.749999732E-2,-8.680999875E-1,8.858476593E-1
5.890117781E0,1.132399917E0,-1.064999998E-1,-1.323899984E0,1.745389065E0
5.900117781E0,2.502899885E0,-2.204999924E-1,-2.083400011E0,3.263998114E0
5.910117781E0,4.069499969E0,-2.978000045E-1,-3.279699802E0,5.235068828E0
5.920117781E0,5.790099621E0,4.030000046E-2,-6.843999863E0,8.964776173E0
5.930117781E0,7.684000015E0,1.114300013E0,-1.360389996E1,1.566370374E1
5.940117781E0,6.031499863E0,1.213999987E0,-1.094339943E1,1.255431311E1
5.950117781E0,5.168799877E0,1.991299987E0,-7.473099709E0,9.302095842E0
5.960117781E0,4.686199665E0,2.608500004E0,-5.564599991E0,7.728487085E0
5.970117781E0,3.881799936E0,2.450899839E0,-3.496799946E0,5.770865674E0
5.980117781E0,3.092299938E0,1.946799994E0,-2.176599979E0,4.253226610E0
5.990117781E0,3.017799854E0,1.156599998E0,-2.073099852E0,3.839607078E0
6.000117781E0,3.655799866E0,1.697999984E-1,-1.977199912E0,4.159690396E0
6.010117781E0,3.627499819E0,-1.073599935E0,-1.343299985E0,4.014452217E0
6.020117781E0,3.082899809E0,-2.062299967E0,-2.219000012E-1,3.715722271E0
6.030117781E0,2.503999949E0,-2.085399866E0,7.195999622E-1,3.337174321E0
6.040117781E0,1.278800011E0,-1.507300019E0,1.684099913E0,2.596820235E0
6.050117781E0,2.287999988E-1,-9.657999873E-1,2.356799841E0,2.557268962E0
6.060117781E0,-1.561999917E-1,-9.595999718E-1,2.591599941E0,2.767963294E0
6.070117781E0,4.479999840E-2,-1.194399953E0,2.493299961E0,2.764985169E0
6.080117781E0,5.177000165E-1,-1.760399938E0,2.396199942E0,3.018078098E0
6.090117781E0,7.526999712E-1,-2.522099972E0,2.225299835E0,3.446665761E0
6.100117781E0,1.271099925E0,-2.763999939E0,1.917499900E0,3.596136336E0
6.110117781E0,1.337499976E0,-2.802899837E0,1.708400011E0,3.544542888E0
6.120117781E0,7.924999595E-1,-2.915999889E0,1.483500004E0,3.366286352E0
6.130117781E0,3.723999858E-1,-2.706499815E0,1.357199907E0,3.050543326E0
6.140117781E0,-1.738999933E-1,-2.566799879E0,1.417999983E0,2.937588599E0
6.150117781E0,-5.000000000E-1,-2.327399969E0,1.537599921E0,2.833902633E0
6.160117781E0,-9.391999841E-1,-2.095000029E0,1.612900019E0,2.805809723E0
6.170125594E0,-1.335600019E0,-1.703699946E0,1.722000003E0,2.766171529E0
6.180117781E0,-1.826200008E0,-1.299399972E0,1.939999938E0,2.964295282E0
6.190117781E0,-2.223799944E0,-8.120999932E-1,2.085099936E0,3.154747903E0
6.200117781E0,-2.734099865E0,-4.763999879E-1,2.238399982E0,3.565486433E0
6.210117781E0,-3.151000023E0,-2.134999931E-1,2.568899870E0,4.071072332E0
6.220117781E0,-3.160799980E0,1.929999888E-1,2.645900011E0,4.126583621E0
6.230117781E0,-3.363799810E0,4.472999871E-1,2.794999838E0,4.396276895E0
6.240117781E0,-3.290299892E0,7.445999980E-1,2.657399893E0,4.294447197E0
6.250117781E0,-3.362999916E0,8.980999589E-1,2.397799969E0,4.226795082E0
6.260117781E0,-3.464299917E0,1.034999967E0,2.420199871E0,4.350858107E0
6.270117781E0,-3.594599962E0,9.783999920E-1,2.419699907E0,4.442225014E0
6.280117781E0,-3.508399963E0,9.063999653E-1,2.391599894E0,4.341679543E0
6.290117781E0,-3.373199940E0,7.299999595E-1,2.343299866E0,4.171622231E0
6.300117781E0,-3.179600000E0,4.970999956E-1,2.089299917E0,3.836943929E0
6.310117781E0,-2.887499809E0,3.646999896E-1,1.722399950E0,3.381911119E0
6.320117781E0,-2.623800039E0,3.222000003E-1,1.398899913E0,2.990829392E0
6.330117781E0,-2.554699898E0,2.707999945E-1,1.155900002E0,2.817078099E0
6.340117781E0,-2.493099928E0,2.699999809E-1,1.037299991E0,2.713749898E0
6.350117781E0,-2.409800053E0,2.805999815E-1,9.536999464E-1,2.606801916E0
6.360117781E0,-2.127799988E0,3.524000049E-1,8.646000028E-1,2.323628997E0
6.370117781E0,-1.785099983E0,3.862999976E-1,7.985999584E-1,1.993381933E0
6.380117781E0,-1.431999922E0,4.201999903E-1,7.551999688E-1,1.672578489E0
6.390117781E0,-1.098399997E0,5.414999723E-1,7.146999836E-1,1.417921309E0
6.400117781E0,-9.124999642E-1,6.316999793E-1,6.970999837E-1,1.310591254E0
6.410117781E0,-7.858999968E-1,7.497999668E-1,7.127999663E-1,1.299200749E0
6.420117781E0,-4.632999897E-1,8.082000017E-1,7.998999953E-1,1.227873823E0
6.430117781E0,-3.499999875E-3,7.286999822E-1,8.790999651E-1,1.141854922E0
6.440117781E0,5.342000127E-1,5.597999692E-1,1.006199956E0,1.269324234E0
6.450117781E0,1.080600023E0,3.598999977E-1,1.070099950E0,1.562798234E0
6.460117781E0,1.595499992E0,1.477999985E-1,1.066399932E0,1.924752940E0
6.470117781E0,2.108399868E0,-4.699999839E-2,1.061499953E0,2.361004268E0
6.480117781E0,2.707499981E0,-3.229999840E-1,9.944999814E-1,2.902398207E0
6.490117781E0,3.421999931E0,-6.215999722E-1,8.928999901E-1,3.590785492E0
6.500117781E0,3.957299948E0,-8.946999907E-1,7.166999578E-1,4.119996332E0
6.510117781E0,4.225199699E0,-1.005699992E0,4.553000033E-1,4.367040539E0
6.520117781E0,4.226399899E0,-9.052999616E-1,1.300999969E-1,4.324228270E0
6.530117781E0,4.030299664E0,-4.266999960E-1,-1.188099980E0,4.223383694E0
6.540117781E0,3.951499939E0,1.312799931E0,-4.077799797E0,5.828056847E0
6.550117781E0,6.219500065E0,3.921899796E0,-2.108079910E1,2.232629772E1
6.560117781E0,8.969699860E0,3.835299969E0,-3.897760010E1,4.017982517E1
6.570117781E0,6.710399628E0,4.958999753E-1,-1.089009953E1,1.280115806E1
6.580117781E0,4.856699944E0,-1.110700011E0,-2.261399984E0,5.471299548E0
6.590117781E0,4.560100079E0,-7.726999521E-1,-1.625000000E0,4.902265083E0
6.600117781E0,3.013700008E0,-1.929999888E-1,-1.101300001E0,3.214420388E0
6.610117781E0,1.164099932E0,2.922999859E-1,-7.364000082E-1,1.408138099E0
6.620117781E0,3.779000044E-1,4.126999974E-1,-1.410000026E-1,5.770707946E-1
6.630117781E0,2.630999982E-1,2.899000049E-1,3.556999862E-1,5.289481091E-1
6.640117781E0,3.535999954E-1,-1.383000016E-1,7.628999949E-1,8.521597557E-1
6.650117781E0,6.890999675E-1,-7.075999975E-1,1.011600018E0,1.413821459E0
6.660117781E0,1.180699944E0,-1.398399949E0,1.178300023E0,2.176686868E0
6.670117781E0,1.483899951E0,-2.015300035E0,1.197799921E0,2.774548242E0
6.680117781E0,1.716399908E0,-2.616799831E0,1.090600014E0,3.314072780E0
6.690117781E0,1.622999907E0,-2.987399817E0,9.280999899E-1,3.524209976E0
6.700117781E0,1.136099935E0,-3.322700024E0,6.985999942E-1,3.580377139E0
6.710117781E0,2.019999921E-2,-3.858399868E0,5.008999705E-1,3.890830035E0
6.720117781E0,-7.401999831E-1,-4.206599712E0,2.049999870E-2,4.271275852E0
6.730117781E0,-1.732199907E0,-4.470900059E0,1.137999967E-1,4.796083224E0
6.740117781E0,-2.406499863E0,-4.315599918E0,7.580000162E-2,4.941800268E0
6.750117781E0,-3.538599968E0,-4.044600010E0,-1.674999893E-1,5.376665809E0
6.760117781E0,-4.912499905E0,-4.176700115E0,1.691000015E-1,6.450277046E0
6.770117781E0,-5.472199917E0,-3.987499952E0,1.279999912E-1,6.772112802E0
6.780117781E0,-4.769399643E0,-2.440199852E0,9.690000117E-2,5.358277511E0
6.790117781E0,-4.415800095E0,-1.036100030E0,5.756999850E-1,4.572113758E0
6.800117781E0,-4.444299698E0,6.619999558E-2,1.130499959E0,4.586307055E0
6.810117781E0,-4.563199997E0,6.261999607E-1,1.562699914E0,4.863841242E0
6.820117781E0,-4.725999832E0,7.805999517E-1,2.024699926E0,5.200367342E0
6.830117781E0,-4.749899864E0,6.090999842E-1,2.399600029E0,5.356363674E0
6.840117781E0,-4.598400116E0,3.889999986E-1,2.568699837E0,5.281555024E0
6.850117781E0,-4.254600048E0,2.003999949E-1,2.647199869E0,5.014922619E0
6.860117781E0,-3.878099918E0,8.159999549E-2,2.518299818E0,4.624732588E0
6.870117781E0,-3.597299814E0,1.269999985E-2,2.068399906E0,4.149578944E0
6.880117781E0,-3.243700027E0,-7.499999553E-2,1.623799920E0,3.628214581E0
6.890117781E0,-2.697199821E0,4.329999909E-2,1.207999945E0,2.955676849E0
6.900117781E0,-2.369299889E0,1.695999950E-1,7.835999727E-1,2.501274683E0
6.910117781E0,-2.003700018E0,3.222999871E-1,2.436999977E-1,2.044035404E0
6.920117781E0,-1.696799994E0,4.425999820E-1,-1.950999945E-1,1.764394789E0
6.930117781E0,-1.486699939E0,4.619999826E-1,-2.996000051E-1,1.585396119E0
6.940117781E0,-1.422799945E0,3.015999794E-1,-1.102999970E-1,1.458591211E0
6.950117781E0,-1.418200016E0,5.959999934E-2,2.955999970E-1,1.449904412E0
6.960117781E0,-1.366799951E0,-1.062999964E-1,6.503999829E-1,1.517386547E0
6.970117781E0,-1.201399922E0,-1.366999894E-1,7.861999869E-1,1.442275660E0
6.980117781E0,-9.624999762E-1,-2.099999972E-2,5.654000044E-1,1.116478557E0
6.990117781E0,-6.696999669E-1,8.389999717E-2,1.823000014E-1,6.991212668E-1
7.000117781E0,-2.434999943E-1,1.877999902E-1,-4.849999845E-1,5.742700310E-1
7.010117781E0,1.115999967E-1,2.017000020E-1,-1.160599947E0,1.183270758E0
7.020117781E0,5.945999622E-1,1.256999969E-1,-1.770799994E0,1.872186482E0
7.030117781E0,1.217100024E0,-1.989999972E-2,-1.854299903E0,2.218142603E0
7.040117781E0,1.949499965E0,-1.659999937E-1,-1.842599988E0,2.687616198E0
7.050117781E0,3.457999945E0,-6.610000134E-2,-2.709499836E0,4.393577379E0
7.060117781E0,7.084099770E0,1.201099992E0,-9.997699738E0,1.231182808E1
7.070117781E0,8.127499580E0,1.610899925E0,-1.566819954E1,1.772410011E1
7.080117781E0,4.060800076E0,1.204999924E0,-8.161799431E0,9.195493028E0
7.090117781E0,3.545799971E0,2.238499880E0,-4.399300098E0,6.077616350E0
7.100117781E0,3.983699799E0,3.134199858E0,-4.455800056E0,6.748868570E0
7.110117781E0,3.671099901E0,3.357999802E0,-3.872200012E0,6.304527745E0
7.120117781E0,2.635299921E0,2.990200043E0,-2.490200043E0,4.699701929E0
7.130117781E0,3.137199879E0,2.596099854E0,-9.649999738E-1,4.184851548E0
7.140117781E0,3.193699837E0,1.566999912E0,-3.159999847E-1,3.571423156E0
7.150117781E0,2.928299904E0,5.260999799E-1,3.150000051E-2,2.975351032E0
7.160117781E0,3.348299980E0,-2.845000029E-1,5.074999928E-1,3.398471605E0
7.170127156E0,3.061800003E0,-1.032199979E0,1.065899968E0,3.402381342E0
7.180117781E0,1.597999930E0,-1.403499961E0,1.275599957E0,2.480034509E0
7.190117781E0,7.048999667E-1,-1.190199971E0,1.492599964E0,2.035022012E0
7.200117781E0,4.411000013E-1,-1.287299991E0,2.007299900E0,2.425069765E0
7.210117781E0,9.512999654E-1,-1.873899937E0,2.375599861E0,3.171741997E0
7.220117781E0,1.663899899E0,-2.755599976E0,2.460700035E0,4.051782171E0
7.230117781E0,2.086799860E0,-3.659899950E0,2.346199989E0,4.822266655E0
7.240117781E0,1.986599922E0,-4.056399822E0,2.229199886E0,5.036892981E0
7.250117781E0,1.424999952E0,-3.964499950E0,1.963699937E0,4.648010560E0
7.260117781E0,9.843999743E-1,-3.245100021E0,1.583299994E0,3.742533411E0
7.270117781E0,-3.243999779E-1,-3.065399885E0,1.699699998E0,3.520069869E0
7.280117781E0,-4.894999862E-1,-2.530299902E0,1.574800014E0,3.020268683E0
7.290117781E0,-8.743000031E-1,-2.306799889E0,1.656599998E0,2.971539967E0
7.300117781E0,-1.166299939E0,-2.130599976E0,1.789499998E0,3.016955758E0
7.310117781E0,-1.571399927E0,-1.961399913E0,1.931499958E0,3.169712832E0
7.320117781E0,-1.667799950E0,-1.533499956E0,1.881999969E0,2.945352725E0
7.330117781E0,-2.368199825E0,-1.200500011E0,2.197700024E0,3.446658684E0
7.340117781E0,-2.593299866E0,-7.447999716E-1,2.073400021E0,3.402781044E0
7.350117781E0,-2.784899950E0,-1.759999990E-1,2.040899992E0,3.457154395E0
7.360117781E0,-2.993299961E0,2.497999966E-1,1.939000010E0,3.575187511E0
7.370117781E0,-3.209599972E0,6.000999808E-1,1.852499962E0,3.754118815E0
7.380117781E0,-3.434499979E0,7.173999548E-1,1.869099975E0,3.975422936E0
7.390117781E0,-3.618899822E0,6.708999872E-1,1.986699939E0,4.182525477E0
7.400117781E0,-3.703599930E0,6.090999842E-1,2.083299875E0,4.292760604E0
7.410117781E0,-3.639699936E0,5.514999628E-1,1.950699925E0,4.166149065E0
7.420117781E0,-3.427500010E0,5.178999901E-1,1.873099923E0,3.940111678E0
7.430117781E0,-3.282799959E0,4.285999835E-1,1.716799974E0,3.729326437E0
7.440117781E0,-3.137300014E0,3.610000014E-1,1.552500010E0,3.518981197E0
7.450117781E0,-2.932099819E0,3.836999834E-1,1.372099996E0,3.259922303E0
7.460117781E0,-2.863799810E0,3.283999860E-1,1.257300019E0,3.144836918E0
7.470117781E0,-2.696399927E0,3.037000000E-1,1.180899978E0,2.959278800E0
7.480117781E0,-2.488499880E0,2.703999877E-1,1.065699935E0,2.720563206E0
7.490117781E0,-2.260099888E0,2.474999875E-1,9.611999989E-1,2.468443474E0
7.500117781E0,-1.961999893E0,2.838999927E-1,8.594999909E-1,2.160736685E0
7.510117781E0,-1.721799970E0,3.400000036E-1,8.125999570E-1,1.934040803E0
7.520117781E0,-1.549499989E0,3.957999945E-1,8.116999865E-1,1.793450506E0
7.530117781E0,-1.405900002E0,4.907999933E-1,8.271999955E-1,1.703437489E0
7.540117781E0,-1.319899917E0,6.450999975E-1,8.585000038E-1,1.701561651E0
7.550117781E0,-1.075500011E0,8.104000092E-1,9.046999812E-1,1.622322565E0
7.560117781E0,-7.217999697E-1,8.980999589E-1,9.845999479E-1,1.515590905E0
7.570117781E0,-2.698000073E-1,8.287000060E-1,1.095700026E0,1.400033675E0
7.580117781E0,3.086999953E-1,6.794999838E-1,1.253999949E0,1.459291536E0
7.590117781E0,8.463999629E-1,4.402000010E-1,1.346899986E0,1.650547943E0
7.600117781E0,1.450099945E0,1.886999905E-1,1.390299916E0,2.017754047E0
7.610117781E0,2.031399965E0,-6.529999524E-2,1.381899953E0,2.457742336E0
7.620117781E0,2.699499846E0,-3.647999763E-1,1.303599954E0,3.019892594E0
7.630117781E0,3.323699951E0,-7.080999613E-1,1.250800014E0,3.621172130E0
7.640117781E0,3.856599808E0,-1.000399947E0,1.117599964E0,4.138017860E0
7.650117781E0,4.279500008E0,-1.148000002E0,8.592999578E-1,4.513360249E0
7.660117781E0,4.396800041E0,-1.092499971E0,5.651999712E-1,4.565616913E0
7.670117781E0,4.120100021E0,-7.856000066E-1,-1.062999964E-1,4.195675303E0
7.680117781E0,3.911199808E0,6.064000130E-1,-1.879899979E0,4.381692463E0
7.690117781E0,4.545599937E0,2.367199898E0,-7.631999969E0,9.193124479E0
7.700117781E0,7.122099876E0,5.033400059E0,-2.848029900E1,2.978568203E1
7.710117781E0,7.029500008E0,3.411999941E0,-2.167799950E1,2.304324795E1
7.720117781E0,5.501800060E0,-7.829999924E-2,-5.971799850E0,8.120241884E0
7.730119344E0,5.202499866E0,-1.056800008E0,-2.062399864E0,5.695289661E0
7.740117781E0,3.794199944E0,-8.524000049E-1,-1.483799934E0,4.162235124E0
7.750117781E0,2.194900036E0,-5.447999835E-1,-9.975000024E-1,2.471719936E0
7.760117781E0,8.784999847E-1,-1.586000025E-1,-7.572999597E-1,1.170649142E0
7.770117781E0,2.401999980E-1,2.111999989E-1,-4.676999748E-1,5.666081053E-1
7.780117781E0,-1.624999940E-1,3.461999893E-1,-2.071999907E-1,4.349626614E-1
7.790117781E0,-1.752000004E-1,1.837999970E-1,-4.529999942E-2,2.579332646E-1
7.800117781E0,2.207999974E-1,-3.754999936E-1,1.396999955E-1,4.574592581E-1
7.810117781E0,7.200999856E-1,-1.128199935E0,2.545999885E-1,1.362424397E0
7.820117781E0,1.067999959E0,-1.995499969E0,2.566999793E-1,2.277836455E0
7.830117781E0,1.344399929E0,-2.681599855E0,2.122999877E-1,3.007234650E0
7.840117781E0,1.275900006E0,-3.243999958E0,2.807999849E-1,3.497185323E0
7.850117781E0,6.074000001E-1,-3.682699919E0,1.607999951E-1,3.735916232E0
7.860117781E0,-4.626999795E-1,-4.161499977E0,1.820999980E-1,4.191101733E0
7.870117781E0,-1.107100010E0,-4.350899696E0,-9.349999577E-2,4.490516769E0
7.880117781E0,-1.962899923E0,-4.552599907E0,-2.363999933E-1,4.963368511E0
7.890117781E0,-2.293299913E0,-3.930399895E0,-6.963999867E-1,4.603503097E0
7.900117781E0,-3.305899858E0,-3.485599995E0,-5.139999986E-1,4.831415651E0
7.910117781E0,-4.489299774E0,-3.708599806E0,-2.333000004E-1,5.827688553E0
7.920117781E0,-3.842299938E0,-2.725600004E0,2.559999824E-1,4.717806714E0
7.930117781E0,-3.609499931E0,-1.482999921E0,1.046399951E0,4.040140019E0
7.940117781E0,-3.933300018E0,-3.947999775E-1,1.627699971E0,4.275058275E0
7.950117781E0,-4.189700127E0,3.003999889E-1,2.057899952E0,4.677475763E0
7.960117781E0,-4.422699928E0,5.243999958E-1,2.389899969E0,5.054393324E0
7.970117781E0,-4.667599678E0,3.949999809E-1,2.627399921E0,5.370823222E0
7.980117781E0,-4.701999664E0,2.280000001E-1,2.678499937E0,5.416193013E0
7.990117781E0,-4.576699734E0,8.370000124E-2,2.472800016E0,5.202684506E0
8.000117781E0,-4.272200108E0,1.489999890E-1,2.143699884E0,4.782190288E0
8.010117781E0,-4.003999710E0,2.061999887E-1,1.690999985E0,4.351323139E0
8.020117781E0,-3.672399998E0,2.146999985E-1,1.184899926E0,3.864790508E0
8.030117781E0,-3.275099993E0,2.419999987E-1,4.830999970E-1,3.319371864E0
8.040117781E0,-2.937099934E0,1.790999919E-1,-6.379999965E-2,2.943247062E0
8.050117781E0,-2.411599874E0,2.120999992E-1,-6.869999766E-1,2.516499420E0
8.060117781E0,-1.805400014E0,3.797999918E-1,-1.559199929E0,2.415537552E0
8.070117781E0,-1.587999940E0,5.346999764E-1,-1.752399921E0,2.424572820E0
8.080117781E0,-1.659899950E0,6.486999989E-1,-1.338699937E0,2.228945278E0
8.090117781E0,-1.971300006E0,5.866000056E-1,-3.576000035E-1,2.087582583E0
8.100117781E0,-1.875599980E0,4.382999837E-1,5.715000033E-1,2.009127775E0
8.110117781E0,-1.591899991E0,3.506999910E-1,1.211099982E0,2.030738593E0
8.120117781E0,-1.252399921E0,3.190000057E-1,1.578199983E0,2.039848463E0
8.130117781E0,-1.006199956E0,3.191999793E-1,1.525699973E0,1.855286335E0
8.140117781E0,-8.200999498E-1,3.228999972E-1,1.390799999E0,1.646557917E0
8.150117781E0,-6.316999793E-1,3.339999914E-1,1.047699928E0,1.268178220E0
8.160117781E0,-4.099999964E-1,3.033999801E-1,3.556999862E-1,6.218311870E-1
8.170127156E0,1.922999918E-1,3.312000036E-1,-6.331999898E-1,7.400101056E-1
8.180117781E0,1.010900021E0,3.380999863E-1,-1.588299990E0,1.912832274E0
8.190117781E0,2.056400061E0,4.405999780E-1,-2.210000038E0,3.050739209E0
8.200117781E0,3.603600025E0,6.675999761E-1,-3.323799849E0,4.947652807E0
8.210117781E0,5.512899876E0,9.967999458E-1,-6.733599663E0,8.759397216E0
8.220117781E0,7.854799747E0,1.661099911E0,-1.116619968E1,1.375285961E1
8.230119344E0,7.320499897E0,1.978999972E0,-7.959199905E0,1.099340815E1
8.240117781E0,6.314300060E0,3.143299818E0,-4.276000023E0,8.248326812E0
8.250117781E0,4.990600109E0,4.001899719E0,-3.419199944E0,7.253428091E0
8.260117781E0,2.163499832E0,3.876399994E0,-2.663199902E0,5.176856397E0
8.270117781E0,2.382599831E0,3.913399935E0,-1.369199991E0,4.781860477E0
8.280117781E0,3.244799852E0,3.296999931E0,-8.330000043E-1,4.700300377E0
8.290117781E0,3.726899862E0,2.069900036E0,-2.116999924E-1,4.268382086E0
8.300117781E0,2.770799875E0,6.931999922E-1,8.599999361E-3,2.856209400E0
8.310117781E0,2.688599825E0,-2.069000006E-1,4.301999807E-1,2.730649859E0
8.320117781E0,2.287499905E0,-9.808999896E-1,1.069599986E0,2.709033911E0
8.330117781E0,2.486799955E0,-1.266799927E0,2.204200029E0,3.556325891E0
8.340117781E0,2.669899940E0,-1.541799903E0,2.424599886E0,3.922269399E0
8.350117781E0,2.027199984E0,-1.704800010E0,2.362099886E0,3.548999678E0
8.360117781E0,1.543499947E0,-1.812799931E0,1.777599931E0,2.971278712E0
8.370117781E0,1.215299964E0,-2.039700031E0,9.699999690E-1,2.564806067E0
8.380117781E0,1.066399932E0,-2.198799849E0,5.467000008E-1,2.504158637E0
8.390117781E0,9.021999836E-1,-2.379099846E0,6.401000023E-1,2.623701374E0
8.400117781E0,9.873999953E-1,-2.540799856E0,8.907999992E-1,2.867777414E0
8.410117781E0,1.006799936E0,-2.870599985E0,1.022799969E0,3.209378470E0
8.420117781E0,9.790999889E-1,-2.996399879E0,1.192799926E0,3.370433309E0
8.430117781E0,7.279999852E-1,-3.074299812E0,1.403999925E0,3.457241545E0
8.440117781E0,4.896999896E-1,-2.975100040E0,1.549799919E0,3.390118895E0
8.450117781E0,2.157000005E-1,-2.796200037E0,1.682199955E0,3.270329926E0
8.460117781E0,-3.285999894E-1,-2.693099976E0,2.093400002E0,3.426819079E0
8.470117781E0,-6.335999966E-1,-2.350899935E0,2.332700014E0,3.371893951E0
8.480117781E0,-1.062199950E0,-2.013999939E0,2.401399851E0,3.309257580E0
8.490117781E0,-1.359599948E0,-1.504799962E0,2.418200016E0,3.156045985E0
8.500117781E0,-1.596099973E0,-9.521999955E-1,2.230599880E0,2.903411059E0
8.510117781E0,-2.077199936E0,-4.950999916E-1,2.090999842E0,2.988672601E0
8.520117781E0,-2.459899902E0,-1.430999935E-1,1.908999920E0,3.117028366E0
8.530117781E0,-2.783499956E0,1.524000019E-1,1.783199906E0,3.309214359E0
8.540117781E0,-2.949699879E0,4.605000019E-1,1.557199955E0,3.367144387E0
8.550117781E0,-3.026999950E0,7.220000029E-1,1.253399968E0,3.354850844E0
8.560117781E0,-3.290499926E0,7.487999797E-1,1.170499921E0,3.571856833E0
8.570117781E0,-3.788599968E0,4.925999939E-1,1.163200021E0,3.993642292E0
8.580117781E0,-4.018899918E0,3.291999996E-1,1.378399968E0,4.261445255E0
8.590117781E0,-3.647099972E0,4.271000028E-1,1.312699914E0,3.899606862E0
8.600117781E0,-3.391599894E0,4.393000007E-1,8.852999806E-1,3.532660525E0
8.610117781E0,-3.351500034E0,4.219999909E-1,7.409999967E-1,3.458282445E0
8.620117781E0,-3.375699997E0,3.531000018E-1,6.893999577E-1,3.463423506E0
8.630117781E0,-3.368899822E0,2.575999796E-1,6.811999679E-1,3.446719768E0
8.640117781E0,-3.288299799E0,1.708000004E-1,6.459000111E-1,3.355484322E0
8.650117781E0,-3.216799974E0,-1.349999942E-2,5.916000009E-1,3.270775884E0
8.660117781E0,-3.006799936E0,-1.181999967E-1,5.690000057E-1,3.062446424E0
8.670117781E0,-2.716300011E0,-2.012999952E-1,5.411999822E-1,2.776995653E0
8.680117781E0,-2.649799824E0,-3.906999826E-1,6.856999993E-1,2.764827313E0
8.690117781E0,-2.365000010E0,-3.122999966E-1,7.056999803E-1,2.487723617E0
8.700117781E0,-2.205899954E0,-1.436000019E-1,5.302000046E-1,2.273263648E0
8.710117781E0,-2.084599972E0,1.659999974E-2,4.175999761E-1,2.126081452E0
8.720117781E0,-1.833699942E0,1.397999972E-1,3.535999954E-1,1.872707257E0
8.730117781E0,-1.403599977E0,2.365999967E-1,3.883999884E-1,1.475441292E0
8.740117781E0,-9.520999789E-1,2.172999978E-1,4.319999814E-1,1.067865929E0
8.750117781E0,-4.603999853E-1,1.398999989E-1,5.607999563E-1,7.389429932E-1
8.760117781E0,2.574999928E-1,-1.559999958E-2,7.118999958E-1,7.571995842E-1
8.770117781E0,1.043699980E0,-3.289999962E-1,8.021000028E-1,1.356803250E0
8.780117781E0,1.886799932E0,-7.234999537E-1,9.061999917E-1,2.214647735E0
8.790117781E0,2.786599874E0,-1.150099993E0,9.723999500E-1,3.167559079E0
8.800117781E0,3.526999950E0,-1.520799994E0,9.862999916E-1,3.965520010E0
8.810117781E0,3.980099916E0,-1.718400002E0,9.343000054E-1,4.434750321E0
8.820117781E0,4.058499813E0,-1.614399910E0,7.559999824E-1,4.432746753E0
8.830117781E0,3.881199837E0,-1.266399980E0,4.800999761E-1,4.110714910E0
8.840117781E0,3.605299950E0,-8.217999935E-1,5.689999834E-2,3.698213159E0
8.850117781E0,3.848699808E0,2.870999873E-1,-1.148800015E0,4.026742864E0
8.860117781E0,4.697700024E0,1.635499954E0,-4.026899815E0,6.399934979E0
8.870117781E0,7.339200020E0,4.258899689E0,-1.974769974E1,2.149357412E1
8.880128719E0,8.856900215E0,4.857299805E0,-2.829339981E1,3.004254509E1
8.890117781E0,5.958600044E0,1.785399914E0,-1.173600006E1,1.328255490E1
8.900117781E0,5.136099815E0,1.298999935E-1,-3.359400034E0,6.138563668E0
8.910117781E0,4.209799767E0,7.559999824E-2,-1.630499959E0,4.515158862E0
8.920117781E0,2.424299955E0,3.280999959E-1,-8.863999844E-1,2.602034745E0
8.930117781E0,8.294999599E-1,5.855000019E-1,-5.613999963E-1,1.160194118E0
8.940117781E0,-2.999999933E-2,6.273999810E-1,-2.009999901E-1,6.594935422E-1
8.950117781E0,-2.298000008E-1,3.876999915E-1,9.429999441E-2,4.604474049E-1
8.960117781E0,1.469999924E-2,-3.590000048E-2,2.129999995E-1,2.165038101E-1
8.970117781E0,4.675999880E-1,-6.739999652E-1,2.626999915E-1,8.613576420E-1
8.980117781E0,1.157699943E0,-1.282299995E0,2.838000059E-1,1.750744093E0
8.990117781E0,1.759699941E0,-1.823399901E0,1.940999925E-1,2.541457434E0
9.000117781E0,1.907799959E0,-2.262300014E0,-8.489999920E-2,2.960559077E0
9.010117781E0,1.630100012E0,-2.483700037E0,-2.912999988E-1,2.985104288E0
9.020117781E0,1.201599956E0,-2.643599987E0,-4.790999889E-1,2.943127613E0
9.030117781E0,4.352999926E-1,-2.938599825E0,-6.564999819E-1,3.042342394E0
9.040117781E0,-6.793000102E-1,-3.397899866E0,-8.896999955E-1,3.577532402E0
9.050117781E0,-2.228899956E0,-4.389699936E0,-8.913999796E-1,5.003204420E0
9.060117781E0,-3.148499966E0,-4.746900082E0,-7.879999876E-1,5.750396195E0
9.070117781E0,-3.552199841E0,-4.413399696E0,-5.788999796E-1,5.694852568E0
9.080117781E0,-3.971199989E0,-3.607800007E0,-6.660000086E-1,5.406496671E0
9.090117781E0,-5.309700012E0,-4.000599861E0,-3.238999844E-1,6.656021685E0
9.100117781E0,-5.775300026E0,-4.428100109E0,1.809999906E-2,7.277533138E0
9.110117781E0,-4.453099728E0,-2.847599983E0,6.938999891E-1,5.331080570E0
9.120117781E0,-4.020400047E0,-1.184899926E0,1.327600002E0,4.396603933E0
9.130117781E0,-4.209899902E0,-1.939999871E-2,1.522699952E0,4.476857010E0
9.140117781E0,-4.550899982E0,4.954999983E-1,2.073600054E0,5.025537591E0
9.150117781E0,-4.700599670E0,5.638999939E-1,2.582399845E0,5.392810902E0
9.160117781E0,-4.853199959E0,4.512999952E-1,2.952299833E0,5.698534534E0
9.170127156E0,-4.915899754E0,3.069999814E-1,3.168299913E0,5.856487319E0
9.180117781E0,-4.940199852E0,1.146999970E-1,3.179899931E0,5.876265331E0
9.190117781E0,-4.689799786E0,-4.309999943E-2,3.020799875E0,5.578647822E0
9.200117781E0,-3.995399952E0,-1.347000003E-1,2.727999926E0,4.839767397E0
9.210117781E0,-3.287099838E0,-1.709999889E-1,2.350399971E0,4.044582348E0
9.220117781E0,-2.504999876E0,-1.550000012E-1,1.702699900E0,3.032859431E0
9.230117781E0,-1.931399941E0,-7.039999962E-2,1.105299950E0,2.226420866E0
9.240117781E0,-1.643000007E0,4.059999809E-2,6.250000000E-1,1.758329429E0
9.250117781E0,-1.530200005E0,8.909999579E-2,3.728999794E-1,1.577499686E0
9.260117781E0,-1.435099959E0,9.519999474E-2,1.683000028E-1,1.448067617E0
9.270117781E0,-1.288499951E0,1.190999970E-1,-4.639999941E-2,1.294824271E0
9.280117781E0,-1.002300024E0,1.713999957E-1,-2.343999892E-1,1.043516484E0
9.290117781E0,-6.755999923E-1,2.316999882E-1,-2.307000011E-1,7.505616062E-1
9.300117781E0,-3.877999783E-1,3.587999940E-1,-2.153999954E-1,5.705465948E-1
9.310117781E0,-1.498000026E-1,5.618999600E-1,-3.694999814E-1,6.889860972E-1
9.320117781E0,8.799999952E-3,6.157000065E-1,-7.234999537E-1,9.500611144E-1
9.330117781E0,2.554999888E-1,6.873999834E-1,-1.080799937E0,1.306111590E0
9.340117781E0,5.026999712E-1,6.894999743E-1,-1.017400026E0,1.327863054E0
9.350117781E0,1.141999960E0,7.299999595E-1,-7.942999601E-1,1.570979400E0
9.360117781E0,2.435199976E0,9.269999862E-1,-1.217199922E0,2.875952633E0
9.370117781E0,5.895999908E0,1.895599961E0,-9.011400223E0,1.093441576E1
9.380119344E0,8.396299362E0,2.240900040E0,-1.757889938E1,1.960961957E1
9.390117781E0,5.742599964E0,1.028900027E0,-1.080329990E1,1.227792240E1
9.400117781E0,5.029699802E0,1.197000027E0,-6.277699947E0,8.132662897E0
9.410117781E0,5.276400089E0,2.157899857E0,-5.183099747E0,7.704638387E0
9.420117781E0,4.121399879E0,2.879799843E0,-3.764699936E0,6.281094627E0
9.430117781E0,3.131199837E0,2.938099861E0,-1.393599987E0,4.514306606E0
9.440117781E0,2.013700008E0,2.583600044E0,-1.218999997E-1,3.277931745E0
9.450117781E0,2.517799854E0,1.989599943E0,7.644999623E-1,3.298830737E0
9.460117781E0,3.887199879E0,1.214699984E0,7.156999707E-1,4.134978282E0
9.470117781E0,4.185199738E0,2.026999891E-1,4.016000032E-1,4.209307151E0
9.480117781E0,3.957499981E0,-8.971999884E-1,5.199999735E-2,4.058260455E0
9.490117781E0,3.152799845E0,-1.944999933E0,-1.862999946E-1,3.709161535E0
9.500117781E0,2.336199999E0,-1.976300001E0,-1.028999984E-1,3.061728358E0
9.510117781E0,1.270799994E0,-1.524799943E0,5.845000148E-1,2.069199787E0
9.520117781E0,3.637999892E-1,-1.290699959E0,1.222899914E0,1.814866666E0
9.530117781E0,9.439999610E-2,-1.351300001E0,1.804099917E0,2.256036251E0
9.540117781E0,2.052999884E-1,-1.648199916E0,2.004299879E0,2.603061477E0
9.550117781E0,-9.849999845E-2,-2.397399902E0,2.045599937E0,3.153047359E0
9.560117781E0,8.299999870E-3,-2.841799974E0,1.948199987E0,3.445486784E0
9.570117781E0,2.723000050E-1,-3.059399843E0,2.059200048E0,3.697888524E0
9.580117781E0,-1.307999939E-1,-3.571199894E0,2.271299839E0,4.234309894E0
9.590117781E0,5.599999800E-3,-3.493799925E0,2.221099854E0,4.140042733E0
9.600117781E0,-2.478999943E-1,-3.532199860E0,2.325299978E0,4.236143322E0
9.610117781E0,-3.913999796E-1,-3.451799870E0,2.333600044E0,4.184949874E0
9.620117781E0,-5.320999622E-1,-3.218600035E0,2.300799847E0,3.992016594E0
9.630117781E0,-7.638999820E-1,-2.908599854E0,2.379799843E0,3.834963309E0
9.640117781E0,-1.137899995E0,-2.511999846E0,2.387399912E0,3.647552325E0
9.650117781E0,-1.448499918E0,-1.758499980E0,2.033900023E0,3.054050342E0
9.660117781E0,-1.961299896E0,-1.070599914E0,1.949699998E0,2.965503590E0
9.670117781E0,-2.382400036E0,-4.584999979E-1,1.820599914E0,3.033255054E0
9.680117781E0,-2.594599962E0,1.067999974E-1,1.616199970E0,3.058669245E0
9.690117781E0,-2.853399992E0,4.776999950E-1,1.561900020E0,3.287798727E0
9.700117781E0,-3.011299849E0,7.820999622E-1,1.735299945E0,3.562425161E0
9.710117781E0,-2.979799986E0,1.089699984E0,1.750899911E0,3.623852164E0
9.720117781E0,-3.112999916E0,1.291299939E0,1.800599933E0,3.821044900E0
9.730117781E0,-3.115799904E0,1.457299948E0,1.861799955E0,3.911295342E0
9.740117781E0,-2.860599995E0,1.578499913E0,1.970199943E0,3.815282705E0
9.750117781E0,-2.869299889E0,1.574399948E0,2.003099918E0,3.837189900E0
9.760117781E0,-2.917799950E0,1.512199998E0,2.006899834E0,3.850708029E0
9.770117781E0,-2.750399828E0,1.461699963E0,2.096699953E0,3.754652672E0
9.780117781E0,-2.633299828E0,1.196399927E0,2.121299982E0,3.586858567E0
9.790117781E0,-2.468600035E0,8.926999569E-1,1.901799917E0,3.241564787E0
9.800117781E0,-2.235899925E0,6.396999955E-1,1.684000015E0,2.871292498E0
9.810117781E0,-1.915099978E0,4.171999991E-1,1.501099944E0,2.468798252E0
9.820117781E0,-1.653599977E0,1.946999878E-1,1.246899962E0,2.080158765E0
9.830117781E0,-1.421499968E0,9.950000048E-2,1.003700018E0,1.742979097E0
9.840117781E0,-1.228600025E0,9.149999917E-2,7.472999692E-1,1.440932863E0
9.850117781E0,-1.113999963E0,1.507000029E-1,5.410000086E-1,1.247552571E0
9.860117781E0,-1.038599968E0,2.569999993E-1,3.795000017E-1,1.135235281E0
9.870117781E0,-9.728999734E-1,4.203999937E-1,2.861000001E-1,1.097781273E0
9.880117781E0,-9.661999941E-1,5.918999910E-1,2.624000013E-1,1.163074283E0
9.890117781E0,-8.125000000E-1,7.326999903E-1,2.698000073E-1,1.126852949E0
9.900130281E0,-5.414999723E-1,7.053999901E-1,3.556999862E-1,9.577754676E-1
9.910117781E0,-2.327999920E-1,5.482000113E-1,5.077999830E-1,7.826748440E-1
9.920117781E0,1.524000019E-1,3.000999987E-1,6.816999912E-1,7.602635384E-1
9.930117781E0,6.146999598E-1,7.999999798E-4,7.921999693E-1,1.002715050E0
9.940117781E0,1.202799916E0,-2.613999844E-1,7.743999958E-1,1.454219015E0
9.950117781E0,1.808699965E0,-5.753999949E-1,6.439999938E-1,2.004299556E0
9.960117781E0,2.372999907E0,-9.128999710E-1,4.988999963E-1,2.591026075E0
9.970117781E0,2.866199970E0,-1.245100021E0,2.994999886E-1,3.139279627E0
9.980117781E0,3.280200005E0,-1.482199907E0,-2.290000021E-2,3.599604568E0
9.990117781E0,3.616599798E0,-1.603399992E0,-5.748999715E-1,3.997648760E0
1.000011778E1,3.915499926E0,-1.372499943E0,-1.644799948E0,4.463212142E0
1.001011778E1,4.175899982E0,-4.465999901E-1,-2.327999830E0,4.801788773E0
1.002011778E1,4.878999710E0,1.004999995E0,-4.906199932E0,6.991813852E0
1.003011778E1,6.815099716E0,1.729099989E0,-2.051169968E1,2.168329298E1
1.004011778E1,7.029399872E0,7.626000047E-1,-2.520539856E1,2.617835247E1
1.005011778E1,6.363899708E0,-5.062999725E-1,-1.089050007E1,1.262372967E1
1.006011778E1,5.941999912E0,-1.036199927E0,-5.720200062E0,8.312746958E0
1.007011778E1,4.433599949E0,-8.816999793E-1,-3.435199976E0,5.677570100E0
1.008011778E1,2.876899958E0,-5.873000026E-1,-2.169899940E0,3.651019092E0
1.009011778E1,1.664999962E0,-1.479000002E-1,-1.491500020E0,2.240239182E0
1.010011778E1,7.129999995E-1,2.532999814E-1,-1.115100026E0,1.347582260E0
1.011011778E1,-1.040999964E-1,5.478000045E-1,-6.166999936E-1,8.314087661E-1
1.012011778E1,-6.785999537E-1,6.773999929E-1,-1.339999959E-2,9.589307626E-1
1.013011778E1,-1.049899936E0,6.351000071E-1,2.863000035E-1,1.260003804E0
1.014011778E1,-1.098299980E0,3.068999946E-1,5.239999890E-1,1.255000574E0
1.015011778E1,-9.092999697E-1,-2.393999994E-1,6.261999607E-1,1.129719074E0
1.016011778E1,-4.537999928E-1,-1.032699943E0,7.470999956E-1,1.352982634E0
1.017012716E1,3.076999784E-1,-1.964100003E0,8.228999972E-1,2.151634845E0
1.018011778E1,1.119899988E0,-2.974999905E0,4.659999907E-1,3.212780168E0
1.019011778E1,1.158299923E0,-4.056499958E0,3.206000030E-1,4.230796022E0
1.020011778E1,1.355899930E0,-4.176300049E0,-7.909999788E-2,4.391606031E0
1.021011778E1,7.888999581E-1,-3.874899864E0,-2.733999789E-1,3.963831436E0
1.022011778E1,-4.187999964E-1,-3.646099806E0,-3.445999920E-1,3.686215727E0
1.023011778E1,-1.775499940E0,-3.858899832E0,-5.295999646E-1,4.280652295E0
1.024011778E1,-2.621099949E0,-3.781499863E0,-7.080999613E-1,4.655245612E0
1.025011778E1,-3.562899828E0,-3.784499884E0,-6.559000015E-1,5.238978848E0
1.026011778E1,-3.891999960E0,-3.530799866E0,-3.874999881E-1,5.269190414E0
1.027011778E1,-3.988600016E0,-2.971199989E0,4.659999907E-2,4.973844692E0
1.028011778E1,-4.125599861E0,-2.430500031E0,4.251999855E-1,4.807150886E0
1.029011778E1,-4.114900112E0,-1.685099959E0,6.601999998E-1,4.495311874E0
1.030011778E1,-4.132800102E0,-9.735999703E-1,9.422999620E-1,4.349237037E0
1.031011778E1,-4.240699768E0,-4.673999846E-1,1.293299913E0,4.458096223E0
1.032011778E1,-4.431399822E0,-2.069999874E-1,1.519199967E0,4.689149381E0
1.033011778E1,-4.609299660E0,-4.490000010E-2,1.676699996E0,4.904995641E0
1.034011778E1,-4.609799862E0,5.859999731E-2,1.850199938E0,4.967587799E0
1.035011778E1,-4.533499718E0,2.213999927E-1,1.998199940E0,4.959278238E0
1.036011778E1,-4.460999966E0,3.443999887E-1,2.043499947E0,4.918843774E0
1.037011778E1,-4.314899921E0,3.783999979E-1,1.988199949E0,4.765971772E0
1.038011778E1,-4.046400070E0,4.505999982E-1,1.895599961E0,4.491068147E0
1.039011778E1,-3.881399870E0,3.831000030E-1,1.761399984E0,4.279551433E0
1.040011778E1,-3.682199955E0,2.635999918E-1,1.661199927E0,4.048168310E0
1.041011778E1,-3.248999834E0,2.716000080E-1,1.572600007E0,3.619784147E0
1.042011778E1,-2.648599863E0,4.283999801E-1,1.498399973E0,3.073078303E0
1.043011778E1,-2.215899944E0,4.970999956E-1,1.446900010E0,2.692738496E0
1.044011778E1,-1.687799931E0,5.248000026E-1,1.455799937E0,2.289855259E0
1.045011778E1,-1.251899958E0,4.416999817E-1,1.444499969E0,1.961869654E0
1.046011778E1,-9.684000015E-1,2.852999866E-1,1.371099949E0,1.702677220E0
1.047011778E1,-7.886999846E-1,9.429999441E-2,1.342999935E0,1.560316949E0
1.048011778E1,-6.338999867E-1,-1.349999942E-2,1.281700015E0,1.429953276E0
1.049011778E1,-4.747999907E-1,-1.467999965E-1,1.068400025E0,1.178330974E0
1.050011778E1,-2.305999994E-1,-2.152999938E-1,7.443000078E-1,8.084014774E-1
1.051011778E1,7.270000130E-2,-4.809999764E-1,1.022999957E-1,4.971031650E-1
1.052011778E1,7.346999645E-1,-6.449999809E-1,-4.185999930E-1,1.063501278E0
1.053011778E1,1.618399978E0,-8.052999973E-1,-1.023800015E0,2.077472754E0
1.054011778E1,2.654099941E0,-9.036999941E-1,-2.483799934E0,3.745688494E0
1.055011778E1,4.559000015E0,-4.592999816E-1,-5.710000038E0,7.321170538E0
1.056011778E1,9.247399330E0,1.438599944E0,-1.624349976E1,1.874660632E1
1.057011778E1,8.877900124E0,1.812699914E0,-1.391609955E1,1.660604764E1
1.058011778E1,6.615299702E0,2.112699986E0,-7.645899773E0,1.032886609E1
1.059011778E1,5.180999756E0,3.116999865E0,-4.398999691E0,7.477275233E0
1.060011778E1,3.646899939E0,3.960599899E0,-2.648499966E0,6.000065232E0
1.061011778E1,2.564699888E0,4.175799847E0,-2.170899868E0,5.359831724E0
1.062011778E1,2.620399952E0,3.584299803E0,-2.728699923E0,5.211478125E0
1.063011778E1,2.901000023E0,2.494699955E0,-2.430399895E0,4.532788617E0
1.064011778E1,3.128999949E0,1.034199953E0,-1.371199965E0,3.569369631E0
1.065011778E1,3.428599834E0,-2.760999799E-1,-3.418999910E-1,3.456649191E0
1.066011778E1,3.359400034E0,-1.424600005E0,4.299999774E-1,3.674228319E0
1.067011778E1,2.791999817E0,-1.694199920E0,7.096999884E-1,3.342042851E0
1.068011778E1,2.096299887E0,-1.470899940E0,1.161299944E0,2.811874358E0
1.069011778E1,1.624499917E0,-1.443799973E0,1.376199961E0,2.572447215E0
1.070011778E1,1.230799913E0,-1.702199936E0,1.801599979E0,2.767330037E0
1.071011778E1,1.190299988E0,-2.244499922E0,1.904899955E0,3.175411438E0
1.072011778E1,1.287599921E0,-2.942199945E0,1.838699937E0,3.700712301E0
1.073011778E1,1.415499926E0,-3.501600027E0,1.685400009E0,4.135869435E0
1.074011778E1,1.222700000E0,-3.913100004E0,1.697399974E0,4.437174056E0
1.075011778E1,9.243999720E-1,-3.972499847E0,1.704199910E0,4.420358320E0
1.076011778E1,5.018999577E-1,-3.875599861E0,1.701599956E0,4.262349148E0
1.077011778E1,-1.332999915E-1,-3.750699997E0,1.745700002E0,4.139201354E0
1.078011778E1,-5.683000088E-1,-3.389999866E0,1.872200012E0,3.914102308E0
1.079011778E1,-9.104999900E-1,-2.802199841E0,1.897799969E0,3.504708105E0
1.080011778E1,-1.572699904E0,-2.203500032E0,1.999699950E0,3.365649606E0
1.081011778E1,-1.955500007E0,-1.591799974E0,1.991599917E0,3.213141401E0
1.082011778E1,-2.421799898E0,-1.064800024E0,2.164999962E0,3.418499477E0
1.083011778E1,-2.883599997E0,-6.122999787E-1,2.288100004E0,3.731683512E0
1.084011778E1,-3.213299990E0,-1.550000012E-1,2.393300056E0,4.009639259E0
1.085011778E1,-3.587999821E0,1.990999877E-1,2.591699839E0,4.430608488E0
1.086011778E1,-3.733999968E0,5.189999938E-1,2.688299894E0,4.630234667E0
1.087011778E1,-3.769899845E0,9.025999904E-1,2.578399897E0,4.655639334E0
1.088011778E1,-3.883299828E0,1.142799973E0,2.357800007E0,4.684573641E0
1.089011778E1,-3.770599842E0,1.327000022E0,2.273099899E0,4.598405743E0
1.090011778E1,-3.893399954E0,1.346499920E0,2.069900036E0,4.610435055E0
1.091011778E1,-3.897899866E0,1.221300006E0,2.054800034E0,4.572461071E0
1.092011778E1,-3.734399796E0,9.923999906E-1,2.176300049E0,4.434735784E0
1.093011778E1,-3.471999884E0,6.985999942E-1,2.029799938E0,4.082023142E0
1.094011778E1,-3.140199900E0,5.748000145E-1,1.693899989E0,3.613937968E0
1.095011778E1,-2.875699997E0,4.439999759E-1,1.480099916E0,3.264579944E0
1.096011778E1,-2.589299917E0,2.471999973E-1,1.393599987E0,2.950881703E0
1.097011778E1,-2.281399965E0,1.702999920E-1,1.267300010E0,2.615308243E0
1.098011778E1,-2.080100060E0,1.241999939E-1,1.178799987E0,2.394120153E0
1.099011778E1,-1.828299999E0,1.287000030E-1,1.080299973E0,2.127508545E0
1.100011778E1,-1.565199971E0,2.518000007E-1,1.022300005E0,1.886359322E0
1.101011778E1,-1.301299930E0,3.555999994E-1,9.563999772E-1,1.653642580E0
1.102011778E1,-1.164600015E0,4.681999981E-1,8.644999862E-1,1.524094701E0
1.103011778E1,-9.983999729E-1,6.090999842E-1,8.366000056E-1,1.437951622E0
1.104011778E1,-8.416000009E-1,7.392999530E-1,8.251000047E-1,1.391274595E0
1.105011778E1,-5.472999811E-1,7.900999784E-1,9.083999991E-1,1.322492270E0
1.106011778E1,-1.349999905E-1,7.224000096E-1,1.055599928E0,1.286226255E0
1.107011778E1,2.867999971E-1,5.850999951E-1,1.194800019E0,1.360934726E0
1.108011778E1,6.787999868E-1,4.178999960E-1,1.330899954E0,1.551355703E0
1.109011778E1,1.187999964E0,2.406999916E-1,1.409600019E0,1.859099947E0
1.110011778E1,1.725199938E0,1.379999984E-2,1.395900011E0,2.219243589E0
1.111011778E1,2.289199829E0,-2.640999854E-1,1.286299944E0,2.639081697E0
1.112011778E1,3.104199886E0,-6.103000045E-1,1.091799974E0,3.346722309E0
1.113011778E1,3.703399897E0,-9.656999707E-1,9.025999904E-1,3.932230152E0
1.114011778E1,4.080399990E0,-1.226300001E0,6.439999938E-1,4.309084794E0
1.115011778E1,4.131499767E0,-1.226199985E0,3.916999996E-1,4.327387852E0
1.116011778E1,3.877699852E0,-9.544999599E-1,-6.069999933E-2,3.993909213E0
1.117012716E1,3.683499813E0,3.252999783E-1,-1.214800000E0,3.892265406E0
1.118011778E1,4.737400055E0,1.927199960E0,-5.072299957E0,7.203144162E0
1.119011778E1,8.033499718E0,3.962599993E0,-4.281889725E1,4.374582583E1
1.120011778E1,8.397199631E0,1.965399981E0,-2.612989998E1,2.751631210E1
1.121011778E1,5.357899666E0,-9.280999899E-1,-3.473500013E0,6.452415111E0
1.122011778E1,4.883699894E0,-1.055599928E0,-1.279199958E0,5.157632053E0
1.123011778E1,3.912499905E0,-4.861999750E-1,-1.088999987E0,4.090228220E0
1.124011778E1,2.079499960E0,-1.013000011E-1,-3.421999812E-1,2.109901088E0
1.125011934E1,8.195999861E-1,1.607999951E-1,2.217999995E-1,8.641736026E-1
1.126011778E1,3.840999901E-1,1.966999918E-1,6.805999875E-1,8.058784227E-1
1.127011778E1,4.013999999E-1,-2.339999937E-2,1.090700030E0,1.162452612E0
1.128011778E1,5.853999853E-1,-5.601999760E-1,1.372699976E0,1.593995728E0
1.129011778E1,1.082099915E0,-1.197999954E0,1.531000018E0,2.224883181E0
1.130011778E1,1.596099973E0,-1.819099903E0,1.500599980E0,2.847535756E0
1.131011778E1,2.086499929E0,-2.375999928E0,1.358999968E0,3.441763868E0
1.132011778E1,2.140100002E0,-2.772500038E0,1.200699925E0,3.702494401E0
1.133011778E1,1.649099946E0,-2.999699831E0,8.076999784E-1,3.517116569E0
1.134011778E1,8.600999713E-1,-2.998199940E0,2.703999877E-1,3.130829122E0
1.135011778E1,-1.164999977E-1,-3.039899826E0,-1.166999936E-1,3.044368915E0
1.136011778E1,-9.558999538E-1,-3.112399817E0,-3.440999985E-1,3.274016211E0
1.137011778E1,-2.008899927E0,-3.329299927E0,-1.310999990E-1,3.890643151E0
1.138011778E1,-2.546999931E0,-3.068099976E0,1.011999995E-1,3.988820321E0
1.139011778E1,-3.078399897E0,-2.365599871E0,-2.699999837E-3,3.882346708E0
1.140011778E1,-4.055599689E0,-2.156299829E0,6.209999695E-2,4.593623211E0
1.141011778E1,-4.631700039E0,-2.132900000E0,6.169999763E-2,5.099579840E0
1.142011778E1,-4.496399879E0,-1.602800012E0,3.440999985E-1,4.785915227E0
1.143011778E1,-4.451200008E0,-1.076699972E0,1.055400014E0,4.699609934E0
1.144011778E1,-4.368899822E0,-4.605999887E-1,1.814899921E0,4.753240971E0
1.145011778E1,-4.428899765E0,9.479999542E-2,2.028699875E0,4.872346801E0
1.146011778E1,-4.518799782E0,3.608999848E-1,2.261600018E0,5.066027527E0
1.147011778E1,-4.498300076E0,3.640999794E-1,2.507999897E0,5.163074263E0
1.148011778E1,-4.462299824E0,2.093999982E-1,2.671099901E0,5.204876825E0
1.149011778E1,-4.336800098E0,5.289999768E-2,2.756000042E0,5.138693388E0
1.150011778E1,-4.242300034E0,-3.720000014E-2,2.694499969E0,5.025815705E0
1.151011778E1,-4.041599751E0,-1.388999969E-1,2.548099995E0,4.779815408E0
1.152011778E1,-3.850399971E0,-2.314999998E-1,2.246199846E0,4.463696443E0
1.153011778E1,-3.517999887E0,-2.847000062E-1,1.986499906E0,4.050130760E0
1.154011778E1,-3.198899984E0,-3.181000054E-1,1.571799994E0,3.578366100E0
1.155011778E1,-2.910499811E0,-3.321000040E-1,1.208699942E0,3.168951737E0
1.156011778E1,-2.591799974E0,-2.484999895E-1,9.358999729E-1,2.766782990E0
1.157011778E1,-2.320600033E0,-1.952999979E-1,7.788999677E-1,2.455608226E0
1.158011778E1,-2.165899992E0,-2.025000006E-1,7.498999834E-1,2.300973492E0
1.159011778E1,-1.941100001E0,-2.500000000E-1,7.890999913E-1,2.110224635E0
1.160011778E1,-1.656799912E0,-2.293999940E-1,8.233999610E-1,1.864295525E0
1.161011778E1,-1.442799926E0,-2.009999901E-1,7.087999582E-1,1.620021606E0
1.162011778E1,-1.120599985E0,-1.381999999E-1,5.429999828E-1,1.252873716E0
1.163011778E1,-5.392999649E-1,7.729999721E-2,9.269999713E-2,5.526418652E-1
1.164011778E1,-7.559999824E-2,2.186999917E-1,-5.361999869E-1,5.839995480E-1
1.165011778E1,2.681999803E-1,1.987999976E-1,-1.108999968E0,1.158159573E0
1.166011778E1,5.715999603E-1,3.749999776E-2,-1.091400027E0,1.232593519E0
1.167011778E1,9.918999672E-1,-5.709999800E-2,-1.128099918E0,1.503241624E0
1.168011778E1,2.029199839E0,-3.309999779E-2,-1.843999982E0,2.742094734E0
1.169011778E1,5.279900074E0,7.757999897E-1,-8.253499985E0,9.828503061E0
1.170011778E1,8.105199814E0,1.447399974E0,-1.742860031E1,1.927551139E1
1.171011778E1,5.218400002E0,4.393999875E-1,-1.094359970E1,1.213207094E1
1.172011778E1,3.401499987E0,6.560999751E-1,-4.906899929E0,6.006524473E0
1.173011778E1,3.458499908E0,1.493199944E0,-3.355399847E0,5.044757261E0
1.174011778E1,3.183599949E0,2.037699938E0,-3.037400007E0,4.849054390E0
1.175011778E1,2.899699926E0,2.479899883E0,-1.851300001E0,4.240928529E0
1.176011778E1,2.019999981E0,2.211899996E0,-1.041199923E0,3.171277155E0
1.177011778E1,3.005299807E0,1.862499952E0,-5.607999563E-1,3.579836531E0
1.178011778E1,3.697199821E0,1.145900011E0,-5.544999838E-1,3.910222959E0
1.179011778E1,2.642799854E0,1.850000024E-2,1.539999992E-2,2.642909472E0
1.180011778E1,1.693399906E0,-8.348999619E-1,6.732000113E-1,2.004459888E0
1.181011778E1,1.720099926E0,-1.179299951E0,1.303900003E0,2.459603087E0
1.182011778E1,1.298399925E0,-1.456900001E0,2.029899836E0,2.815829064E0
1.183011778E1,1.337899923E0,-1.560299993E0,2.892099857E0,3.548063395E0
1.184011778E1,1.540099978E0,-1.737199903E0,2.938299894E0,3.744780062E0
1.185011778E1,1.766099930E0,-2.059799910E0,2.454499960E0,3.658750426E0
1.186011778E1,1.820899963E0,-2.452100039E0,1.546700001E0,3.423558407E0
1.187011778E1,1.659399986E0,-2.699699879E0,9.795999527E-1,3.316866566E0
1.188011778E1,1.324499965E0,-2.576799870E0,1.338500023E0,3.191516886E0
1.189011778E1,8.849999905E-1,-2.465199947E0,1.851099968E0,3.207336411E0
1.190011778E1,6.643999815E-1,-2.333400011E0,1.833899975E0,3.041278031E0
1.191011778E1,5.949000120E-1,-2.131199837E0,1.848299980E0,2.883076757E0
1.192011778E1,3.919999897E-1,-2.144000053E0,2.017499924E0,2.969967367E0
1.193011778E1,3.413999975E-1,-2.261899948E0,2.127300024E0,3.123803887E0
1.194011778E1,5.805000067E-1,-2.131399870E0,2.060099840E0,3.020572299E0
1.195011778E1,-2.889999934E-2,-2.047299862E0,2.432499886E0,3.179516886E0
1.196011778E1,-1.238999963E-1,-1.498600006E0,2.159999847E0,2.631872438E0
1.197011778E1,-8.222999573E-1,-9.552999735E-1,2.269399881E0,2.595948975E0
1.198011778E1,-1.330999970E0,-3.880999982E-1,2.223700047E0,2.620500797E0
1.199011778E1,-1.827399969E0,1.044999957E-1,2.164399862E0,2.834596560E0
1.200011778E1,-2.184799910E0,5.230000019E-1,2.047699928E0,3.039729370E0
1.201011778E1,-2.453099966E0,8.859999776E-1,1.950699925E0,3.256981057E0
1.202011778E1,-2.681699991E0,1.114599943E0,1.843799949E0,3.439977635E0
1.203011778E1,-2.821699858E0,1.237900019E0,1.805799961E0,3.571456292E0
1.204011778E1,-3.001399994E0,1.215899944E0,1.766899943E0,3.689003932E0
1.205011778E1,-3.054100037E0,1.166100025E0,1.696299911E0,3.683035391E0
1.206011778E1,-3.088399887E0,1.097899914E0,1.562999964E0,3.631331294E0
1.207011778E1,-3.045399904E0,1.010800004E0,1.396399975E0,3.499444258E0
1.208011778E1,-2.914700031E0,9.240999818E-1,1.208999991E0,3.288026464E0
1.209011778E1,-2.735499859E0,7.883999944E-1,1.052199960E0,3.035071463E0
1.210011778E1,-2.546900034E0,6.518999934E-1,9.192999601E-1,2.785100681E0
1.211011778E1,-2.397699833E0,5.238000154E-1,7.348999977E-1,2.561915095E0
1.212011778E1,-2.233700037E0,4.544000030E-1,5.453999639E-1,2.343791019E0
1.213011778E1,-2.049399853E0,3.822000027E-1,4.073999822E-1,2.124168389E0
1.214011778E1,-1.888199925E0,3.791999817E-1,2.822999954E-1,1.946480124E0
1.215011778E1,-1.657299995E0,3.951999843E-1,1.965999901E-1,1.715073718E0
1.216011778E1,-1.513599992E0,3.910000026E-1,1.134999990E-1,1.567401731E0
1.217012716E1,-1.417999983E0,4.352999926E-1,1.323999912E-1,1.489207773E0
1.218011778E1,-1.389699936E0,5.386999846E-1,1.955999881E-1,1.503237486E0
1.219011778E1,-1.261799932E0,6.624000072E-1,2.522000074E-1,1.447244859E0
1.220011778E1,-9.849999547E-1,7.676999569E-1,3.491999805E-1,1.296737738E0
1.221011778E1,-6.481999755E-1,7.558999658E-1,4.936999977E-1,1.111434953E0
1.222011778E1,-1.837999970E-1,6.556999683E-1,6.710999608E-1,9.560857936E-1
1.223011778E1,2.990999818E-1,4.657999873E-1,8.262999654E-1,9.945863764E-1
1.224011778E1,8.782999516E-1,1.762000024E-1,8.258999586E-1,1.218428491E0
1.225011778E1,1.523699999E0,2.169999853E-2,8.511999846E-1,1.745472426E0
1.226011778E1,2.333299875E0,-4.609999806E-2,9.736999869E-1,2.528735886E0
1.227011778E1,3.404999971E0,-2.421000004E-1,-1.403999925E-1,3.416482017E0
1.228011778E1,4.140399933E0,-4.506999850E-1,-1.750899911E0,4.517930121E0
1.229011778E1,4.413000107E0,-6.543999910E-1,-3.695400000E0,5.792994946E0
1.230011778E1,4.176199913E0,-7.549999952E-1,-5.167299747E0,6.686677605E0
1.231011778E1,3.813999891E0,-5.922999978E-1,-5.512300014E0,6.729254484E0
1.232011778E1,3.422899961E0,-2.330999970E-1,-5.031799793E0,6.090122241E0
1.233011778E1,3.236099958E0,2.046999931E-1,-4.306900024E0,5.391069731E0
1.234011778E1,3.457999945E0,3.366000056E-1,-3.780099869E0,5.134220311E0
1.235011778E1,4.039099693E0,1.118999943E-1,-3.628399849E0,5.430666019E0
1.236011778E1,4.254399776E0,-1.460999995E-1,-3.744899988E0,5.669703572E0
1.237011778E1,4.104899883E0,-2.495999932E-1,-3.714399815E0,5.541594463E0
1.238011778E1,3.669699907E0,-2.944000065E-1,-3.258299828E0,4.916287882E0
1.239011778E1,2.948499918E0,-2.698999941E-1,-2.451099873E0,3.843746656E0
1.240011778E1,1.921000004E0,-8.819999546E-2,-1.474200010E0,2.423073652E0
1.241011778E1,1.029600024E0,2.798999846E-1,-6.992999911E-1,1.275711836E0
1.242011778E1,3.729999959E-1,5.982999802E-1,-1.224999949E-1,7.156103074E-1
1.243011778E1,4.839999974E-2,6.488999724E-1,1.937000006E-1,6.789207792E-1
1.244011778E1,3.509999812E-2,4.305000007E-1,3.095999956E-1,5.314267755E-1
1.245011778E1,2.052999884E-1,-4.759999737E-2,3.291999996E-1,3.908791178E-1
1.246011778E1,4.608999789E-1,-5.103999972E-1,2.721000016E-1,7.395778245E-1
1.247011778E1,6.055999994E-1,-1.007099986E0,1.882999986E-1,1.190150676E0
1.248011778E1,4.237999916E-1,-1.635299921E0,-2.725999951E-1,1.711175918E0
1.249011778E1,3.677999973E-1,-2.109400034E0,-8.966999650E-1,2.321403922E0
1.250011778E1,7.459999621E-2,-2.399099827E0,-1.215699911E0,2.690570834E0
1.251011778E1,-7.893999815E-1,-3.151799917E0,-1.581900001E0,3.613779553E0
1.252011778E1,-1.249300003E0,-3.842399836E0,-2.214299917E0,4.607375730E0
1.253011778E1,-1.821799994E0,-3.918200016E0,-2.064399958E0,4.788840545E0
1.254011778E1,-2.495599985E0,-4.085400105E0,-1.167500019E0,4.927633265E0
1.255011778E1,-2.892999887E0,-3.546299934E0,-9.349999577E-2,4.577601318E0
1.256011778E1,-3.072499990E0,-2.733500004E0,6.988999844E-1,4.171419381E0
1.257011778E1,-3.073899984E0,-1.666199923E0,1.007699966E0,3.638755628E0
1.258011778E1,-3.037899971E0,-6.890999675E-1,9.371999502E-1,3.253004572E0
1.259011778E1,-3.164999962E0,-1.096999943E-1,9.656999707E-1,3.310866243E0
1.260011778E1,-3.448699951E0,9.860000014E-2,9.003999829E-1,3.565665919E0
1.261011778E1,-3.429499865E0,4.060999751E-1,6.140999794E-1,3.507635285E0
1.262011778E1,-3.410599947E0,6.642999649E-1,5.185999870E-1,3.513179812E0
1.263011778E1,-3.543299913E0,6.474999785E-1,5.939999819E-1,3.650625491E0
1.264011778E1,-3.415299892E0,7.150999904E-1,4.767999947E-1,3.521786420E0
1.265011778E1,-3.192999840E0,6.918999553E-1,3.282999992E-1,3.283558194E0
1.266011778E1,-2.680199862E0,7.146999836E-1,1.039999947E-1,2.775803192E0
1.267011778E1,-2.211499929E0,7.710999846E-1,1.232999936E-1,2.345320876E0
1.268011778E1,-1.925099969E0,8.105999827E-1,-3.289999813E-2,2.089058312E0
1.269011778E1,-2.006099939E0,7.850999832E-1,9.959999472E-2,2.156557235E0
1.270011778E1,-2.374399900E0,8.335999846E-1,4.127999842E-1,2.550111301E0
1.271011778E1,-3.144599915E0,9.214999676E-1,6.771999598E-1,3.346082874E0
1.272011778E1,-3.665699959E0,9.356999993E-1,8.617999554E-1,3.880153327E0
1.273011778E1,-3.454499960E0,7.920999527E-1,1.718999982E0,3.939029480E0
1.274011778E1,-2.278699875E0,6.653000116E-1,1.797399998E0,2.977539920E0
1.275011778E1,-1.607899904E0,4.682999849E-1,1.787099957E0,2.449157658E0
1.276011778E1,-1.347299933E0,3.828999996E-1,1.699199915E0,2.202069452E0
1.277011778E1,-1.290199995E0,4.096999764E-1,1.583999991E0,2.083632902E0
1.278011778E1,-1.189199924E0,3.932999969E-1,1.424199939E0,1.896635656E0
1.279011778E1,-9.536999464E-1,2.375999987E-1,1.241799951E0,1.583686984E0
1.280011778E1,-6.407999992E-1,-7.199999876E-3,1.059100032E0,1.237889073E0
1.281011778E1,-3.761999905E-1,-3.989000022E-1,7.522999644E-1,9.309150773E-1
1.282011778E1,1.068999991E-1,-7.888000011E-1,1.992999911E-1,8.205812197E-1
1.283011778E1,9.387999773E-1,-1.008199930E0,-5.187000036E-1,1.472026559E0
1.284011778E1,2.394599915E0,-1.126099944E0,-2.131500006E0,3.397867288E0
1.285011778E1,4.924699783E0,-7.128999829E-1,-6.529099941E0,8.209143706E0
1.286011778E1,8.322799683E0,3.917999864E-1,-1.477159977E1,1.695944166E1
1.287011778E1,7.822599888E0,9.440000057E-1,-1.115380001E1,1.365618760E1
1.288011778E1,7.046499729E0,2.161700010E0,-6.749499798E0,9.994090899E0
1.289011778E1,5.750099659E0,3.342399836E0,-3.773099899E0,7.646670230E0
1.290011778E1,2.887499809E0,3.702999830E0,-1.174700022E0,4.840432112E0
1.291011778E1,2.416800022E0,3.460199833E0,-7.669999599E-1,4.289777869E0
1.292011778E1,2.320299864E0,2.407199860E0,-1.611599922E0,3.711557211E0
1.293011778E1,2.353099823E0,9.462999701E-1,-1.941599965E0,3.194115345E0
1.294011778E1,2.032299995E0,-5.482000113E-1,-1.346699953E0,2.498873204E0
1.295011778E1,1.903099895E0,-1.729499936E0,-2.391999960E-1,2.582668363E0
1.296011778E1,1.894799948E0,-2.665299892E0,4.793999791E-1,3.305134596E0
1.297011778E1,1.344299912E0,-2.781299829E0,9.273999929E-1,3.225343663E0
1.298011778E1,9.544000030E-1,-2.631099939E0,1.131999969E0,3.019104203E0
1.299011778E1,1.118600011E0,-2.873999834E0,1.159600019E0,3.294816116E0
1.300011778E1,1.642499924E0,-3.345799923E0,1.176800013E0,3.908585600E0
1.301011778E1,1.849200010E0,-3.646499872E0,1.462399960E0,4.342247763E0
1.302011778E1,1.746500015E0,-3.975099802E0,1.672099948E0,4.652698032E0
1.303011778E1,1.148699999E0,-3.899699926E0,1.922399998E0,4.496975979E0
1.304011778E1,9.300000034E-3,-3.937599897E0,1.791799903E0,4.326121396E0
1.305012091E1,-6.250000000E-1,-3.719299793E0,1.593599916E0,4.094310277E0
1.306011778E1,-9.180999994E-1,-3.390199900E0,1.352899909E0,3.763867842E0
1.307011778E1,-1.291000009E0,-3.362499952E0,1.271399975E0,3.819626271E0
1.308011778E1,-1.361799955E0,-3.244199991E0,1.359599948E0,3.771981538E0
1.309011778E1,-1.365399957E0,-3.013900042E0,1.542500019E0,3.650646081E0
1.310011778E1,-1.409899950E0,-2.572700024E0,1.846300006E0,3.466327595E0
1.311011778E1,-1.396399975E0,-1.928200006E0,2.132200003E0,3.195960733E0
1.312011778E1,-1.734099984E0,-1.275099993E0,2.460500002E0,3.269104312E0
1.313011778E1,-1.881199956E0,-5.333999991E-1,2.412199974E0,3.105179149E0
1.314011778E1,-2.137500048E0,7.919999957E-2,2.273000002E0,3.121170951E0
1.315011778E1,-2.393399954E0,6.651999950E-1,2.088700056E0,3.245538830E0
1.316011778E1,-2.758100033E0,1.007599950E0,1.938099980E0,3.518324173E0
1.317012559E1,-3.035199881E0,1.224099994E0,1.862599969E0,3.765652368E0
1.318011778E1,-3.184799910E0,1.393599987E0,1.775900006E0,3.903702373E0
1.319011778E1,-3.206899881E0,1.496299982E0,1.698499918E0,3.925305397E0
1.320011778E1,-3.160699844E0,1.541399956E0,1.631500006E0,3.876561569E0
1.321011778E1,-3.056699991E0,1.537299991E0,1.556899905E0,3.759074808E0
1.322011778E1,-2.963799953E0,1.483199954E0,1.476499915E0,3.628228806E0
1.323011934E1,-2.823099852E0,1.378799915E0,1.422500014E0,3.448838684E0
1.324011778E1,-2.712699890E0,1.253600001E0,1.338400006E0,3.274380588E0
1.325011778E1,-2.582999945E0,1.097999930E0,1.314199924E0,3.099131169E0
1.326011778E1,-2.462599993E0,9.029999971E-1,1.322299957E0,2.937394236E0
1.327011778E1,-2.311800003E0,7.477999926E-1,1.334100008E0,2.771903121E0
1.328011778E1,-2.179100037E0,6.424999833E-1,1.360000014E0,2.647807251E0
1.329011778E1,-1.995700002E0,5.877000093E-1,1.320599914E0,2.464182203E0
1.330011778E1,-1.761399984E0,5.442999601E-1,1.304199934E0,2.258258138E0
1.331011778E1,-1.574899912E0,4.919999838E-1,1.300899982E0,2.101122196E0
1.332011778E1,-1.368199944E0,4.398999810E-1,1.309799910E0,1.944494506E0
1.333011778E1,-1.239399910E0,3.880999982E-1,1.290099978E0,1.830598727E0
1.334011778E1,-1.129599929E0,4.056999981E-1,1.249499917E0,1.732581464E0
1.335011778E1,-8.908999562E-1,4.249999821E-1,1.187099934E0,1.543869803E0
1.336011778E1,-5.137000084E-1,3.771999776E-1,1.122099996E0,1.290455703E0
1.337011778E1,-3.779999912E-2,2.223999947E-1,1.093500018E0,1.116527155E0
1.338011778E1,5.554000139E-1,-3.079999983E-2,1.090799928E0,1.224443669E0
1.339011778E1,1.206300020E0,-3.244999945E-1,1.034799933E0,1.622119258E0
1.340011778E1,1.757099986E0,-6.201999784E-1,9.541999698E-1,2.093453118E0
1.341011778E1,2.296599865E0,-9.077000022E-1,8.679999709E-1,2.617577923E0
1.342011778E1,2.736899853E0,-1.098199964E0,7.667999864E-1,3.047071739E0
1.343011778E1,3.166899920E0,-1.191100001E0,6.692999601E-1,3.449048673E0
1.344011778E1,3.439499855E0,-1.205999970E0,5.144999623E-1,3.680938113E0
1.345011778E1,3.407500029E0,-5.841000080E-1,1.154199958E0,3.644778019E0
1.346011778E1,3.531499863E0,2.439999878E-1,4.483999908E-1,3.568205407E0
1.347011778E1,3.987999916E0,1.365899920E0,-3.083099842E0,5.222578918E0
1.348011778E1,5.398799896E0,3.268999815E0,-1.481309986E1,1.610159395E1
1.349011778E1,6.595799923E0,2.820999861E0,-1.856949997E1,1.990700746E1
1.350011778E1,6.528599739E0,-1.640000008E-2,-8.443399429E0,1.067304443E1
1.351011778E1,6.689499855E0,-1.111999989E0,-3.503899813E0,7.633037808E0
1.352011778E1,5.577399731E0,-1.098500013E0,-2.193399906E0,6.093036450E0
1.353011778E1,3.544099808E0,-8.195999861E-1,-1.667999983E0,4.001826024E0
1.354011778E1,2.205600023E0,-3.247999847E-1,-1.246500015E0,2.554198266E0
1.355011778E1,1.360700011E0,2.340999991E-1,-7.511000037E-1,1.571769241E0
1.356011778E1,7.038999796E-1,7.173999548E-1,-3.980999887E-1,1.081027973E0
1.357011778E1,2.030999959E-1,9.932999611E-1,-1.410000026E-1,1.023609018E0
1.358011778E1,1.503999978E-1,9.220999479E-1,5.109999701E-2,9.356814004E-1
1.359011778E1,4.759999812E-1,5.022999644E-1,8.749999851E-2,6.975223911E-1
1.360011778E1,8.747999668E-1,-1.200999990E-1,1.256999969E-1,8.919077760E-1
1.361011778E1,1.219099998E0,-7.884999514E-1,1.969999969E-1,1.465177798E0
1.362011778E1,1.495800018E0,-1.311699986E0,2.775999904E-1,2.008739979E0
1.363011778E1,1.462499976E0,-1.691599965E0,2.329999954E-1,2.248267248E0
1.364011778E1,9.555999637E-1,-1.989999890E0,2.055999935E-1,2.217102210E0
1.365011778E1,1.788999885E-1,-2.373600006E0,-5.900000036E-2,2.381063459E0
1.366011778E1,-5.701000094E-1,-2.701599836E0,-3.869999945E-1,2.788086206E0
1.367011778E1,-1.475700021E0,-3.176499844E0,-1.469999999E-1,3.505631299E0
1.368011778E1,-2.092599869E0,-3.283900023E0,-2.858999968E-1,3.904447768E0
1.369011778E1,-2.692699909E0,-3.236299992E0,-2.577999830E-1,4.217906029E0
1.370011778E1,-3.715099812E0,-3.345499992E0,-5.299999937E-2,4.999714573E0
1.371011778E1,-4.143700123E0,-3.350999832E0,5.532000065E-1,5.357749605E0
1.372011778E1,-3.933300018E0,-2.208799839E0,1.324100018E0,4.701370717E0
1.373011778E1,-3.713199854E0,-6.574000120E-1,1.658399940E0,4.119504617E0
1.374011778E1,-3.626699924E0,3.458999991E-1,1.735499978E0,4.035413154E0
1.375011778E1,-3.849799871E0,7.443999648E-1,1.879999995E0,4.348504380E0
1.376011778E1,-3.996799946E0,7.793999910E-1,1.956599951E0,4.517760233E0
1.377011778E1,-4.050899982E0,6.363999844E-1,1.924299955E0,4.529649647E0
1.378011778E1,-3.984499931E0,4.230999947E-1,1.615999937E0,4.320498710E0
1.379011778E1,-3.954599857E0,1.491999924E-1,1.155399919E0,4.122628972E0
1.380011778E1,-3.576599836E0,3.139999881E-2,6.800000072E-1,3.640803807E0
1.381011778E1,-3.033900023E0,1.388999969E-1,1.739999950E-1,3.042058276E0
1.382011778E1,-2.571099997E0,2.833999991E-1,-3.404999971E-1,2.608986585E0
1.383011778E1,-2.099999905E0,4.530999959E-1,-7.547000051E-1,2.277031248E0
1.384011778E1,-1.257200003E0,5.482999682E-1,-1.029399991E0,1.714890388E0
1.385011778E1,-9.274999499E-1,5.166000128E-1,-1.053200006E0,1.495447085E0
1.386011778E1,-1.315599918E0,5.755999684E-1,-9.185000062E-1,1.704629206E0
1.387011778E1,-2.142400026E0,6.916999817E-1,-4.229999781E-1,2.290688918E0
1.388011778E1,-2.765899897E0,8.032999635E-1,2.858999968E-1,2.894344810E0
1.389011778E1,-2.773499966E0,7.874999642E-1,1.507799983E0,3.253600935E0
1.390011778E1,-1.975899935E0,7.107999921E-1,2.173300028E0,3.022027497E0
1.391011778E1,-1.413399935E0,5.170999765E-1,2.224699974E0,2.685960114E0
1.392011778E1,-1.229499936E0,3.578999937E-1,2.000900030E0,2.375576441E0
1.393011778E1,-1.265299916E0,2.228999883E-1,1.597199917E0,2.049808737E0
1.394011778E1,-1.259899974E0,2.027999908E-1,1.084299922E0,1.674569229E0
1.395011778E1,-1.099399924E0,1.630000025E-1,4.737999737E-1,1.208195187E0
1.396011778E1,-8.091999888E-1,4.600000009E-2,-2.509999871E-1,8.484819476E-1
1.397011778E1,-3.377999961E-1,-1.284999996E-1,-9.005999565E-1,9.704129889E-1
1.398011778E1,3.055999875E-1,-2.927999794E-1,-1.823399901E0,1.871873495E0
1.399011778E1,9.843999743E-1,-4.375999868E-1,-2.525099993E0,2.745299079E0
1.400011778E1,1.727699995E0,-4.353999794E-1,-2.977799892E0,3.470131498E0
1.401011778E1,3.065500021E0,-2.947999835E-1,-3.987199783E0,5.038051163E0
1.402011778E1,5.299999714E0,1.305000037E-1,-7.367099762E0,9.076408217E0
1.403011778E1,6.204499722E0,4.432999790E-1,-9.428500175E0,1.129552775E1
1.404011778E1,5.094899654E0,1.031999946E0,-6.462399960E0,8.293710847E0
1.405011778E1,3.999399900E0,1.941699982E0,-4.767699718E0,6.518923146E0
1.406011778E1,3.389999866E0,2.594699860E0,-4.246200085E0,6.021194368E0
1.407011778E1,2.731499910E0,2.673399925E0,-2.956499815E0,4.832085479E0
1.408011778E1,2.899499893E0,2.503499985E0,-2.554800034E0,4.604521149E0
1.409011778E1,3.827699900E0,1.995999932E0,-1.888000011E0,4.711671285E0
1.410011778E1,4.358900070E0,1.217000008E0,-1.231699944E0,4.690222126E0
1.411011778E1,3.350499868E0,3.201999962E-1,-3.592999876E-1,3.384889051E0
1.412011778E1,2.202699900E0,-3.779999912E-1,5.755000114E-1,2.307806557E0
1.413011778E1,1.946199894E0,-7.117999792E-1,8.380999565E-1,2.235344442E0
1.414011778E1,1.693499923E0,-1.306100011E0,1.339399934E0,2.523456243E0
1.415011778E1,1.175099969E0,-1.758799911E0,1.893099904E0,2.838672984E0
1.416011778E1,9.284999967E-1,-1.815099955E0,2.326499939E0,3.093428851E0
1.417012716E1,1.089499950E0,-2.114300013E0,2.118499994E0,3.185171410E0
1.418011778E1,1.433200002E0,-2.451499939E0,1.782799959E0,3.352952414E0
1.419011778E1,1.616799951E0,-2.721499920E0,1.759199977E0,3.621517424E0
1.420011778E1,1.473899961E0,-2.877099991E0,2.013799906E0,3.808605455E0
1.421011778E1,1.338699937E0,-2.965999842E0,2.142099857E0,3.895877870E0
1.422011778E1,9.767999649E-1,-3.124300003E0,2.171999931E0,3.928482198E0
1.423011778E1,7.141999602E-1,-3.144799948E0,2.069799900E0,3.831960323E0
1.424011778E1,3.682000041E-1,-3.269899845E0,1.922399998E0,3.810962869E0
1.425011778E1,3.134000003E-1,-3.253299952E0,1.844900012E0,3.753110202E0
1.426011778E1,-4.210999906E-1,-3.497599840E0,2.001699924E0,4.051830751E0
1.427011778E1,-5.009999871E-1,-3.041100025E0,1.886399984E0,3.613557147E0
1.428011778E1,-1.377699971E0,-2.510900021E0,2.041899920E0,3.517389857E0
1.429011778E1,-1.796000004E0,-1.749300003E0,1.982299924E0,3.196119444E0
1.430011778E1,-2.158900023E0,-9.327999949E-1,1.908399940E0,3.028688737E0
1.431011778E1,-2.419199944E0,-2.685000002E-1,1.931099892E0,3.107051240E0
1.432011778E1,-2.697000027E0,1.924999952E-1,1.835399985E0,3.267959378E0
1.433011778E1,-2.797099829E0,5.676999688E-1,1.724699974E0,3.334762466E0
1.434011778E1,-3.004999876E0,8.066999912E-1,1.725600004E0,3.557876404E0
1.435011778E1,-3.193799973E0,1.017199993E0,1.639499903E0,3.731355521E0
1.436011778E1,-3.373399973E0,1.130399942E0,1.641799927E0,3.918308105E0
1.437011778E1,-3.475099802E0,1.224599957E0,1.674499989E0,4.047210632E0
1.438011778E1,-3.430099964E0,1.280099988E0,1.532699943E0,3.969056671E0
1.439011778E1,-3.257699966E0,1.277099967E0,1.365700006E0,3.756158930E0
1.440011778E1,-3.085199833E0,1.107299924E0,1.266399980E0,3.514020495E0
1.441011778E1,-2.892999887E0,8.684999943E-1,1.207399964E0,3.252930258E0
1.442011778E1,-2.582099915E0,6.793000102E-1,1.140100002E0,2.903190743E0
1.443011778E1,-2.270299911E0,4.905999899E-1,1.104300022E0,2.571853141E0
1.444011778E1,-2.026799917E0,3.604999781E-1,1.070999980E0,2.320542845E0
1.445011778E1,-1.890799999E0,2.987999916E-1,1.050099969E0,2.183372624E0
1.446011778E1,-1.813399911E0,2.759000063E-1,1.031700015E0,2.104505873E0
1.447011778E1,-1.666799903E0,2.730000019E-1,9.856999516E-1,1.955595897E0
1.448011778E1,-1.558699965E0,2.997999787E-1,9.605000019E-1,1.855258975E0
1.449011778E1,-1.410799980E0,3.858000040E-1,8.971999884E-1,1.715857234E0
1.450011778E1,-1.370599985E0,4.815999866E-1,8.152999878E-1,1.665892234E0
1.451011778E1,-1.349299908E0,5.971999764E-1,7.543999553E-1,1.657219764E0
1.452011778E1,-1.297699928E0,7.331999540E-1,7.236999869E-1,1.656909457E0
1.453011778E1,-1.156599998E0,7.821999788E-1,6.829999685E-1,1.554364603E0
1.454011778E1,-7.197999954E-1,7.247999907E-1,6.995999813E-1,1.238098217E0
1.455011778E1,-1.357000023E-1,5.597999692E-1,6.930999756E-1,9.012092278E-1
1.456011778E1,4.174999893E-1,3.245999813E-1,6.717000008E-1,8.548989881E-1
1.457011778E1,9.190999866E-1,-3.109999932E-2,6.046000123E-1,1.100569475E0
1.458011778E1,1.506599903E0,-2.815999985E-1,5.382999778E-1,1.624471820E0
1.459011778E1,2.218899965E0,-2.798999846E-1,7.935999632E-1,2.373112294E0
1.460011778E1,3.134699821E0,-2.705999911E-1,3.725000024E-1,3.168331355E0
1.461011778E1,4.057799816E0,-1.659999937E-1,-1.133199930E0,4.216329853E0
1.462011778E1,5.053499699E0,-2.459999919E-2,-4.818999767E0,6.982923680E0
1.463011778E1,5.773200035E0,1.911999881E-1,-1.005589962E1,1.159687515E1
1.464011778E1,5.063600063E0,-1.087999940E-1,-1.107209969E1,1.217551948E1
1.465011778E1,4.633399963E0,-4.004999995E-1,-7.827299595E0,9.104691890E0
1.466011778E1,4.389100075E0,-5.969999731E-2,-5.460599899E0,7.006134085E0
1.467011778E1,3.780299902E0,3.299999833E-1,-4.329999924E0,5.757470510E0
1.468011778E1,3.472899914E0,3.349999785E-1,-3.819499969E0,5.173184591E0
1.469011778E1,3.419199944E0,9.409999847E-2,-3.420899868E0,4.837596404E0
1.470011778E1,3.434399843E0,-1.261000037E-1,-2.986799955E0,4.553238130E0
1.471011778E1,3.499199867E0,-2.463999987E-1,-2.382699966E0,4.240562675E0
1.472011778E1,3.493399858E0,-3.569999933E-1,-1.579699993E0,3.850551082E0
1.473011934E1,3.139400005E0,-4.709999859E-1,-8.290999532E-1,3.281018152E0
1.474011778E1,2.338199854E0,-3.549999893E-1,-1.124999970E-1,2.367669698E0
1.475011778E1,1.346199989E0,-1.899999939E-2,2.748000026E-1,1.374092592E0
1.476011778E1,3.312999904E-1,2.820999920E-1,4.793999791E-1,6.474290920E-1
1.477011778E1,-2.936999798E-1,3.333999813E-1,6.793999672E-1,8.117878670E-1
1.478011778E1,-5.579999685E-1,-1.169999968E-2,8.985999823E-1,1.057819825E0
1.479011778E1,-4.609999955E-1,-5.663999915E-1,1.099699974E0,1.320102261E0
1.480011778E1,-1.590999961E-1,-1.329100013E0,1.188899994E0,1.790335960E0
1.481011778E1,3.574000001E-1,-2.113100052E0,9.569999576E-1,2.347078079E0
1.482011778E1,2.637999952E-1,-3.076399803E0,7.232999802E-1,3.171275618E0
1.483011778E1,-1.640999913E-1,-4.001999855E0,4.397999942E-1,4.029436149E0
1.484011778E1,-5.988000035E-1,-4.237999916E0,-3.899999894E-3,4.280095787E0
1.485011778E1,-1.559000015E0,-4.606899738E0,-6.830000132E-2,4.864018003E0
1.486011778E1,-3.101099968E0,-5.086599827E0,-5.399999768E-2,5.957619895E0
1.487011778E1,-3.462100029E0,-4.540999889E0,3.737999797E-1,5.722459526E0
1.488011778E1,-3.080600023E0,-3.115299940E0,7.849999666E-1,4.451001592E0
1.489011778E1,-3.139999866E0,-1.925899982E0,1.069100022E0,3.835578804E0
1.490011778E1,-3.233500004E0,-1.174199939E0,1.227699995E0,3.652603872E0
1.491011778E1,-3.217299938E0,-7.050999999E-1,1.169299960E0,3.495060414E0
1.492011778E1,-3.398199797E0,-5.108000040E-1,9.103999734E-1,3.554927090E0
1.493011778E1,-3.570599794E0,-4.145999849E-1,7.297999859E-1,3.667926398E0
1.494011934E1,-3.448899984E0,-1.696999967E-1,3.949999809E-1,3.475591198E0
1.495011778E1,-3.318199873E0,2.615999877E-1,1.184000000E-1,3.330601073E0
1.496011778E1,-3.297499895E0,5.730999708E-1,-2.011999935E-1,3.352973393E0
1.497011778E1,-3.297600031E0,8.520999551E-1,-3.773999810E-1,3.426758095E0
1.498011778E1,-3.248600006E0,1.010499954E0,-4.423999786E-1,3.430776865E0
1.499011778E1,-3.149099827E0,1.048599958E0,-3.127999902E-1,3.333801948E0
1.500011778E1,-2.772399902E0,1.026000023E0,-3.330999911E-1,2.974866866E0
1.501011934E1,-1.726499915E0,1.020699978E0,-3.389999866E-1,2.034097194E0
1.502011778E1,-1.210399985E0,1.049199939E0,-2.639999986E-1,1.623448378E0
1.503011778E1,-1.294499993E0,1.030799985E0,1.832000017E-1,1.664884705E0
1.504011778E1,-1.772300005E0,1.036700010E0,9.071999788E-1,2.244728496E0
1.505011778E1,-2.347300053E0,1.161599994E0,1.807099938E0,3.181940017E0
1.506011778E1,-2.695699930E0,1.323400021E0,2.278800011E0,3.769763284E0
1.507011778E1,-2.653300047E0,1.367799997E0,2.388900042E0,3.823312880E0
1.508011778E1,-2.195199966E0,1.204399943E0,2.406699896E0,3.472993882E0
1.509011778E1,-1.571799994E0,1.004599929E0,2.232100010E0,2.908959727E0
1.510011778E1,-1.168699980E0,6.748999953E-1,2.113999844E0,2.508056017E0
1.511011778E1,-7.010999918E-1,5.370999575E-1,1.740799904E0,1.952025069E0
1.512011778E1,-5.425999761E-1,5.027999878E-1,1.005100012E0,1.247977802E0
1.513011778E1,-4.590999782E-1,4.913999736E-1,2.334999889E-1,7.118770743E-1
1.514011778E1,-3.240000010E-1,5.335999727E-1,-5.625000000E-1,8.403042196E-1
1.515011778E1,-1.357000023E-1,4.160999954E-1,-1.314399958E0,1.385352282E0
1.516011778E1,3.831000030E-1,3.177999854E-1,-1.982299924E0,2.043838406E0
1.517011778E1,1.154799938E0,9.250000119E-2,-2.549199820E0,2.800096225E0
1.518011778E1,2.541100025E0,-1.515000015E-1,-3.613799810E0,4.420372231E0
1.519011778E1,4.568699837E0,1.489999983E-2,-6.894099712E0,8.270541158E0
1.520011778E1,5.628200054E0,1.054999977E-1,-9.763199806E0,1.126977536E1
1.521011778E1,4.567899704E0,7.759999484E-2,-6.931900024E0,8.301985751E0
1.522011778E1,3.804699898E0,5.586999655E-1,-4.093699932E0,5.616606279E0
1.523011778E1,3.711299896E0,1.267899990E0,-3.490199804E0,5.250029712E0
1.524011778E1,3.788100004E0,1.818599939E0,-3.375000000E0,5.389585548E0
1.525011778E1,2.983899832E0,2.148999929E0,-3.365599871E0,4.984889306E0
1.526011778E1,2.300999880E0,2.494199991E0,-2.615900040E0,4.284689844E0
1.527011778E1,2.399799824E0,2.554600000E0,-1.928799987E0,4.000661164E0
1.528011778E1,2.826400042E0,2.103600025E0,-1.368899941E0,3.779888532E0
1.529011778E1,2.638900042E0,1.044099927E0,-2.915999889E-1,2.852887772E0
1.530011778E1,1.769499898E0,-1.595999897E-1,5.036999583E-1,1.846704008E0
1.531011778E1,1.505999923E0,-1.101099968E0,9.960999489E-1,2.114869267E0
1.532011778E1,1.977699995E0,-2.005599976E0,5.934999585E-1,2.878536214E0
1.533011778E1,1.811599970E0,-2.770799875E0,4.272999763E-1,3.337935240E0
1.534011778E1,1.165899992E0,-2.663800001E0,8.923999667E-1,3.041632939E0
1.535011778E1,3.921999931E-1,-2.510099888E0,1.291399956E0,2.849936162E0
1.536011778E1,4.030000046E-2,-2.523299932E0,1.621699929E0,2.999762874E0
1.537011778E1,5.240000039E-2,-2.906899929E0,1.771799922E0,3.404715542E0
1.538011778E1,2.712000012E-1,-3.209599972E0,1.847000003E0,3.713016352E0
1.539011778E1,1.465999931E-1,-3.786000013E0,2.004299879E0,4.286316095E0
1.540011778E1,1.988999993E-1,-3.967700005E0,2.251399994E0,4.566290230E0
1.541011778E1,1.032999977E-1,-4.069900036E0,2.271999836E0,4.662267736E0
1.542011778E1,1.745999902E-1,-3.866400003E0,2.302099943E0,4.503243086E0
1.543011778E1,-4.305000007E-1,-4.202300072E0,2.298199892E0,4.808989383E0
1.544011778E1,-1.977999955E-1,-3.906499863E0,2.138999939E0,4.458159570E0
1.545011778E1,-2.047999948E-1,-3.558199883E0,2.030200005E0,4.101760780E0
1.546011778E1,-3.632999957E-1,-3.099399805E0,1.987899899E0,3.700001628E0
1.547011778E1,-5.447999835E-1,-2.410799980E0,1.925699949E0,3.133222600E0
1.548011778E1,-1.034899950E0,-1.640499949E0,1.812999964E0,2.655038015E0
1.549011778E1,-1.578799963E0,-8.563999534E-1,1.617200017E0,2.416891826E0
1.550011778E1,-2.039099932E0,-1.560999900E-1,1.561699986E0,2.573169755E0
1.551011778E1,-2.377599955E0,4.399999976E-1,1.446799994E0,2.817767159E0
1.552011778E1,-2.604799986E0,9.120000005E-1,1.406399965E0,3.097529311E0
1.553011778E1,-2.741400003E0,1.287999988E0,1.419600010E0,3.345068330E0
1.554011778E1,-2.856899977E0,1.577099919E0,1.494099975E0,3.589074584E0
1.555011778E1,-2.992199898E0,1.708899975E0,1.625699997E0,3.810052471E0
1.556011778E1,-3.079699993E0,1.702999949E0,1.731400013E0,3.922053911E0
1.557011778E1,-2.992300034E0,1.657799959E0,1.797899961E0,3.864531597E0
1.558011778E1,-2.916899920E0,1.484699965E0,1.802599907E0,3.736576715E0
1.559011778E1,-2.765100002E0,1.262699962E0,1.763599992E0,3.514324138E0
1.560011778E1,-2.497200012E0,1.031700015E0,1.691399932E0,3.187671023E0
1.561011778E1,-2.220599890E0,8.014000058E-1,1.587499976E0,2.844901055E0
1.562011778E1,-1.998699903E0,5.911999941E-1,1.434000015E0,2.529955490E0
1.563011778E1,-1.805599928E0,4.199999869E-1,1.330399990E0,2.281787725E0
1.564011778E1,-1.626999974E0,3.770999908E-1,1.143000007E0,2.023803927E0
1.565011778E1,-1.564700007E0,4.131999910E-1,9.869999886E-1,1.895570976E0
1.566011778E1,-1.470899940E0,4.407999814E-1,9.043999910E-1,1.782074802E0
1.567011778E1,-1.423599958E0,4.894999862E-1,8.580999970E-1,1.732796204E0
1.568011778E1,-1.314899921E0,6.283000112E-1,8.089999557E-1,1.666794419E0
1.569011778E1,-1.282299995E0,7.488999963E-1,7.768999934E-1,1.675923054E0
1.570011778E1,-1.247399926E0,8.808999658E-1,7.615000010E-1,1.706421278E0
1.571011778E1,-1.210099936E0,1.004799962E0,7.720999718E-1,1.752170992E0
1.572011778E1,-1.012899995E0,1.170499921E0,7.787999511E-1,1.732791340E0
1.573011778E1,-6.960999966E-1,1.209999919E0,8.488999605E-1,1.633795015E0
1.574011778E1,-2.215999961E-1,1.132300019E0,9.106000066E-1,1.469830692E0
1.575011778E1,3.008999825E-1,1.141600013E0,1.420400023E0,1.846977968E0
1.576011778E1,1.242999911E0,1.130499959E0,1.723999977E0,2.407333558E0
1.577011778E1,2.465499878E0,1.090999961E0,2.761999965E-1,2.710213460E0
1.578011778E1,3.684000015E0,7.763999701E-1,-2.647599936E0,4.602655586E0
1.579011778E1,3.988299847E0,-2.203999907E-1,-5.072799683E0,6.456656135E0
1.580011778E1,3.683699846E0,-1.187899947E0,-5.112499714E0,6.412363384E0
1.581011778E1,3.762499809E0,-1.562099934E0,-4.631099701E0,6.167953101E0
1.582011778E1,4.049699783E0,-1.288100004E0,-4.382499695E0,6.104553508E0
1.583011778E1,3.964399815E0,-7.285000086E-1,-4.291399956E0,5.887553969E0
1.584011778E1,3.651499987E0,-1.169999968E-2,-4.239399910E0,5.595185487E0
1.585011778E1,3.374300003E0,7.529000044E-1,-3.871099949E0,5.190199779E0
1.586011778E1,3.504099846E0,1.092000008E0,-3.354599953E0,4.972375749E0
1.587011778E1,4.216300011E0,8.161000013E-1,-2.889199972E0,5.175971549E0
1.588011778E1,4.763899803E0,8.980000019E-2,-2.625000000E0,5.439984409E0
1.589011778E1,4.812900066E0,-5.771999955E-1,-2.449699879E0,5.431224206E0
1.590011778E1,4.375499725E0,-9.365999699E-1,-2.081500053E0,4.935064318E0
1.591011778E1,3.385599852E0,-8.574999571E-1,-1.485899925E0,3.795456642E0
1.592011778E1,2.159600019E0,-4.450999796E-1,-7.357999682E-1,2.324518838E0
1.593011778E1,1.100899935E0,6.589999795E-2,-1.199999941E-3,1.102871215E0
1.594011778E1,4.553000033E-1,4.398999810E-1,5.985999703E-1,8.712818205E-1
1.595011778E1,6.480000168E-2,5.573999882E-1,9.056999683E-1,1.065451181E0
1.596011778E1,1.045999974E-1,2.992999852E-1,1.167599916E0,1.209880658E0
1.597011778E1,5.054000020E-1,-2.856000066E-1,1.460799932E0,1.571920153E0
1.598011778E1,9.236999750E-1,-9.225999713E-1,1.740099907E0,2.175398823E0
1.599011778E1,1.202799916E0,-1.591199994E0,1.801800013E0,2.687959885E0
1.600011778E1,1.273699999E0,-2.153300047E0,1.610799909E0,2.975514934E0
1.601011778E1,9.799000025E-1,-2.657699823E0,1.160300016E0,3.061024092E0
1.602011778E1,5.680999756E-1,-2.838399887E0,4.994999766E-1,2.937473698E0
1.603011778E1,-1.859999895E-1,-3.037999868E0,-4.230000079E-2,3.043982340E0
1.604011778E1,-8.190999627E-1,-3.166199923E0,-4.287999868E-1,3.298426311E0
1.605011778E1,-1.828899980E0,-3.544699907E0,-4.809999764E-1,4.017602960E0
1.606011778E1,-2.536999941E0,-3.553599834E0,-4.077999890E-1,4.385286914E0
1.607011778E1,-2.664899826E0,-2.756899834E0,-9.649999440E-2,3.835557329E0
1.608011778E1,-2.714499950E0,-1.519400001E0,2.946999967E-1,3.124729497E0
1.609011778E1,-2.964599848E0,-6.003999710E-1,4.298999906E-1,3.055183527E0
1.610011778E1,-3.163199902E0,-1.209999993E-2,3.208000064E-1,3.179448485E0
1.611011778E1,-3.428999901E0,2.153999954E-1,3.289999813E-2,3.435916164E0
1.612011778E1,-3.596400023E0,2.937999964E-1,3.130000085E-2,3.608516489E0
1.613011778E1,-3.533499956E0,4.116999805E-1,2.239999920E-2,3.557473903E0
1.614011778E1,-3.352099895E0,5.763999820E-1,-2.355999947E-1,3.409445410E0
1.615011778E1,-3.169999838E0,6.035000086E-1,-4.517999887E-1,3.258409806E0
1.616011778E1,-2.869899988E0,5.597999692E-1,-6.995999813E-1,3.006516603E0
1.617011778E1,-2.255300045E0,6.994000077E-1,-7.572999597E-1,2.479726173E0
1.618011778E1,-1.749699950E0,9.307999611E-1,-6.225000024E-1,2.077340785E0
1.619011778E1,-1.453199983E0,1.074800014E0,-4.347999990E-1,1.859041769E0
1.620011778E1,-1.493799925E0,1.062299967E0,-7.899999619E-2,1.834709905E0
1.621011778E1,-1.811199903E0,9.542999864E-1,3.716000021E-1,2.080677802E0
1.622011778E1,-2.078199863E0,8.740999699E-1,1.156199932E0,2.533725264E0
1.623011778E1,-2.420899868E0,8.466999531E-1,1.508099914E0,2.975234836E0
1.624011778E1,-2.593999863E0,9.050999880E-1,1.919399977E0,3.351438131E0
1.625011778E1,-2.541100025E0,9.325999618E-1,2.294100046E0,3.548214628E0
1.626011778E1,-2.288399935E0,7.599999905E-1,2.513900042E0,3.483398867E0
1.627011778E1,-2.058399916E0,4.127999842E-1,3.335299969E0,3.941020163E0
1.628011778E1,-1.424799919E0,1.340000033E-1,3.012899876E0,3.335502432E0
1.629011778E1,-1.191799998E0,-2.089999989E-2,2.443300009E0,2.718554575E0
1.630011778E1,-1.217800021E0,-9.299999475E-2,1.883699894E0,2.244996922E0
1.631011778E1,-1.131699920E0,-3.079999983E-2,1.260399938E0,1.694196373E0
1.632011778E1,-8.877999783E-1,1.182999983E-1,6.747999787E-1,1.121400331E0
1.633011778E1,-6.495999694E-1,1.392000020E-1,8.929999918E-2,6.703217516E-1
1.634011778E1,-3.959999979E-1,1.159999985E-2,-4.848999977E-1,6.261617731E-1
1.635011778E1,1.119999960E-2,-1.268000007E-1,-1.037899971E0,1.045676829E0
1.636011778E1,6.218999624E-1,-2.166000009E-1,-1.646899939E0,1.773683887E0
1.637011778E1,1.386500001E0,-2.770999968E-1,-2.559000015E0,2.923636048E0
1.638011778E1,2.893399954E0,-8.209999651E-2,-4.396800041E0,5.264062529E0
1.639011778E1,5.544399738E0,5.440999866E-1,-9.681200027E0,1.116969325E1
1.640011778E1,5.290299892E0,4.275999963E-1,-1.015859985E1,1.146155599E1
1.641011778E1,4.003999710E0,6.310999990E-1,-5.465799809E0,6.804797457E0
1.642011778E1,3.668999910E0,1.447499990E0,-4.172599792E0,5.741724967E0
1.643011778E1,3.521999836E0,2.303799868E0,-4.653899670E0,6.274612244E0
1.644011778E1,2.360599995E0,2.508100033E0,-4.014499664E0,5.289537377E0
1.645011778E1,2.377699852E0,2.269999981E0,-2.556900024E0,4.164624141E0
1.646011778E1,3.241499901E0,1.746999979E0,-1.527799964E0,3.986665682E0
1.647011778E1,2.948899984E0,7.784999609E-1,-1.590899944E0,3.439918014E0
1.648011778E1,3.741499901E0,2.294999957E-1,-9.646999836E-1,3.870676661E0
1.649011778E1,3.579299927E0,-3.915999830E-1,-3.815999925E-1,3.620822706E0
