"Time (s)","Linear Acceleration x (m/s^2)","Linear Acceleration y (m/s^2)","Linear Acceleration z (m/s^2)","Absolute acceleration (m/s^2)"
2.170366000E-3,-1.150999963E-1,-1.179799914E0,4.214999974E-1,1.258108936E0
1.216411600E-2,4.211800098E0,-2.631500006E0,1.485299945E0,5.183644304E0
2.216411600E-2,4.613699913E0,-2.719799995E0,1.240399957E0,5.497465867E0
3.216567800E-2,5.181799889E0,-2.808399916E0,9.377999902E-1,5.968050686E0
4.216567800E-2,5.798099995E0,-3.005199909E0,5.780999660E-1,6.556171872E0
5.216411600E-2,6.109499931E0,-3.084499836E0,2.010999918E-1,6.846938721E0
6.216411600E-2,6.096499920E0,-3.134299994E0,2.699999837E-3,6.855009483E0
7.216411600E-2,5.858200073E0,-3.261799812E0,1.580999941E-1,6.706924908E0
8.216567800E-2,5.484399796E0,-3.544799805E0,8.209999800E-1,6.581662992E0
9.216411600E-2,5.064099789E0,-3.708799839E0,1.694700003E0,6.501716005E0
1.021656780E-1,4.763499737E0,-3.676199913E0,2.386800051E0,6.473190096E0
1.121656780E-1,4.639899731E0,-3.516599894E0,2.508199930E0,6.339259516E0
1.221656780E-1,4.760099888E0,-3.318799973E0,2.229199886E0,6.216294421E0
1.321656780E-1,5.073199749E0,-2.957700014E0,1.855499983E0,6.158589551E0
1.421656780E-1,5.490299702E0,-2.542799950E0,1.679999948E0,6.279460345E0
1.521656780E-1,5.914000034E0,-1.986400008E0,1.643299937E0,6.451481697E0
1.621656780E-1,6.481099606E0,-1.089499950E0,1.673200011E0,6.781685669E0
1.721656780E-1,6.938199997E0,-2.478999943E-1,1.684199929E0,7.143990692E0
1.821656780E-1,7.261199951E0,4.669999778E-1,1.555199981E0,7.440548413E0
1.921656780E-1,7.574899673E0,1.016399980E0,1.323699951E0,7.756568542E0
2.021656780E-1,7.779299736E0,1.519500017E0,1.086099982E0,8.000374857E0
2.121656780E-1,7.943999767E0,2.120499849E0,8.732999563E-1,8.268391907E0
2.221656780E-1,7.985199928E0,2.544699907E0,7.879999876E-1,8.417829857E0
2.321656780E-1,8.101200104E0,2.981799841E0,7.196999788E-1,8.662478945E0
2.421656780E-1,8.315199852E0,3.397599936E0,6.592000127E-1,9.006707420E0
2.521656780E-1,8.720499992E0,3.644399881E0,7.958999872E-1,9.484841981E0
2.621656780E-1,9.097299576E0,3.819299936E0,1.150099993E0,9.933309699E0
2.721656780E-1,9.178500175E0,3.930599928E0,1.630999923E0,1.011704710E1
2.821656780E-1,9.033399582E0,4.007100105E0,2.056099892E0,1.009389449E1
2.921656780E-1,8.800499916E0,3.959800005E0,2.486899853E0,9.965615171E0
3.021656780E-1,8.453100204E0,3.749599934E0,2.809700012E0,9.664823686E0
3.121656780E-1,8.073399544E0,3.406999826E0,3.117599964E0,9.300906276E0
3.221656780E-1,7.516899586E0,3.245800018E0,3.386499882E0,8.860438961E0
3.321656780E-1,6.651000023E0,3.139199972E0,3.541999817E0,8.163096255E0
3.421656780E-1,5.667399883E0,3.147099972E0,3.294199944E0,7.271548180E0
3.521656780E-1,4.660900116E0,3.174000025E0,2.580499887E0,6.201390628E0
3.621656780E-1,3.841699839E0,3.261499882E0,1.707299948E0,5.320799962E0
3.721656780E-1,3.396600008E0,3.264299870E0,9.478999972E-1,4.805315771E0
3.821656780E-1,3.303799868E0,3.064699888E0,4.109999835E-1,4.525085630E0
3.921656780E-1,3.451799870E0,2.710799932E0,1.072999984E-1,4.390315695E0
4.021656780E-1,3.934000015E0,2.170899868E0,6.509999931E-2,4.493706751E0
4.121656780E-1,4.578700066E0,1.450199962E0,-3.260000050E-2,4.802982092E0
4.221656780E-1,5.323100090E0,3.773999810E-1,-1.413999945E-1,5.338334878E0
4.321656780E-1,5.801300049E0,-9.047999978E-1,-3.134999871E-1,5.879798256E0
4.421656780E-1,5.876100063E0,-2.299799919E0,-4.144999981E-1,6.323720572E0
4.521656780E-1,5.709399700E0,-3.687399864E0,-4.118999839E-1,6.809098640E0
4.621656780E-1,5.397299767E0,-5.012000084E0,-3.533999920E-1,7.374000350E0
4.721656780E-1,4.898299694E0,-6.315299988E0,4.569999874E-2,7.992399034E0
4.821656780E-1,4.387599945E0,-7.411499977E0,5.753999949E-1,8.632059450E0
4.921656780E-1,3.882299900E0,-8.126299858E0,1.090299964E0,9.071811060E0
5.021656780E-1,3.415299892E0,-8.622200012E0,1.526299953E0,9.398733848E0
5.121656780E-1,2.872099876E0,-8.888799667E0,2.025500059E0,9.558366373E0
5.221656780E-1,2.406499863E0,-8.944199562E0,2.537499905E0,9.603585433E0
5.321656780E-1,2.009399891E0,-8.994099617E0,3.008499861E0,9.694461679E0
5.421656780E-1,1.603099942E0,-9.078700066E0,3.413299799E0,9.830734450E0
5.521656780E-1,1.227199912E0,-9.167599678E0,3.756799936E0,9.983208364E0
5.621656780E-1,1.029500008E0,-9.201299667E0,3.982999802E0,1.007909089E1
5.721656780E-1,9.212999940E-1,-9.377200127E0,4.038899899E0,1.025150663E1
5.821656780E-1,8.330000043E-1,-9.647099495E0,3.844599962E0,1.041831880E1
5.921656780E-1,7.735999823E-1,-1.000159931E1,3.575599909E0,1.064966480E1
6.021656780E-1,6.730999947E-1,-1.039109993E1,3.321899891E0,1.092991492E1
6.121656780E-1,6.478999853E-1,-1.076529980E1,2.966699839E0,1.118538162E1
6.221656780E-1,7.847999930E-1,-1.112360001E1,2.494199991E0,1.142678528E1
6.321656780E-1,1.061900020E0,-1.152460003E1,2.146699905E0,1.177082656E1
6.421656780E-1,1.379400015E0,-1.197919941E1,1.941999912E0,1.221373516E1
6.521656780E-1,1.706499934E0,-1.246729946E1,1.757900000E0,1.270574320E1
6.621656780E-1,2.013099909E0,-1.294869995E1,1.508000016E0,1.319073409E1
6.721656780E-1,2.101999998E0,-1.351949978E1,1.290300012E0,1.374263993E1
6.821656780E-1,1.854299903E0,-1.381259918E1,1.050999999E0,1.397608405E1
6.921656780E-1,1.543499947E0,-1.384429932E1,8.016999960E-1,1.395312648E1
7.021656780E-1,1.256500006E0,-1.370199966E1,3.800999820E-1,1.376473985E1
7.121656780E-1,1.187699914E0,-1.374829960E1,7.299999893E-2,1.379969934E1
7.221656780E-1,9.984999895E-1,-1.374930000E1,-6.030000001E-2,1.378564068E1
7.321656780E-1,1.007099986E0,-1.400089931E1,1.508999914E-1,1.403788456E1
7.421656780E-1,9.009000063E-1,-1.426139927E1,7.439000010E-1,1.430917598E1
7.521656780E-1,5.414000154E-1,-1.433329964E1,1.163800001E0,1.439065749E1
7.621750530E-1,1.424999982E-1,-1.422459984E1,1.080799937E0,1.426631260E1
7.721656780E-1,-2.286999971E-1,-1.407249928E1,7.680999637E-1,1.409530124E1
7.821656780E-1,-5.045999885E-1,-1.406429958E1,4.638999999E-1,1.408099241E1
7.921656780E-1,-6.669999957E-1,-1.412139988E1,3.260999918E-1,1.414090396E1
8.021656780E-1,-6.291999817E-1,-1.431219959E1,3.652999997E-1,1.433068016E1
8.121656780E-1,-4.704999924E-1,-1.466650009E1,5.623999834E-1,1.468481831E1
8.221656780E-1,-3.800999820E-1,-1.498670006E1,8.291999698E-1,1.501443396E1
8.321656780E-1,-3.996999860E-1,-1.517329979E1,1.136799932E0,1.522107423E1
8.421656780E-1,-6.599999666E-1,-1.517539978E1,1.268700004E0,1.524263619E1
8.521656780E-1,-1.075999975E0,-1.494219971E1,1.124599934E0,1.502304340E1
8.621656780E-1,-1.443699956E0,-1.452149963E1,6.628999710E-1,1.460813669E1
8.721656780E-1,-1.673999906E0,-1.414029980E1,1.800999939E-1,1.424018223E1
8.821656780E-1,-1.695599914E0,-1.388999939E1,-1.828999966E-1,1.399430579E1
8.921656780E-1,-1.497299910E0,-1.389969921E1,-3.612000048E-1,1.398477782E1
9.021656780E-1,-1.185299993E0,-1.416119957E1,-2.725999951E-1,1.421333248E1
9.121656780E-1,-1.074000001E0,-1.440909958E1,-1.630000025E-1,1.444998947E1
9.221656780E-1,-1.203299999E0,-1.450449944E1,-1.048999950E-1,1.455470504E1
9.321656780E-1,-1.604299903E0,-1.448379993E1,-2.913999856E-1,1.457529254E1
9.421656780E-1,-2.092099905E0,-1.419639969E1,-6.015999913E-1,1.436233159E1
9.521656780E-1,-2.518599987E0,-1.375859928E1,-8.430999517E-1,1.401260924E1
9.621656780E-1,-2.712800026E0,-1.323169994E1,-8.747999668E-1,1.353522968E1
9.721656780E-1,-2.711099863E0,-1.265579987E1,-5.846999884E-1,1.295612623E1
9.821656780E-1,-2.335299969E0,-1.230669975E1,-7.229999453E-2,1.252652035E1
9.921656780E-1,-1.789399981E0,-1.229409981E1,7.299999595E-1,1.244506900E1
1.002165678E0,-1.082599998E0,-1.243169975E1,1.297999978E0,1.254607450E1
1.012165678E0,-2.145999968E-1,-1.242459965E1,1.544099927E0,1.252201957E1
1.022165678E0,4.347999990E-1,-1.253899956E1,1.427299976E0,1.262746000E1
1.032165678E0,6.830999851E-1,-1.270849991E1,9.341999888E-1,1.276108636E1
1.042165678E0,6.392999887E-1,-1.277619934E1,1.019999981E-1,1.279259075E1
1.052165678E0,4.696999788E-1,-1.268069935E1,-7.057999969E-1,1.270900892E1
1.062165678E0,2.326999903E-1,-1.242939949E1,-1.309599996E0,1.250036692E1
1.072165678E0,2.511000037E-1,-1.206769943E1,-1.470600009E0,1.215956764E1
1.082165678E0,2.026000023E-1,-1.150619984E1,-1.432199955E0,1.159676154E1
1.092165678E0,1.395999938E-1,-1.087249947E1,-1.344499946E0,1.095620431E1
1.102165678E0,-3.219999745E-2,-1.022719955E1,-1.221199989E0,1.029990179E1
1.112165678E0,-2.409999967E-1,-9.580999374E0,-1.055500031E0,9.641976474E0
1.122165678E0,-3.076999784E-1,-9.023499489E0,-6.815999746E-1,9.054435423E0
1.132165678E0,-2.099999934E-1,-8.487699509E0,-2.666999996E-1,8.494484789E0
1.142165678E0,-1.418000013E-1,-7.985099792E0,1.001999974E-1,7.986987290E0
1.152165678E0,-5.159999803E-2,-7.458999634E0,3.976999819E-1,7.469772645E0
1.162165678E0,2.588000000E-1,-7.008999825E0,6.726999879E-1,7.045962053E0
1.172165678E0,6.638000011E-1,-6.656799793E0,8.858999610E-1,6.748216999E0
1.182165678E0,1.125399947E0,-6.277999878E0,8.603000045E-1,6.435831229E0
1.192165678E0,1.487800002E0,-5.896299839E0,6.054999828E-1,6.111180808E0
1.202165678E0,1.849499941E0,-5.573100090E0,1.899999976E-1,5.875048480E0
1.212165678E0,2.450500011E0,-5.112599850E0,-9.420000017E-2,5.670317555E0
1.222165678E0,3.242499828E0,-5.020299911E0,7.429999858E-2,5.976850076E0
1.232165678E0,4.192399979E0,-4.662099838E0,8.672999740E-1,6.329581481E0
1.242165678E0,5.234299660E0,-4.224899769E0,1.788599968E0,6.960370739E0
1.252165678E0,6.368099689E0,-3.615299940E0,2.545199871E0,7.752491838E0
1.262165678E0,7.307899952E0,-2.779199839E0,3.012599945E0,8.378849078E0
1.272165678E0,8.040499687E0,-1.770399928E0,3.294299841E0,8.867714619E0
1.282165678E0,8.373700142E0,-7.512999773E-1,3.331099987E0,9.043203683E0
1.292165678E0,8.446999550E0,1.560000032E-1,3.272899866E0,9.060243426E0
1.302165678E0,8.322400093E0,8.910999894E-1,3.152799845E0,8.944079011E0
1.312165678E0,8.311200142E0,1.535699964E0,3.060499907E0,8.988942199E0
1.322167241E0,8.421799660E0,2.121999979E0,2.955499887E0,9.174125190E0
1.332165678E0,8.534899712E0,2.651999950E0,2.904899836E0,9.397662469E0
1.342165678E0,8.598599434E0,3.224499941E0,3.064699888E0,9.681203308E0
1.352165678E0,8.816199303E0,3.791099787E0,3.471899986E0,1.020548369E1
1.362165678E0,9.156099319E0,4.372200012E0,3.973799944E0,1.089685155E1
1.372165678E0,9.339599609E0,4.878299713E0,4.277999878E0,1.137221227E1
1.382165678E0,9.393499374E0,5.221699715E0,4.328499794E0,1.158619389E1
1.392165678E0,9.453100204E0,5.305999756E0,4.025399685E0,1.156367500E1
1.402165678E0,9.488999367E0,5.162899971E0,3.418399811E0,1.133058261E1
1.412165678E0,9.217000008E0,4.981299877E0,2.677599907E0,1.081369404E1
1.422165678E0,8.825900078E0,4.784199715E0,2.084399939E0,1.025328251E1
1.432165678E0,8.319299698E0,4.575399876E0,1.576499939E0,9.624467962E0
1.442165678E0,7.976599693E0,4.525700092E0,1.306999922E0,9.263711610E0
1.452165678E0,7.889400005E0,4.735899925E0,1.250599980E0,9.286300709E0
1.462165678E0,8.008999825E0,5.167200089E0,1.566599965E0,9.659102981E0
1.472165678E0,8.489899635E0,5.572999954E0,2.007599831E0,1.035215830E1
1.482165678E0,9.051400185E0,5.713999748E0,2.411900043E0,1.097246099E1
1.492165678E0,9.294400215E0,5.654599667E0,2.843999863E0,1.124494144E1
1.502165678E0,8.763999939E0,5.519399643E0,3.220999956E0,1.084648828E1
1.512165678E0,7.601699829E0,5.495800018E0,3.360100031E0,9.963931471E0
1.522165678E0,6.375400066E0,5.567899704E0,3.096099854E0,9.012938889E0
1.532165678E0,5.476299763E0,5.700999737E0,2.446799994E0,8.275148778E0
1.542165678E0,5.035399914E0,5.848399639E0,1.830500007E0,7.931567367E0
1.552165678E0,5.060599804E0,5.812999725E0,1.451900005E0,7.842745043E0
1.562165678E0,5.292399883E0,5.592400074E0,1.288999915E0,7.806789090E0
1.572165678E0,5.578199863E0,5.182899952E0,1.406199932E0,7.743136566E0
1.582165678E0,5.806999683E0,4.659800053E0,1.717899919E0,7.641083823E0
1.592165678E0,6.046799660E0,4.041100025E0,2.097499847E0,7.569265562E0
1.602165678E0,6.200599670E0,3.394099951E0,2.308099985E0,7.436039019E0
1.612165678E0,6.279099941E0,2.570199966E0,2.605000019E0,7.267671500E0
1.622165678E0,6.313199997E0,1.578099966E0,2.949999809E0,7.144885764E0
1.632165678E0,6.139899731E0,4.578000009E-1,3.275399923E0,6.973965457E0
1.642165678E0,5.979300022E0,-6.811999679E-1,3.532500029E0,6.978152951E0
1.652165678E0,5.796499729E0,-1.699299932E0,3.850600004E0,7.163389544E0
1.662165678E0,5.614699841E0,-2.652699947E0,4.340099812E0,7.576155865E0
1.672165678E0,5.251599789E0,-3.351999998E0,4.852900028E0,7.897204759E0
1.682165678E0,4.799900055E0,-3.734799862E0,5.236499786E0,8.025503134E0
1.692165678E0,4.253499985E0,-3.865899801E0,5.346299648E0,7.849863905E0
1.702165678E0,3.653199911E0,-3.713599920E0,5.156300068E0,7.329674232E0
1.712165678E0,3.110899925E0,-3.572399855E0,4.843299866E0,6.774754066E0
1.722165678E0,2.884500027E0,-3.138399839E0,4.411499977E0,6.134429558E0
1.732165678E0,2.595000029E0,-3.015499830E0,3.975999832E0,5.624574565E0
1.742165678E0,2.284699917E0,-3.078099966E0,3.505499840E0,5.194524255E0
1.752165678E0,2.021600008E0,-3.328599930E0,3.049899817E0,4.946547581E0
1.762175053E0,1.845299959E0,-3.776999950E0,2.680399895E0,4.985519447E0
1.772165678E0,1.629400015E0,-4.314899921E0,2.427099943E0,5.211920939E0
1.782165678E0,1.345700026E0,-4.881999969E0,2.221600056E0,5.529949283E0
1.792165678E0,1.064199924E0,-5.415999889E0,2.053900003E0,5.889319273E0
1.802165678E0,8.446999788E-1,-5.894599915E0,1.885899901E0,6.246314485E0
1.812165678E0,6.675999761E-1,-6.394000053E0,1.808399916E0,6.678265992E0
1.822165678E0,5.231999755E-1,-6.843899727E0,1.735599995E0,7.079901767E0
1.832165678E0,4.012999833E-1,-7.232800007E0,1.688499928E0,7.438109277E0
1.842165678E0,2.427999973E-1,-7.549899578E0,1.638700008E0,7.729506659E0
1.852165678E0,3.739999980E-2,-7.823199749E0,1.586300015E0,7.982493396E0
1.862165678E0,-2.053999901E-1,-8.071399689E0,1.540499926E0,8.219660705E0
1.872165678E0,-4.567999840E-1,-8.342000008E0,1.510299921E0,8.489913793E0
1.882165678E0,-7.565999627E-1,-8.545100212E0,1.533299923E0,8.714481614E0
1.892165678E0,-1.017300010E0,-8.708399773E0,1.577799916E0,8.908455449E0
1.902165678E0,-1.259400010E0,-8.792200089E0,1.691100001E0,9.041498216E0
1.912165678E0,-1.444499969E0,-8.864699364E0,1.841300011E0,9.168416477E0
1.922165678E0,-1.602800012E0,-8.984799385E0,1.936599970E0,9.329844978E0
1.932165678E0,-1.754699945E0,-9.034999847E0,1.776399970E0,9.373675426E0
1.942165678E0,-1.783199906E0,-9.162699699E0,1.377799988E0,9.435740591E0
1.952165678E0,-1.816100001E0,-9.389900208E0,8.797000051E-1,9.604286398E0
1.962165678E0,-1.882999897E0,-9.668999672E0,5.094999671E-1,9.863814348E0
1.972165678E0,-2.023399830E0,-1.002009964E1,3.164999783E-1,1.022725359E1
1.982165678E0,-2.120399952E0,-1.040269947E1,1.724999994E-1,1.061800398E1
1.992165678E0,-2.223999977E0,-1.090349960E1,7.580000162E-2,1.112826245E1
2.002165678E0,-2.521600008E0,-1.143260002E1,1.718999892E-1,1.170864465E1
2.012165678E0,-3.034899950E0,-1.180959988E1,3.802999854E-1,1.219925797E1
2.022165678E0,-3.698099852E0,-1.197049999E1,5.202999711E-1,1.253951852E1
2.032165678E0,-4.367499828E0,-1.192889977E1,4.330999851E-1,1.271067583E1
2.042165678E0,-4.840199947E0,-1.176869965E1,1.788999885E-1,1.272642260E1
2.052165678E0,-5.186800003E0,-1.164519978E1,-2.088999897E-1,1.274979260E1
2.062165678E0,-5.349299908E0,-1.151939964E1,-5.884000063E-1,1.271447176E1
2.072165678E0,-5.103499889E0,-1.142049980E1,-9.526999593E-1,1.254516497E1
2.082165678E0,-4.567699909E0,-1.154689980E1,-1.173599958E0,1.247285509E1
2.092165678E0,-3.968199968E0,-1.173399925E1,-1.192399979E0,1.244408161E1
2.102165678E0,-3.365499973E0,-1.171640015E1,-1.288599968E0,1.225810395E1
2.112165678E0,-2.779199839E0,-1.152390003E1,-1.334200025E0,1.192913716E1
2.122165678E0,-2.119699955E0,-1.114820004E1,-1.476999998E0,1.144364544E1
2.132165678E0,-1.590499997E0,-1.075990009E1,-1.617399931E0,1.099641409E1
2.142165678E0,-1.257799983E0,-1.047200012E1,-1.594999909E0,1.066718670E1
2.152165678E0,-1.050400019E0,-1.030799961E1,-1.369199991E0,1.045145467E1
2.162165678E0,-7.119999528E-1,-1.021920013E1,-9.608999491E-1,1.028894183E1
2.172165678E0,-2.892999947E-1,-1.024479961E1,-3.555999994E-1,1.025505071E1
2.182165678E0,1.516999900E-1,-1.024809933E1,1.942999959E-1,1.025106361E1
2.192165678E0,4.470999837E-1,-1.020979977E1,5.735999942E-1,1.023566933E1
2.202165678E0,4.816999733E-1,-1.006169987E1,8.032000065E-1,1.010519517E1
2.212165678E0,1.629000008E-1,-9.779099464E0,1.013199925E0,9.832797000E0
2.222165678E0,-1.283999979E-1,-9.615900040E0,1.282599926E0,9.701911291E0
2.232165678E0,-3.610999882E-1,-9.289400101E0,1.624399900E0,9.437267744E0
2.242165678E0,-4.102999866E-1,-8.885099411E0,2.053999901E0,9.128650131E0
2.252165678E0,-4.016999900E-1,-8.253999710E0,2.400499821E0,8.605363065E0
2.262165678E0,-2.739000022E-1,-7.435999870E0,2.353999853E0,7.804513476E0
2.272165678E0,-4.389999807E-2,-6.503900051E0,1.941599965E0,6.787669225E0
2.282165678E0,2.510000020E-2,-5.541299820E0,1.380699992E0,5.710776320E0
2.292165678E0,1.100999936E-1,-4.662899971E0,7.368999720E-1,4.722052490E0
2.302165678E0,1.709999889E-1,-3.874899864E0,2.440999895E-1,3.886344653E0
2.312165678E0,1.568999887E-1,-3.201900005E0,-1.775999963E-1,3.210657722E0
2.322165678E0,1.542999893E-1,-2.774299860E0,-5.036000013E-1,2.823855726E0
2.332165678E0,2.004999965E-1,-2.494299889E0,-7.495999932E-1,2.612208325E0
2.342165678E0,4.020999968E-1,-2.312099934E0,-8.637999892E-1,2.500728080E0
2.352165678E0,6.994000077E-1,-2.148099899E0,-8.946999907E-1,2.429811026E0
2.362165678E0,1.190099955E0,-2.070400000E0,-8.922999501E-1,2.549331925E0
2.372165678E0,1.628700018E0,-2.020299911E0,-8.093999624E-1,2.718345780E0
2.382167241E0,1.936800003E0,-1.879699945E0,-7.371999621E-1,2.797843799E0
2.392165678E0,2.281399965E0,-1.765699983E0,-5.995999575E-1,2.946523772E0
2.402165678E0,2.544600010E0,-1.677399993E0,-3.375999928E-1,3.066371423E0
2.412165678E0,2.726799965E0,-1.633299947E0,8.769999444E-2,3.179748112E0
2.422165678E0,2.917399883E0,-1.562999964E0,5.569999814E-1,3.356253856E0
2.432165678E0,3.166800022E0,-1.464800000E0,1.037299991E0,3.640089654E0
2.442165678E0,3.555099964E0,-1.219799995E0,1.427699924E0,4.020568972E0
2.452165678E0,4.082699776E0,-8.776999712E-1,1.784899950E0,4.541438377E0
2.462165678E0,4.543200016E0,-4.894999862E-1,2.009000063E0,4.991628780E0
2.472165678E0,4.954999924E0,-7.729999721E-2,2.029700041E0,5.355154693E0
2.482165678E0,5.394599915E0,3.075000048E-1,1.937099934E0,5.740088906E0
2.492165678E0,5.751399994E0,5.748000145E-1,1.884199977E0,6.079408400E0
2.502165678E0,5.816899776E0,8.799999952E-1,2.042000055E0,6.227398111E0
2.512165678E0,5.679299831E0,1.253099918E0,2.271800041E0,6.243859496E0
2.522165678E0,5.478199959E0,1.764999986E0,2.441499949E0,6.251945436E0
2.532165678E0,5.569399834E0,2.359099865E0,2.437399864E0,6.521080032E0
2.542165678E0,5.953700066E0,2.996299982E0,2.255899906E0,7.036578888E0
2.552165678E0,6.471799850E0,3.732899904E0,2.063299894E0,7.750867142E0
2.562165678E0,7.168799877E0,4.340899944E0,1.860499978E0,8.584670301E0
2.572173491E0,8.010999680E0,4.925199986E0,1.550400019E0,9.530868323E0
2.582165678E0,8.787899971E0,5.375799656E0,1.063699961E0,1.035653733E1
2.592165678E0,9.456399918E0,5.740699768E0,5.004000068E-1,1.107382199E1
2.602165678E0,9.944600105E0,6.059099674E0,-4.679999873E-2,1.164516854E1
2.612165678E0,1.038819981E1,6.401599884E0,-4.242999852E-1,1.220963582E1
2.622165678E0,1.101200008E1,6.779699802E0,-4.693000019E-1,1.294019775E1
2.632165678E0,1.151939964E1,7.144999981E0,-2.676999867E-1,1.355799602E1
2.642165678E0,1.169189930E1,7.477299690E0,-4.729999974E-2,1.387849982E1
2.652165678E0,1.161520004E1,7.736899853E0,1.102999970E-1,1.395652741E1
2.662165678E0,1.152069950E1,7.756099701E0,2.645999789E-1,1.389077437E1
2.672165678E0,1.135599995E1,7.416499615E0,6.517999768E-1,1.357895594E1
2.682165678E0,1.089519978E1,6.982999802E0,1.210600019E0,1.299743116E1
2.692165678E0,1.025899982E1,6.563999653E0,1.776399970E0,1.230807725E1
2.702165678E0,9.375800133E0,6.171400070E0,2.231299877E0,1.144423462E1
2.712165678E0,8.547100067E0,5.824699879E0,2.359099865E0,1.060874170E1
2.722165678E0,8.016300201E0,5.535299778E0,2.209899902E0,9.989207683E0
2.732165678E0,7.825299740E0,5.239199638E0,1.614699960E0,9.554673455E0
2.742165678E0,7.859499931E0,4.932499886E0,1.067799926E0,9.340315357E0
2.752165678E0,7.917699814E0,4.652100086E0,5.995000005E-1,9.202793370E0
2.762175053E0,7.935099602E0,4.346199989E0,3.476999998E-1,9.054068441E0
2.772165678E0,8.005299568E0,3.894899845E0,2.534999847E-1,8.906139917E0
2.782165678E0,8.055600166E0,3.148399830E0,4.515999854E-1,8.660776990E0
2.792165678E0,8.153999329E0,2.242199898E0,9.074999690E-1,8.505217318E0
2.802165678E0,8.293499947E0,1.165699959E0,1.358399987E0,8.484471008E0
2.812165678E0,8.470199585E0,-9.999999404E-2,1.764299989E0,8.652573921E0
2.822165678E0,8.376799583E0,-1.278800011E0,2.154999971E0,8.743576248E0
2.832165678E0,8.206799507E0,-2.308899879E0,2.511800051E0,8.887728410E0
2.842165678E0,7.977399826E0,-3.176699877E0,2.930699825E0,9.073000141E0
2.852165678E0,7.576999664E0,-3.820400000E0,3.299499989E0,9.104563704E0
2.862165678E0,6.882599831E0,-4.149499893E0,3.632099867E0,8.819335533E0
2.872165678E0,6.025099754E0,-4.063499928E0,3.941699982E0,8.267457738E0
2.882165678E0,5.202300072E0,-3.728199959E0,4.093899727E0,7.597592773E0
2.892165678E0,4.443099976E0,-3.320699930E0,4.084000111E0,6.888195869E0
2.902165678E0,3.843699932E0,-3.068599939E0,3.970099926E0,6.320761677E0
2.912165678E0,3.500900030E0,-3.072099924E0,3.781299829E0,5.999360580E0
2.922165678E0,3.228099823E0,-3.263899803E0,3.513399839E0,5.780800016E0
2.932165678E0,2.937299967E0,-3.537099838E0,3.095000029E0,5.542366962E0
2.942165678E0,2.569700003E0,-3.932099819E0,2.671900034E0,5.404055596E0
2.952165678E0,2.185099840E0,-4.409199715E0,2.294100046E0,5.429419716E0
2.962165678E0,1.872999907E0,-4.907499790E0,1.942699909E0,5.600514778E0
2.972165678E0,1.585799932E0,-5.434599876E0,1.638399959E0,5.893555096E0
2.982165678E0,1.284899950E0,-5.939799786E0,1.402499914E0,6.236921948E0
2.992165678E0,1.000499964E0,-6.440099716E0,1.198300004E0,6.626598481E0
3.002165678E0,6.936999559E-1,-6.972599983E0,9.984999895E-1,7.077808445E0
3.012165678E0,4.429999888E-1,-7.427000046E0,8.341999650E-1,7.486819635E0
3.022165678E0,1.599999964E-1,-7.801299572E0,7.554000020E-1,7.839419888E0
3.032165678E0,-8.669999987E-2,-8.163100243E0,7.322999835E-1,8.196339776E0
3.042165678E0,-4.253999889E-1,-8.492300034E0,8.044999838E-1,8.540921802E0
3.052165678E0,-9.052000046E-1,-8.758799553E0,8.919999599E-1,8.850515272E0
3.062165678E0,-1.467499971E0,-9.000800133E0,9.917999506E-1,9.173419555E0
3.072165678E0,-2.082900047E0,-9.167799950E0,1.051800013E0,9.460090475E0
3.082165678E0,-2.712399960E0,-9.337599754E0,9.801999927E-1,9.772853971E0
3.092165678E0,-3.316900015E0,-9.578299522E0,8.537999988E-1,1.017224763E1
3.102165678E0,-3.818599939E0,-9.937199593E0,6.829999685E-1,1.066752690E1
3.112165678E0,-4.306499958E0,-1.044139957E1,4.090999961E-1,1.130204096E1
3.122165678E0,-4.841300011E0,-1.100749969E1,1.260000002E-2,1.202511514E1
3.132165678E0,-5.299799919E0,-1.152950001E1,-4.630999863E-1,1.269770496E1
3.142165678E0,-5.707299709E0,-1.196059990E1,-9.730999470E-1,1.328819564E1
3.152165678E0,-5.992399693E0,-1.221409988E1,-1.403999925E0,1.367714538E1
3.162165678E0,-6.142199993E0,-1.229539967E1,-1.701099992E0,1.384908715E1
3.172165678E0,-6.015999794E0,-1.211179924E1,-1.899199963E0,1.365631337E1
3.182165678E0,-5.695799828E0,-1.166539955E1,-1.905799985E0,1.312081384E1
3.192165678E0,-5.163000107E0,-1.112839985E1,-1.666700006E0,1.238045808E1
3.202165678E0,-4.591499805E0,-1.075549984E1,-1.367499948E0,1.177423897E1
3.212164116E0,-4.061999798E0,-1.051420021E1,-9.375000000E-1,1.131048870E1
3.222165678E0,-3.617599964E0,-1.024440002E1,-4.444999993E-1,1.087346962E1
3.232165678E0,-3.261799812E0,-1.004109955E1,-1.577000022E-1,1.055878248E1
3.242165678E0,-2.912099838E0,-9.886099815E0,-3.260000050E-1,1.031123518E1
3.252165678E0,-2.459499836E0,-9.959300041E0,-6.735999584E-1,1.028059014E1
3.262165678E0,-2.199100018E0,-1.012430000E1,-1.106400013E0,1.041929040E1
3.272165678E0,-2.220499992E0,-1.021309948E1,-1.591699958E0,1.057220554E1
3.282165678E0,-2.524299860E0,-1.005490017E1,-1.955099940E0,1.054966933E1
3.292165678E0,-2.894399881E0,-9.693999290E0,-2.144000053E0,1.034156222E1
3.302165678E0,-3.035499811E0,-9.322500229E0,-2.184399843E0,1.004464396E1
3.312165678E0,-2.897300005E0,-8.996999741E0,-2.080800056E0,9.678330462E0
3.322165678E0,-2.546299934E0,-8.717599869E0,-1.875599980E0,9.273514227E0
3.332165678E0,-1.990299940E0,-8.455900192E0,-1.589999914E0,8.831287655E0
3.342165678E0,-1.187799931E0,-8.235499382E0,-1.253399968E0,8.414590318E0
3.352165678E0,-3.425000012E-1,-8.188199997E0,-9.136999846E-1,8.246136859E0
3.362165678E0,5.274999738E-1,-8.299399376E0,-5.798000097E-1,8.336333383E0
3.372165678E0,1.305299997E0,-8.552800179E0,-2.777000070E-1,8.656287673E0
3.382165678E0,1.823899984E0,-8.813199997E0,-2.389999852E-2,8.999982030E0
3.392165678E0,2.132299900E0,-9.071100235E0,1.826999933E-1,9.320136352E0
3.402165678E0,2.338299990E0,-9.187199593E0,2.533999979E-1,9.483485370E0
3.412165678E0,2.402899981E0,-9.198299408E0,2.854999900E-1,9.511264404E0
3.422165678E0,2.267799854E0,-9.063099861E0,2.681999803E-1,9.346369696E0
3.432165678E0,1.933799982E0,-8.632900238E0,1.807999909E-1,8.848685638E0
3.442165678E0,1.460600019E0,-7.995800018E0,1.902999878E-1,8.130337289E0
3.452165678E0,9.857999682E-1,-7.260499954E0,3.978999853E-1,7.337914251E0
3.462165678E0,5.295999646E-1,-6.396999836E0,7.159000039E-1,6.458683754E0
3.472165678E0,2.897999883E-1,-5.553499699E0,9.260999560E-1,5.637641711E0
3.482165678E0,2.577999830E-1,-4.703399658E0,1.055099964E0,4.827179830E0
3.492165678E0,2.085999995E-1,-3.948399782E0,1.042999983E0,4.089159298E0
3.502165678E0,1.517999917E-1,-3.243199825E0,8.698999882E-1,3.361266775E0
3.512165678E0,9.619999677E-2,-2.620699883E0,6.545999646E-1,2.702928676E0
3.522165678E0,8.919999748E-2,-2.132200003E0,4.903999865E-1,2.189686196E0
3.532165678E0,1.186999977E-1,-1.788699985E0,4.517000020E-1,1.848667146E0
3.542165678E0,3.405999839E-1,-1.580199957E0,5.023999810E-1,1.692762829E0
3.552165678E0,7.153999805E-1,-1.495499969E0,6.132999659E-1,1.767612553E0
3.562165678E0,1.135999918E0,-1.435499907E0,7.233999968E-1,1.968365655E0
3.572165678E0,1.427399993E0,-1.340199947E0,7.683999538E-1,2.103341420E0
3.582165678E0,1.503000021E0,-9.827999473E-1,8.009999990E-1,1.966343255E0
3.592165678E0,1.757200003E0,-4.495999813E-1,7.682999969E-1,1.969816458E0
3.602165678E0,2.259500027E0,8.329999447E-2,6.196999550E-1,2.344420460E0
3.612165678E0,2.911000013E0,5.945000052E-1,2.874999940E-1,2.984963581E0
3.622165678E0,3.670499802E0,1.041299939E0,-1.875000000E-1,3.819951650E0
3.632165678E0,4.525499821E0,1.323199987E0,-7.421999574E-1,4.773035471E0
3.642165678E0,5.285899639E0,1.457000017E0,-1.164199948E0,5.605260526E0
3.652165678E0,5.760799885E0,1.410300016E0,-1.260100007E0,6.063300543E0
3.662165678E0,5.997600079E0,1.261999965E0,-9.684999585E-1,6.204985317E0
3.672165678E0,6.203299999E0,1.161399961E0,-3.396999836E-1,6.320219682E0
3.682165678E0,6.410199642E0,1.228999972E0,4.751999974E-1,6.544227641E0
3.692165678E0,6.542699814E0,1.437199950E0,1.114799976E0,6.790820535E0
3.702165678E0,6.692299843E0,1.934499979E0,1.423399925E0,7.110220440E0
3.712165678E0,7.112499714E0,2.607499838E0,1.363899946E0,7.697202781E0
3.722165678E0,7.572399616E0,3.225499868E0,1.032400012E0,8.295235689E0
3.732165678E0,8.079799652E0,3.866099834E0,6.753999591E-1,8.982541703E0
3.742165678E0,8.501999855E0,4.335000038E0,4.806999862E-1,9.555485301E0
3.752165678E0,8.765500069E0,4.650000095E0,2.949000001E-1,9.926905779E0
3.762175053E0,9.053299904E0,4.703000069E0,2.087000012E-1,1.020411704E1
3.772165678E0,9.236299515E0,4.671299934E0,2.538000047E-1,1.035348667E1
3.782165678E0,9.324999809E0,4.625799656E0,3.624999821E-1,1.041561569E1
3.792165678E0,9.300499916E0,4.617000103E0,4.953999817E-1,1.039525901E1
3.802165678E0,9.125199318E0,4.764499664E0,6.529999971E-1,1.031484991E1
3.812165678E0,8.956299782E0,5.029999733E0,8.843999505E-1,1.031010991E1
3.822165678E0,8.931399345E0,5.345599651E0,1.071599960E0,1.046392165E1
3.832165678E0,9.196399689E0,5.583399773E0,1.273100019E0,1.083369300E1
3.842165678E0,9.395099640E0,5.653699875E0,1.577299953E0,1.107791021E1
3.852165678E0,9.406000137E0,5.671999931E0,1.991899967E0,1.116297842E1
3.862165678E0,8.993000031E0,5.686699867E0,2.384899855E0,1.090414381E1
3.872165678E0,8.227999687E0,5.875599861E0,2.513999939E0,1.041838991E1
3.882165678E0,7.526099682E0,6.103099823E0,2.422699928E0,9.987966701E0
3.892165678E0,6.919600010E0,6.341199875E0,2.070600033E0,9.611402845E0
3.902165678E0,6.703799725E0,6.472899914E0,1.735399961E0,9.478975528E0
3.912165678E0,6.808799744E0,6.350399971E0,1.480299950E0,9.427545899E0
3.922165678E0,6.986499786E0,6.099299908E0,1.418399930E0,9.382137123E0
3.932165678E0,7.048399925E0,5.747099876E0,1.553599954E0,9.226200264E0
3.942165678E0,7.278299809E0,5.253399849E0,1.780099988E0,9.150989785E0
3.952165678E0,7.607699871E0,4.607299805E0,2.157700062E0,9.152047769E0
3.962165678E0,7.968699932E0,3.846999884E0,2.627899885E0,9.230679526E0
3.972165678E0,8.106699944E0,3.098500013E0,3.062799931E0,9.203261907E0
3.982165678E0,8.073499680E0,2.234299898E0,3.519899845E0,9.086428783E0
3.992165678E0,8.000900269E0,1.412699938E0,3.820699930E0,8.978188803E0
4.002165678E0,8.019499779E0,7.718999982E-1,4.092999935E0,9.036639573E0
4.012165678E0,8.053400040E0,2.831999958E-1,4.397599697E0,9.180214460E0
4.022165678E0,8.005299568E0,-1.031999961E-1,4.654200077E0,9.260510233E0
4.032165678E0,7.797199726E0,-4.481000006E-1,4.800600052E0,9.167490280E0
4.042165678E0,7.223399639E0,-6.944999695E-1,4.803899765E0,8.702717134E0
4.052165678E0,6.432799816E0,-9.117999673E-1,4.553100109E0,7.933663294E0
4.062165678E0,5.613599777E0,-1.198599935E0,4.183499813E0,7.102873711E0
4.072165678E0,4.729399681E0,-1.524099946E0,3.774499893E0,6.239948031E0
4.082165678E0,3.959800005E0,-1.876699924E0,3.473899841E0,5.591958404E0
4.092165678E0,3.268399954E0,-2.283599854E0,3.183499813E0,5.102150293E0
4.102165678E0,2.634299994E0,-2.691099882E0,2.957199812E0,4.788171442E0
4.112165678E0,2.071500063E0,-3.177799940E0,2.771800041E0,4.698127333E0
4.122165678E0,1.552299976E0,-3.652799845E0,2.559599876E0,4.722725214E0
4.132165678E0,1.058499932E0,-4.083899975E0,2.312999964E0,4.811302313E0
4.142165678E0,5.509999990E-1,-4.527599812E0,2.065299988E0,5.006817861E0
4.152165678E0,1.477999985E-1,-4.951999664E0,1.859299898E0,5.291610495E0
4.162165678E0,-2.592999935E-1,-5.364500046E0,1.679099917E0,5.627119491E0
4.172165678E0,-5.533999801E-1,-5.732999802E0,1.478899956E0,5.946484957E0
4.182165678E0,-7.450999618E-1,-6.143599987E0,1.339900017E0,6.332008118E0
4.192165678E0,-9.925999641E-1,-6.516900063E0,1.234799981E0,6.706710975E0
4.202165678E0,-1.169499993E0,-6.811800003E0,1.203899980E0,7.015534525E0
4.212164116E0,-1.393299937E0,-7.224699974E0,1.224799991E0,7.459068940E0
4.222165678E0,-1.599599957E0,-7.332299709E0,1.173200011E0,7.595902666E0
4.232165678E0,-1.786000013E0,-7.441199780E0,1.093400002E0,7.730250563E0
4.242165678E0,-1.984099984E0,-7.534899712E0,1.002900004E0,7.856027930E0
4.252165678E0,-2.185199976E0,-7.554399967E0,9.098999500E-1,7.916563378E0
4.262165678E0,-2.449100018E0,-7.529399872E0,8.235999942E-1,7.960418976E0
4.272165678E0,-2.668999910E0,-7.499099731E0,6.843999624E-1,7.989271595E0
4.282165678E0,-2.796700001E0,-7.542699814E0,5.209000111E-1,8.061339107E0
4.292165678E0,-2.911199808E0,-7.711199760E0,6.187999845E-1,8.265627592E0
4.302165678E0,-3.032599926E0,-7.907099724E0,1.018199921E0,8.529690465E0
4.312165678E0,-3.063499928E0,-8.071100235E0,1.628499985E0,8.785197949E0
4.322165678E0,-2.994599819E0,-8.271599770E0,2.230900049E0,9.075456234E0
4.332165678E0,-2.983199835E0,-8.479000092E0,2.734799862E0,9.395320862E0
4.342165678E0,-2.951699972E0,-8.633600235E0,2.967999935E0,9.594822008E0
4.352165678E0,-2.940299988E0,-8.744199753E0,2.904799938E0,9.671827956E0
4.362165678E0,-2.949800014E0,-8.791899681E0,2.395099878E0,9.577855896E0
4.372165678E0,-3.029399872E0,-8.798099518E0,1.725600004E0,9.463694526E0
4.382165678E0,-3.208299875E0,-8.932600021E0,1.243899941E0,9.572451008E0
4.392165678E0,-3.447499990E0,-9.146399498E0,1.002399921E0,9.825817297E0
4.402165678E0,-3.728399992E0,-9.212200165E0,9.498999715E-1,9.983381608E0
4.412165678E0,-4.061800003E0,-9.177199364E0,9.038999677E-1,1.007651937E1
4.422165678E0,-4.438499928E0,-9.108900070E0,8.398999572E-1,1.016748612E1
4.432165678E0,-4.604599953E0,-9.123000145E0,6.383999586E-1,1.023909307E1
4.442165678E0,-4.403699875E0,-9.354800224E0,3.405999839E-1,1.034508908E1
4.452165678E0,-4.110300064E0,-9.755299568E0,2.149999887E-2,1.058588204E1
4.462165678E0,-3.891299963E0,-1.017619991E1,-1.541000009E-1,1.089591698E1
4.472165678E0,-3.747999907E0,-1.031849957E1,-2.127999961E-1,1.098017397E1
4.482165678E0,-3.710399866E0,-1.016949940E1,-3.621999919E-1,1.083129604E1
4.492165678E0,-3.641599894E0,-9.696199417E0,-5.830999613E-1,1.037388734E1
4.502165678E0,-3.393599987E0,-9.182299614E0,-8.116999865E-1,9.822932553E0
4.512165678E0,-2.866899967E0,-8.727899551E0,-8.823999763E-1,9.228974792E0
4.522165678E0,-2.167399883E0,-8.375800133E0,-6.990999579E-1,8.679884266E0
4.532165678E0,-1.204499960E0,-8.101900101E0,-4.041000009E-1,8.200908621E0
4.542165678E0,-1.034999937E-1,-7.940899849E0,6.159999967E-2,7.941813220E0
4.552165678E0,8.924999833E-1,-7.830099583E0,6.068999767E-1,7.904134568E0
4.562165678E0,1.697299957E0,-7.725899696E0,1.010499954E0,7.974425586E0
4.572165678E0,2.262899876E0,-7.632899761E0,1.292899966E0,8.065572821E0
4.582165678E0,2.550499916E0,-7.584300041E0,1.407599926E0,8.124530416E0
4.592165678E0,2.500999928E0,-7.541999817E0,1.466099977E0,8.079988306E0
4.602165678E0,2.055000067E0,-7.455699921E0,1.503399968E0,7.878495925E0
4.612165678E0,1.407999992E0,-7.272699833E0,1.495599985E0,7.557211533E0
4.622165678E0,7.166000009E-1,-6.929100037E0,1.468799949E0,7.119221598E0
4.632165678E0,1.184999943E-1,-6.469999790E0,1.471899986E0,6.636371682E0
4.642165678E0,-4.052999914E-1,-5.971600056E0,1.496500015E0,6.169585691E0
4.652165678E0,-7.655999660E-1,-5.363800049E0,1.612399936E0,5.652992820E0
4.662165678E0,-8.730999827E-1,-4.843400002E0,1.664499998E0,5.195323609E0
4.672165678E0,-8.740999699E-1,-4.196899891E0,1.910899997E0,4.693565622E0
4.682165678E0,-7.486000061E-1,-3.605099916E0,2.306900024E0,4.344989655E0
4.692165678E0,-6.340999603E-1,-3.022300005E0,2.748399973E0,4.134015299E0
4.702165678E0,-4.619999826E-1,-2.548399925E0,2.989799976E0,3.955589724E0
4.712165678E0,-1.753000021E-1,-1.999699950E0,2.895499945E0,3.523272614E0
4.722165678E0,3.500000015E-2,-1.744399905E0,2.610299826E0,3.139716740E0
4.732165678E0,3.000999987E-1,-1.409199953E0,2.085999966E0,2.535212096E0
4.742165678E0,5.519999862E-1,-1.189100027E0,1.436299920E0,1.944638866E0
4.752165678E0,7.698000073E-1,-1.133399963E0,8.236999512E-1,1.598646033E0
4.762175053E0,9.326999784E-1,-1.134199977E0,2.527999878E-1,1.490049218E0
4.772165678E0,1.128099918E0,-1.131199956E0,-1.730999947E-1,1.606918285E0
4.782165678E0,1.237699986E0,-1.122699976E0,-3.032999933E-1,1.698336650E0
4.792165678E0,1.359899998E0,-1.165300012E0,-1.456999928E-1,1.796797320E0
4.802165678E0,1.554999948E0,-1.148599982E0,2.569999993E-1,1.950219412E0
4.812165678E0,1.854799986E0,-9.820999503E-1,6.042000055E-1,2.184001132E0
4.822165678E0,2.270999908E0,-5.867999792E-1,9.381999969E-1,2.526260880E0
4.832165678E0,2.823699951E0,-5.219999701E-2,1.097299933E0,3.029863594E0
4.842165678E0,3.296599865E0,5.106999874E-1,1.076099992E0,3.505192768E0
4.852165678E0,3.569999933E0,1.058799982E0,1.009500027E0,3.858114466E0
4.862165678E0,3.720399857E0,1.550199986E0,9.666999578E-1,4.144756193E0
4.872165678E0,3.903699875E0,1.827600002E0,8.795999885E-1,4.399169310E0
4.882165678E0,4.198599815E0,2.029000044E0,8.077999949E-1,4.732612642E0
4.892165678E0,4.536699772E0,2.253499985E0,8.106999993E-1,5.130023537E0
4.902165678E0,5.065799713E0,2.560699940E0,7.010999918E-1,5.719357666E0
4.912165678E0,5.647599697E0,2.890699863E0,5.367000103E-1,6.367069572E0
4.922165678E0,6.250799656E0,3.221899986E0,2.484999895E-1,7.036681612E0
4.932165678E0,6.912099838E0,3.523599863E0,-1.030000001E-1,7.759090744E0
4.942165678E0,7.589200020E0,3.754199982E0,-5.460999608E-1,8.484586001E0
4.952165678E0,8.228899956E0,3.901799917E0,-1.058799982E0,9.168418319E0
4.962165678E0,8.719999313E0,4.063600063E0,-1.441900015E0,9.727811118E0
4.972165678E0,9.001099586E0,4.239399910E0,-1.672500014E0,1.008908131E1
4.982165678E0,9.110099792E0,4.312399864E0,-1.777999997E0,1.023484220E1
4.992165678E0,8.978799820E0,4.421599865E0,-1.845499992E0,1.017719322E1
5.002165678E0,8.627999306E0,4.686599731E0,-1.855299950E0,9.992433486E0
5.012165678E0,8.186100006E0,4.971899986E0,-1.776899934E0,9.741118835E0
5.022165678E0,8.114399910E0,5.082299709E0,-1.765899897E0,9.736100794E0
5.032165678E0,8.450300217E0,4.890199661E0,-1.454800010E0,9.871072361E0
5.042165678E0,8.689199448E0,4.569999695E0,-5.144999623E-1,9.831164451E0
5.052165678E0,8.683199883E0,4.306900024E0,7.475000024E-1,9.721425012E0
5.062165678E0,8.525300026E0,4.366600037E0,1.767899990E0,9.740298085E0
5.072168803E0,8.131299973E0,4.739999771E0,2.176100016E0,9.660282002E0
5.082165678E0,7.590600014E0,5.318699837E0,1.970099926E0,9.475603951E0
5.092165678E0,7.078299999E0,5.768399715E0,1.217299938E0,9.211871976E0
5.102165678E0,6.690599918E0,6.019999981E0,3.373999894E-1,9.006573477E0
5.112165678E0,6.492499828E0,6.013099670E0,-2.954999804E-1,8.854221700E0
5.122165678E0,6.373300076E0,5.854300022E0,-5.615000129E-1,8.672200693E0
5.132165678E0,6.437999725E0,5.453599930E0,-3.632999957E-1,8.445210450E0
5.142165678E0,6.637099743E0,4.789899826E0,2.633999884E-1,8.189237626E0
5.152165678E0,6.854499817E0,3.960399866E0,1.071599960E0,7.988570668E0
5.162165678E0,6.897599697E0,3.121999979E0,1.799099922E0,7.782064378E0
5.172165678E0,6.798899651E0,2.107499838E0,2.301699877E0,7.480936729E0
5.182165678E0,6.641399860E0,1.075399995E0,2.605499983E0,7.214797808E0
5.192165678E0,6.449299812E0,5.779999867E-2,2.857499838E0,7.054226693E0
5.202165678E0,6.217299938E0,-7.555999756E-1,3.137300014E0,7.004884098E0
5.212165678E0,5.835399628E0,-1.464900017E0,3.528100014E0,6.974619028E0
5.222165678E0,5.539499760E0,-1.758299947E0,3.792099953E0,6.939574795E0
5.232165678E0,5.108500004E0,-1.874099970E0,3.924499989E0,6.709003141E0
5.242165678E0,4.598099709E0,-1.786599994E0,3.870499849E0,6.270185767E0
5.252165678E0,4.066400051E0,-1.535099983E0,3.718099833E0,5.719825845E0
5.262165678E0,3.531499863E0,-1.268999934E0,3.507099867E0,5.136302327E0
5.272165678E0,3.089499950E0,-1.098699927E0,3.269299984E0,4.630385930E0
5.282165678E0,2.700399876E0,-1.075299978E0,2.987399817E0,4.168091553E0
5.292165678E0,2.382900000E0,-1.191200018E0,2.721999884E0,3.808733813E0
5.302165678E0,2.029099941E0,-1.487599969E0,2.435899973E0,3.501972147E0
5.312165678E0,1.737299919E0,-1.935899973E0,2.132200003E0,3.363360903E0
5.322165678E0,1.440400004E0,-2.456500053E0,1.911799908E0,3.429886816E0
5.332165678E0,1.120599985E0,-3.007900000E0,1.688099980E0,3.626691092E0
5.342165678E0,8.384000063E-1,-3.519099951E0,1.471300006E0,3.905342846E0
5.352165678E0,4.183999896E-1,-3.987799883E0,1.282699943E0,4.209860520E0
5.362165678E0,-3.049999848E-2,-4.401499748E0,1.104799986E0,4.538139849E0
5.372165678E0,-3.409000039E-1,-4.766599655E0,9.879999757E-1,4.879839038E0
5.382165678E0,-6.006999612E-1,-5.139100075E0,9.336999655E-1,5.257659712E0
5.392165678E0,-8.488999605E-1,-5.438099861E0,9.414999485E-1,5.583903957E0
5.402165678E0,-1.095600009E0,-5.719999790E0,9.117999673E-1,5.894922914E0
5.412165678E0,-1.262399912E0,-5.992399693E0,8.912999630E-1,6.188450795E0
5.422165678E0,-1.448099971E0,-6.195099831E0,9.074999690E-1,6.426492950E0
5.432165678E0,-1.633799911E0,-6.346499920E0,9.689999819E-1,6.624675414E0
5.442165678E0,-1.820499897E0,-6.495299816E0,1.083799958E0,6.832112552E0
5.452165678E0,-1.969699979E0,-6.630499840E0,1.249499917E0,7.028833202E0
5.462165678E0,-2.141399860E0,-6.663099766E0,1.414199948E0,7.140199811E0
5.472165678E0,-2.258199930E0,-6.700299740E0,1.436800003E0,7.215114537E0
5.482165678E0,-2.370399952E0,-6.722799778E0,1.364599943E0,7.257889899E0
5.492165678E0,-2.400499821E0,-6.711299896E0,1.235399961E0,7.233958719E0
5.502165678E0,-2.319900036E0,-6.648099899E0,1.166199923E0,7.137169657E0
5.512165678E0,-2.256700039E0,-6.633699894E0,1.246399999E0,7.117034657E0
5.522165678E0,-2.181599855E0,-6.749099731E0,1.457499981E0,7.241134670E0
5.532165678E0,-2.222499847E0,-6.956500053E0,1.543200016E0,7.464172081E0
5.542165678E0,-2.213099957E0,-7.206500053E0,1.608899951E0,7.708437811E0
5.552165678E0,-2.300999880E0,-7.528299809E0,1.713899970E0,8.056509887E0
5.562165678E0,-2.388700008E0,-7.803299904E0,1.859200001E0,8.369826866E0
5.572165678E0,-2.467099905E0,-8.000399590E0,2.084699869E0,8.627800941E0
5.582165678E0,-2.605900049E0,-8.146499634E0,2.283299923E0,8.852662305E0
5.592165678E0,-2.560899973E0,-8.209400177E0,2.218899965E0,8.881214838E0
5.602165678E0,-2.607399940E0,-8.198800087E0,1.961599946E0,8.824212807E0
5.612165678E0,-2.784600019E0,-8.144800186E0,1.592099905E0,8.753659203E0
5.622165678E0,-2.974699974E0,-8.117099762E0,1.278900027E0,8.739092273E0
5.632165678E0,-2.932899952E0,-8.223099709E0,1.032699943E0,8.791344614E0
5.642165678E0,-2.688699961E0,-8.541299820E0,8.375999928E-1,8.993580146E0
5.652165678E0,-2.349699974E0,-9.023200035E0,8.161999583E-1,9.359776237E0
5.662165678E0,-2.121999979E0,-9.432799339E0,1.050499916E0,9.725437644E0
5.672165678E0,-2.231799841E0,-9.689700127E0,1.460999966E0,1.005016119E1
5.682165678E0,-2.612399817E0,-9.553099632E0,1.774299979E0,1.006153496E1
5.692165678E0,-2.921999931E0,-9.097099304E0,1.626999974E0,9.692390225E0
5.702165678E0,-3.140899897E0,-8.429299355E0,1.360399961E0,9.097748503E0
5.712165678E0,-3.150399923E0,-7.797299862E0,1.031899929E0,8.472763556E0
5.722165678E0,-2.904299974E0,-7.313799858E0,6.586999893E-1,7.896867251E0
5.732165678E0,-2.387699842E0,-6.906999588E0,2.651000023E-1,7.312867554E0
5.742165678E0,-1.772099972E0,-6.748999596E0,7.739999890E-2,6.978203538E0
5.752165678E0,-1.183399916E0,-6.875099659E0,1.557999998E-1,6.977944133E0
5.762175053E0,-7.586999536E-1,-7.169799805E0,3.691999912E-1,7.219277214E0
5.772165678E0,-4.492999911E-1,-7.612799644E0,7.014999986E-1,7.658243347E0
5.782165678E0,-3.542000055E-1,-8.152099609E0,1.106500030E0,8.234471932E0
5.792165678E0,-4.745999873E-1,-8.497399330E0,1.467499971E0,8.636237415E0
5.802165678E0,-6.936999559E-1,-8.544300079E0,1.660300016E0,8.731716877E0
5.812165678E0,-7.662000060E-1,-8.297399521E0,1.652499914E0,8.494978353E0
5.822165678E0,-7.689999938E-1,-7.774999619E0,1.526600003E0,7.960683867E0
5.832165678E0,-8.179000020E-1,-7.077399731E0,1.545399904E0,7.290185747E0
5.842165678E0,-9.011999965E-1,-6.394199848E0,1.615199924E0,6.656337125E0
5.852165678E0,-9.687999487E-1,-5.590499878E0,1.659299970E0,5.911475164E0
5.862165678E0,-1.039099932E0,-4.825900078E0,1.560400009E0,5.177247185E0
5.872165678E0,-1.052500010E0,-4.113199711E0,1.438199997E0,4.482698670E0
5.882165678E0,-1.028200030E0,-3.505100012E0,1.334699988E0,3.889003144E0
5.892165678E0,-9.171999693E-1,-3.092799902E0,1.223500013E0,3.450162214E0
5.902165678E0,-8.276000023E-1,-2.809499979E0,1.165599942E0,3.152274595E0
5.912165678E0,-6.812999845E-1,-2.615999937E0,1.064199924E0,2.905193078E0
5.922165678E0,-4.195999801E-1,-2.502199888E0,9.404999614E-1,2.705847113E0
5.932165678E0,-1.799999923E-1,-2.378999949E0,8.248999715E-1,2.524381254E0
5.942165678E0,1.356000006E-1,-2.226199865E0,7.178999782E-1,2.343018049E0
5.952165678E0,5.468999743E-1,-1.994099975E0,5.618999600E-1,2.142723934E0
5.962165678E0,1.122399926E0,-1.732100010E0,3.578999937E-1,2.094765964E0
5.972165678E0,1.665199995E0,-1.452299953E0,2.243999988E-1,2.220905566E0
5.982165678E0,2.105399847E0,-1.197099924E0,2.001999915E-1,2.430192746E0
5.992165678E0,2.402899981E0,-9.881999493E-1,2.930999994E-1,2.614646260E0
6.002165678E0,2.645699978E0,-7.867999673E-1,5.285999775E-1,2.810373729E0
6.012165678E0,2.657599926E0,-5.332999825E-1,7.850999832E-1,2.821990117E0
6.022165678E0,2.566900015E0,-1.773999929E-1,8.698999882E-1,2.716095071E0
6.032165678E0,2.550400019E0,1.341999918E-1,7.606999874E-1,2.664810380E0
6.042165678E0,2.588399887E0,3.039000034E-1,6.469999552E-1,2.685289208E0
6.052165678E0,2.817899942E0,4.404999912E-1,6.804999709E-1,2.932180168E0
6.062165678E0,3.209599972E0,6.035999656E-1,8.728999496E-1,3.380505764E0
6.072165678E0,3.547699928E0,7.831000090E-1,1.047199965E0,3.781011527E0
6.082165678E0,3.851699829E0,1.076499939E0,1.133499980E0,4.156833638E0
6.092165678E0,4.297999859E0,1.444399953E0,1.110899925E0,4.668317968E0
6.102165678E0,4.807399750E0,1.777799964E0,9.890999794E-1,5.220151706E0
6.112165678E0,5.299999714E0,2.123899937E0,6.983000040E-1,5.752266580E0
6.122165678E0,5.734799862E0,2.461400032E0,2.775000036E-1,6.246873284E0
6.132165678E0,6.099400043E0,2.807999849E0,-9.339999408E-2,6.715375463E0
6.142165678E0,6.322000027E0,3.112900019E0,-3.227999806E-1,7.054220771E0
6.152165678E0,6.587899685E0,3.337199926E0,-4.099999964E-1,7.396311622E0
6.162165678E0,6.964999676E0,3.520200014E0,-4.050000012E-1,7.814541165E0
6.172165678E0,7.265899658E0,3.632299900E0,-3.980000019E-1,8.132976356E0
6.182165678E0,7.470299721E0,3.624399900E0,-4.591999948E-1,8.315799252E0
6.192165678E0,7.578099728E0,3.634699821E0,-6.085999608E-1,8.426685718E0
6.202165678E0,7.676999569E0,3.722599983E0,-8.053999543E-1,8.569874101E0
6.212165678E0,7.703799725E0,3.850899935E0,-8.617999554E-1,8.655672109E0
6.222165678E0,7.515399933E0,3.911099911E0,-8.019999862E-1,8.510061259E0
6.232165678E0,7.249599934E0,4.038499832E0,-6.466999650E-1,8.323725184E0
6.242165678E0,7.239500046E0,4.119199753E0,-5.832999945E-1,8.349754871E0
6.252165678E0,7.563299656E0,4.163300037E0,-4.839999974E-1,8.647012483E0
6.262165678E0,7.836999893E0,4.120399952E0,-2.416999936E-1,8.857464760E0
6.272165678E0,7.744799614E0,4.233699799E0,-2.740000002E-2,8.826487739E0
6.282165678E0,7.130099773E0,4.581199646E0,1.034999937E-1,8.475637157E0
6.292165678E0,6.298599720E0,5.026299953E0,3.849999979E-2,8.058382710E0
6.302165678E0,5.723299980E0,5.364899635E0,-1.349999905E-1,7.845797331E0
6.312165678E0,5.414400101E0,5.626899719E0,-4.147999883E-1,7.819832986E0
6.322165678E0,5.360099792E0,5.742799759E0,-5.900999904E-1,7.877730438E0
6.332165678E0,5.371699810E0,5.681799889E0,-6.761999726E-1,7.848264472E0
6.342165678E0,5.387199879E0,5.500299931E0,-6.708999872E-1,7.728216395E0
6.352165678E0,5.405900002E0,5.147999763E0,-5.827999711E-1,7.487677357E0
6.362165678E0,5.506299973E0,4.605299950E0,-4.192999899E-1,7.190545146E0
6.372165678E0,5.699599743E0,3.970499992E0,-8.079999685E-2,6.946714048E0
6.382165678E0,5.781799793E0,3.283499956E0,3.543999791E-1,6.658541894E0
6.392165678E0,5.921400070E0,2.691699982E0,7.777000070E-1,6.550804903E0
6.402165678E0,6.130799770E0,2.137399912E0,1.236999989E0,6.609489631E0
6.412165678E0,6.450399876E0,1.590899944E0,1.583499908E0,6.829794517E0
6.422165678E0,6.743399620E0,9.628999829E-1,1.806999922E0,7.047401190E0
6.432165678E0,6.794099808E0,3.797000051E-1,2.063699961E0,7.110753956E0
6.442165678E0,6.554899693E0,-1.394999921E-1,2.302599907E0,6.948966582E0
6.452165678E0,6.027999878E0,-5.062999725E-1,2.451599836E0,6.527132904E0
6.462165678E0,5.392799854E0,-7.479000092E-1,2.487400055E0,5.985716643E0
6.472165678E0,4.681600094E0,-8.524000049E-1,2.456899881E0,5.355401221E0
6.482165678E0,3.983699799E0,-8.484999537E-1,2.408399820E0,4.731829028E0
6.492165678E0,3.338999987E0,-7.943999767E-1,2.361799955E0,4.166304269E0
6.502165678E0,2.865299940E0,-8.575999737E-1,2.279199839E0,3.760342187E0
6.512165678E0,2.523299932E0,-1.067999959E0,2.230200052E0,3.532910802E0
6.522165678E0,2.313099861E0,-1.407199979E0,2.156899929E0,3.461626793E0
6.532165678E0,2.215399981E0,-1.924600005E0,2.090600014E0,3.603150104E0
6.542165678E0,2.132699966E0,-2.600800037E0,2.092599869E0,3.961255381E0
6.552165678E0,1.938599944E0,-3.307399988E0,2.115499973E0,4.378630444E0
6.562165678E0,1.585899949E0,-3.953899860E0,2.108799934E0,4.753466095E0
6.572165678E0,1.125399947E0,-4.350399971E0,2.079799891E0,4.951572733E0
6.582165678E0,5.780999660E-1,-4.601399899E0,1.919699907E0,5.019195985E0
6.592165678E0,1.500999928E-1,-4.772999763E0,1.688399911E0,5.065051926E0
6.602165678E0,-2.370999902E-1,-4.932499886E0,1.487100005E0,5.157251007E0
6.612165678E0,-5.842999816E-1,-5.079299927E0,1.347199917E0,5.287309508E0
6.622165678E0,-8.622999787E-1,-5.242000103E0,1.210199952E0,5.448551207E0
6.632165678E0,-1.130499959E0,-5.419600010E0,1.105899930E0,5.645627430E0
6.642165678E0,-1.438300014E0,-5.562699795E0,1.074100018E0,5.845171236E0
6.652165678E0,-1.717599988E0,-5.641599655E0,1.055400014E0,5.990965329E0
6.662165678E0,-1.959100008E0,-5.822299957E0,1.059599996E0,6.233779093E0
6.672165678E0,-2.241799831E0,-6.054800034E0,1.037400007E0,6.539301852E0
6.682165678E0,-2.517099857E0,-6.249499798E0,9.764999747E-1,6.807759662E0
6.692165678E0,-2.756299973E0,-6.414399624E0,8.866999745E-1,7.037609603E0
6.702165678E0,-2.852499962E0,-6.606999874E0,8.091999888E-1,7.241823527E0
6.712165678E0,-2.755300045E0,-7.003200054E0,7.726999521E-1,7.565286151E0
6.722165678E0,-2.609299898E0,-7.217700005E0,7.960000038E-1,7.716038836E0
6.732165678E0,-2.497699976E0,-7.582199574E0,9.075999856E-1,8.034425510E0
6.742165678E0,-2.412999868E0,-8.004499435E0,1.087599993E0,8.430744529E0
6.752165678E0,-2.542199850E0,-8.296699524E0,1.382599950E0,8.786898525E0
6.762175053E0,-2.729300022E0,-8.387000084E0,1.601400018E0,8.964113511E0
6.772165678E0,-2.828699827E0,-8.379599571E0,1.601499915E0,8.987993862E0
6.782165678E0,-2.860800028E0,-8.274399757E0,1.392199993E0,8.864992327E0
6.792165678E0,-2.767299891E0,-8.201799393E0,1.025399923E0,8.716588035E0
6.802165678E0,-2.684999943E0,-8.223899841E0,7.792999744E-1,8.686141937E0
6.812167241E0,-2.643199921E0,-8.314399719E0,6.557999849E-1,8.749046927E0
6.822165678E0,-2.563099861E0,-8.434999466E0,6.040999889E-1,8.836494423E0
6.832165678E0,-2.689999819E0,-8.577300072E0,5.514999628E-1,9.006127234E0
6.842165678E0,-2.955299854E0,-8.712299347E0,5.031999946E-1,9.213640289E0
6.852165678E0,-3.202499866E0,-8.819700241E0,4.860000014E-1,9.395707197E0
6.862165678E0,-3.363799810E0,-9.045000076E0,5.187000036E-1,9.664172248E0
6.872165678E0,-3.567499876E0,-9.396399498E0,5.709999800E-1,1.006704623E1
6.882165678E0,-3.873499870E0,-9.714499474E0,5.338000059E-1,1.047188826E1
6.892165678E0,-4.322799683E0,-9.837499619E0,4.041999876E-1,1.075297045E1
6.902165678E0,-4.897200108E0,-9.711899757E0,2.099999934E-1,1.087877134E1
6.912165678E0,-5.294099808E0,-9.342100143E0,-1.009999961E-2,1.073789690E1
6.922165678E0,-5.356599808E0,-8.892600060E0,-9.719999880E-2,1.038176021E1
6.932165678E0,-5.073999882E0,-8.382499695E0,3.799999831E-3,9.798560628E0
6.942165678E0,-4.424699783E0,-7.921799660E0,2.197999954E-1,9.076408434E0
6.952165678E0,-3.573199987E0,-7.534299850E0,5.128999949E-1,8.354429890E0
6.962165678E0,-2.693199873E0,-7.236199856E0,7.943999767E-1,7.761893147E0
6.972165678E0,-1.850899935E0,-7.141699791E0,1.142300010E0,7.465557969E0
6.982165678E0,-1.201699972E0,-7.246199608E0,1.477999926E0,7.492394501E0
6.992165678E0,-6.761999726E-1,-7.463599682E0,1.722599983E0,7.689597994E0
7.002165678E0,-3.032999933E-1,-7.724799633E0,1.807399988E0,7.939220048E0
7.012165678E0,-1.125999987E-1,-7.969399929E0,1.645200014E0,8.138224442E0
7.022165678E0,-3.509999812E-2,-8.135299683E0,1.492900014E0,8.271220187E0
7.032165678E0,-1.179999951E-2,-8.140199661E0,1.313699961E0,8.245531963E0
7.042165678E0,1.345999986E-1,-8.049499512E0,1.090999961E0,8.124213221E0
7.052165678E0,4.148999751E-1,-7.792699814E0,9.850999713E-1,7.865668079E0
7.062165678E0,7.814999819E-1,-7.282499790E0,1.037199974E0,7.397386647E0
7.072165678E0,1.108399987E0,-6.600100040E0,1.177799940E0,6.795372232E0
7.082165678E0,1.278900027E0,-5.916899681E0,1.295699954E0,6.190648228E0
7.092165678E0,1.391999960E0,-5.099400043E0,1.417699933E0,5.472788850E0
7.102165678E0,1.447999954E0,-4.327600002E0,1.600499988E0,4.835951391E0
7.112165678E0,1.486199975E0,-3.575599909E0,1.723799944E0,4.238536460E0
7.122165678E0,1.486699939E0,-2.866099834E0,1.755199909E0,3.674987305E0
7.132165678E0,1.556699991E0,-2.250599861E0,1.742699981E0,3.244305445E0
7.142165678E0,1.645999908E0,-1.780900002E0,1.618899941E0,2.915777347E0
7.152165678E0,1.831799984E0,-1.448599935E0,1.463299990E0,2.755935379E0
7.162165678E0,2.122799873E0,-1.215399981E0,1.308099985E0,2.773914560E0
7.172165678E0,2.449100018E0,-1.072099924E0,1.174999952E0,2.920293484E0
7.182165678E0,2.780200005E0,-9.498999715E-1,1.036000013E0,3.115303845E0
7.192165678E0,3.036999941E0,-8.682999611E-1,8.915999532E-1,3.282112725E0
7.202165678E0,3.297299862E0,-8.363999724E-1,8.802999854E-1,3.513784193E0
7.212164116E0,3.459199905E0,-7.763999701E-1,1.041499972E0,3.695075519E0
7.222165678E0,3.446399927E0,-6.602999568E-1,1.226300001E0,3.717187133E0
7.232165678E0,3.474399805E0,-4.147000015E-1,1.319999933E0,3.739763351E0
7.242165678E0,3.636600018E0,-6.000000052E-3,1.211599946E0,3.833127981E0
7.252165678E0,3.854599953E0,4.378999770E-1,9.983999729E-1,4.005808244E0
7.262165678E0,4.057899952E0,8.168999553E-1,6.520999670E-1,4.190359403E0
7.272165678E0,4.215199947E0,1.128799915E0,3.125000000E-1,4.374900695E0
7.282165678E0,4.334599972E0,1.402099967E0,1.392000020E-1,4.557852331E0
7.292165678E0,4.425399780E0,1.607599974E0,4.539999738E-2,4.708566879E0
7.302165678E0,4.576099873E0,1.795300007E0,-7.999999449E-3,4.915674537E0
7.312165678E0,4.728300095E0,2.025099993E0,-5.209999904E-2,5.143983493E0
7.322165678E0,4.940999985E0,2.336299896E0,-1.370999962E-1,5.467227310E0
7.332165678E0,5.164700031E0,2.669999838E0,-1.950999945E-1,5.817309477E0
7.342165678E0,5.476799965E0,3.025599957E0,-3.247999847E-1,6.265388095E0
7.352165678E0,5.885999680E0,3.245399952E0,-4.862999916E-1,6.738998498E0
7.362165678E0,6.390699863E0,3.456499815E0,-7.382000089E-1,7.302970284E0
7.372165678E0,6.821799755E0,3.676999807E0,-1.118499994E0,7.829963073E0
7.382165678E0,7.186599731E0,3.857299805E0,-1.536499977E0,8.299807809E0
7.392165678E0,7.491799831E0,3.908599854E0,-1.761399984E0,8.631729110E0
7.402165678E0,7.628799915E0,3.920300007E0,-1.779599905E0,8.759812562E0
7.412165678E0,7.666800022E0,4.050699711E0,-1.639899969E0,8.824809496E0
7.422165678E0,7.606799603E0,4.281300068E0,-1.481099963E0,8.853620026E0
7.432165678E0,7.606599808E0,4.603399754E0,-1.313599944E0,8.987613406E0
7.442165678E0,7.772999763E0,4.879699707E0,-1.126600027E0,9.246633018E0
7.452165678E0,8.171999931E0,4.961899757E0,-8.111000061E-1,9.594785839E0
7.462165678E0,8.524799347E0,4.945799828E0,-2.888999879E-1,9.859848023E0
7.472165678E0,8.406999588E0,4.976699829E0,4.555999935E-1,9.780222626E0
7.482165678E0,7.809899807E0,5.113299847E0,9.826999903E-1,9.386483345E0
7.492165678E0,7.188999653E0,5.367099762E0,1.126099944E0,9.041879061E0
7.502165678E0,6.754399776E0,5.524499893E0,8.410999775E-1,8.766382640E0
7.512165678E0,6.546700001E0,5.674999714E0,4.244999886E-1,8.674393517E0
7.522165678E0,6.408199787E0,5.838399887E0,8.799999952E-2,8.669468366E0
7.532165678E0,6.424599648E0,5.935199738E0,-1.335999966E-1,8.747566834E0
7.542165678E0,6.524499893E0,5.993599892E0,-2.155999988E-1,8.862213148E0
7.552165678E0,6.684499741E0,5.854300022E0,-1.659999974E-2,8.885698683E0
7.562165678E0,6.980999947E0,5.437299728E0,2.784999907E-1,8.853030602E0
7.572165678E0,7.276499748E0,4.829699993E0,8.273999691E-1,8.772573244E0
7.582165678E0,7.513499737E0,4.148600101E0,1.205899954E0,8.667050005E0
7.592165678E0,7.615499973E0,3.324999809E0,1.460299969E0,8.437057519E0
7.602165678E0,7.615699768E0,2.585799932E0,1.836199999E0,8.249659065E0
7.612165678E0,7.635299683E0,1.883599997E0,2.316499949E0,8.198287760E0
7.622165678E0,7.696399689E0,1.238699913E0,2.715600014E0,8.254903335E0
7.632165678E0,7.839999676E0,5.921999812E-1,3.168499947E0,8.476773422E0
7.642165678E0,7.791499615E0,8.029999584E-2,3.615499973E0,8.589863468E0
7.652165678E0,7.551599979E0,-2.390999943E-1,4.073899746E0,8.583734047E0
7.662165678E0,7.180799961E0,-3.960999846E-1,4.381499767E0,8.421301769E0
7.672165678E0,6.639599800E0,-5.394999981E-1,4.455399990E0,8.014108486E0
7.682165678E0,6.006599903E0,-6.710000038E-1,4.401700020E0,7.476927609E0
7.692165678E0,5.380799770E0,-8.700000048E-1,4.298699856E0,6.941810040E0
7.702165678E0,4.793200016E0,-1.156199932E0,4.147599697E0,6.443147362E0
7.712164116E0,4.145999908E0,-1.692299962E0,4.002599716E0,6.006163409E0
7.722165678E0,3.682600021E0,-2.095499992E0,3.758299828E0,5.663698503E0
7.732165678E0,3.309399843E0,-2.671200037E0,3.566399813E0,5.550373373E0
7.742165678E0,3.013000011E0,-3.241600037E0,3.378700018E0,5.567921845E0
7.752165678E0,2.726699829E0,-3.834499836E0,3.117300034E0,5.644097842E0
7.762175053E0,2.393100023E0,-4.369699955E0,2.902400017E0,5.765859110E0
7.772165678E0,1.993699908E0,-4.825999737E0,2.697099924E0,5.877028227E0
7.782165678E0,1.637599945E0,-5.230700016E0,2.493199825E0,6.021461750E0
7.792165678E0,1.355099916E0,-5.718800068E0,2.272799969E0,6.301316505E0
7.802165678E0,1.018700004E0,-6.122099876E0,2.136999846E0,6.563887943E0
7.812165678E0,6.581999660E-1,-6.497499943E0,2.038699865E0,6.841566330E0
7.822165678E0,2.640999854E-1,-6.871299744E0,1.939000010E0,7.144524478E0
7.832165678E0,-1.438999921E-1,-7.220499992E0,1.827099919E0,7.449471220E0
7.842165678E0,-4.880999923E-1,-7.513000011E0,1.752099991E0,7.730023619E0
7.852165678E0,-8.181999922E-1,-7.804899693E0,1.723199964E0,8.034633069E0
7.862165678E0,-1.233299971E0,-7.975899696E0,1.739099979E0,8.255935654E0
7.872165678E0,-1.597299933E0,-8.043099403E0,1.699299932E0,8.374391640E0
7.882165678E0,-1.911700010E0,-8.025199890E0,1.621599913E0,8.407616576E0
7.892165678E0,-2.109400034E0,-7.971699715E0,1.516199946E0,8.384296460E0
7.902165678E0,-2.240700006E0,-8.011300087E0,1.443199992E0,8.443014380E0
7.912165678E0,-2.247999907E0,-8.046699524E0,1.383399963E0,8.468569671E0
7.922165678E0,-2.200599909E0,-8.167599678E0,1.335600019E0,8.563652951E0
7.932165678E0,-2.236399889E0,-8.287499428E0,1.259699941E0,8.675884691E0
7.942165678E0,-2.248199940E0,-8.387499809E0,1.263000011E0,8.774948721E0
7.952165678E0,-2.305099964E0,-8.537300110E0,1.256799936E0,8.931882505E0
7.962165678E0,-2.427299976E0,-8.697500229E0,1.386600018E0,9.135696745E0
7.972165678E0,-2.566400051E0,-8.867699623E0,1.651199937E0,9.378111060E0
7.982165678E0,-2.625399828E0,-9.065699577E0,1.771299958E0,9.602975405E0
7.992165678E0,-2.625299931E0,-9.280300140E0,2.018199921E0,9.853390348E0
8.002165678E0,-2.753700018E0,-9.470399857E0,2.194399834E0,1.010379770E1
8.012165678E0,-2.914099932E0,-9.575300217E0,2.179100037E0,1.024337979E1
8.022165678E0,-3.127300024E0,-9.495699883E0,1.961299896E0,1.018798405E1
8.032165678E0,-3.374199867E0,-9.428400040E0,1.689399958E0,1.015549232E1
8.042165678E0,-3.576299906E0,-9.394700050E0,1.378600001E0,1.014646973E1
8.052165678E0,-3.714499950E0,-9.393799782E0,1.181800008E0,1.017042946E1
8.062165678E0,-3.661999941E0,-9.543299675E0,1.005800009E0,1.027114628E1
8.072165678E0,-3.654199839E0,-9.745699883E0,8.349999785E-1,1.044169850E1
8.082165678E0,-3.750299931E0,-9.873499870E0,7.791000009E-1,1.059045542E1
8.092165678E0,-3.843999863E0,-1.000179958E1,7.208999991E-1,1.073927496E1
8.102165678E0,-3.926800013E0,-9.990200043E0,4.812999964E-1,1.074502233E1
8.112165678E0,-4.117199898E0,-9.836299896E0,9.579999745E-2,1.066364423E1
8.122165678E0,-4.366499901E0,-9.528499603E0,-3.585999906E-1,1.048747920E1
8.132165678E0,-4.468100071E0,-9.135700226E0,-9.210000038E-1,1.021142389E1
8.142165678E0,-4.225199699E0,-8.755000114E0,-1.284199953E0,9.805687585E0
8.152165678E0,-3.783199787E0,-8.378999710E0,-1.367499948E0,9.294637856E0
8.162165678E0,-3.129400015E0,-8.081699371E0,-1.208999991E0,8.750353716E0
8.172165678E0,-2.427999973E0,-7.946499825E0,-7.682999969E-1,8.344598745E0
8.182165678E0,-1.735599995E0,-7.938799858E0,-1.724999994E-1,8.128136735E0
8.192165678E0,-1.129699945E0,-8.060500145E0,2.999999821E-1,8.144807213E0
8.202165678E0,-6.193999648E-1,-8.233699799E0,5.461999774E-1,8.275010762E0
8.212165678E0,-2.096999884E-1,-8.383099556E0,6.876999736E-1,8.413873276E0
8.222165678E0,7.769999653E-2,-8.630299568E0,6.315000057E-1,8.653721753E0
8.232165678E0,1.758999974E-1,-8.670599937E0,5.516999960E-1,8.689914670E0
8.242165678E0,1.992999911E-1,-8.600199699E0,4.833999872E-1,8.616079787E0
8.252165678E0,1.191999987E-1,-8.377699852E0,2.978000045E-1,8.383838518E0
8.262165678E0,5.429999903E-2,-7.932499886E0,-1.789999940E-2,7.932705928E0
8.272165678E0,4.529999942E-2,-7.324599743E0,-4.342999756E-1,7.337603829E0
8.282165678E0,6.430000067E-2,-6.694099903E0,-6.649000049E-1,6.727347175E0
8.292165678E0,9.290000051E-2,-6.005099773E0,-6.965000033E-1,6.046070290E0
8.302165678E0,1.024999991E-1,-5.348700047E0,-5.753999949E-1,5.380537482E0
8.312165678E0,1.131999940E-1,-4.776799679E0,-4.088999927E-1,4.795605135E0
8.322165678E0,1.448999941E-1,-4.252299786E0,-1.675999910E-1,4.258067547E0
8.332165678E0,2.465999871E-1,-3.786999941E0,4.079999775E-2,3.795239748E0
8.342165678E0,4.280999899E-1,-3.441399813E0,2.184999883E-1,3.474801364E0
8.352165678E0,6.299999952E-1,-3.197199821E0,3.669999838E-1,3.279279750E0
8.362165678E0,8.223999739E-1,-2.986599922E0,4.695999920E-1,3.133152560E0
8.372165678E0,1.112499952E0,-2.868899822E0,5.486999750E-1,3.125590184E0
8.382165678E0,1.470600009E0,-2.833799839E0,5.368999839E-1,3.237490928E0
8.392165678E0,1.817799926E0,-2.812099934E0,5.647999644E-1,3.395777025E0
8.402165678E0,2.251999855E0,-2.802899837E0,5.963000059E-1,3.644629548E0
8.412165678E0,2.684499979E0,-2.806299925E0,7.121999860E-1,3.948301942E0
8.422165678E0,3.085599899E0,-2.802599907E0,9.429999590E-1,4.273726933E0
8.432165678E0,3.544199944E0,-2.604799986E0,1.327700019E0,4.594466623E0
8.442165678E0,4.022599697E0,-2.102799892E0,1.638099909E0,4.825603281E0
8.452165678E0,4.581599712E0,-1.295799971E0,1.712099910E0,5.059786516E0
8.462165678E0,5.230499744E0,-5.392999649E-1,1.625199914E0,5.503657583E0
8.472165678E0,5.799399853E0,2.000999898E-1,1.613799930E0,6.023074702E0
8.482165678E0,6.049099922E0,9.569000006E-1,1.815599918E0,6.387775086E0
8.492165678E0,6.201200008E0,1.608999968E0,2.081799984E0,6.736293759E0
8.502165678E0,6.350800037E0,2.105299950E0,2.400699854E0,7.108326722E0
8.512165678E0,6.602499962E0,2.473500013E0,2.811100006E0,7.590355150E0
8.522165678E0,6.884399891E0,2.780900002E0,3.302999973E0,8.126387605E0
8.532165678E0,7.026799679E0,2.928699970E0,3.734799862E0,8.479500413E0
8.542165678E0,7.078499794E0,3.026299953E0,3.913699865E0,8.636011659E0
8.552165678E0,7.088399887E0,3.036299944E0,3.805999994E0,8.599428252E0
8.562165678E0,7.047599792E0,2.951900005E0,3.412299871E0,8.368163890E0
8.572165678E0,6.968199730E0,2.805899858E0,2.911999941E0,8.056588928E0
8.582165678E0,6.851899624E0,2.709199905E0,2.544199944E0,7.794950028E0
8.592165678E0,6.623199940E0,2.723700047E0,2.361399889E0,7.540658381E0
8.602165678E0,6.363199711E0,2.969699860E0,2.335999966E0,7.400427262E0
8.612165678E0,6.269799709E0,3.282399893E0,2.350100040E0,7.457044163E0
8.622165678E0,6.411799908E0,3.602799892E0,2.383899927E0,7.731385644E0
8.632165678E0,6.630499840E0,3.988699913E0,2.496299982E0,8.130483917E0
8.642165678E0,6.972099781E0,4.281099796E0,2.698199987E0,8.615002844E0
8.652165678E0,7.305699825E0,4.477699757E0,3.086999893E0,9.107832530E0
8.662165678E0,7.324599743E0,4.655399799E0,3.472899914E0,9.347916479E0
8.672165678E0,6.890799999E0,5.010200024E0,3.641799927E0,9.265416106E0
8.682165678E0,6.330599785E0,5.416699886E0,3.419299841E0,9.006039235E0
8.692165678E0,5.802700043E0,5.778500080E0,2.911000013E0,8.691162870E0
8.702165678E0,5.514199734E0,6.115999699E0,2.463599920E0,8.595415963E0
8.712165678E0,5.546400070E0,6.427099705E0,2.029199839E0,8.728563246E0
8.722165678E0,5.717400074E0,6.631599903E0,1.753999949E0,8.929910229E0
8.732165678E0,6.034699917E0,6.755399704E0,1.397400022E0,9.165465349E0
8.742165678E0,6.338299751E0,6.829799652E0,1.097599983E0,9.382160345E0
8.752165678E0,6.722300053E0,6.734699726E0,8.096999526E-1,9.549927351E0
8.762175053E0,7.074699879E0,6.428299904E0,6.559000015E-1,9.581472895E0
8.772165678E0,7.343999863E0,5.908499718E0,7.087000012E-1,9.452352014E0
8.782165678E0,7.616999626E0,5.066299915E0,8.731999993E-1,9.189589565E0
8.792165678E0,7.925799847E0,4.186800003E0,1.199899912E0,9.043636286E0
8.802165678E0,8.195099831E0,3.271099806E0,1.531299949E0,8.955704032E0
8.812165678E0,8.281299591E0,2.496599913E0,1.963199973E0,8.869446892E0
8.822165678E0,8.168999672E0,1.864899993E0,2.482199907E0,8.739091715E0
8.832165678E0,7.833199978E0,1.416899920E0,2.857100010E0,8.457520189E0
8.842165678E0,7.474199772E0,1.193799973E0,2.993299961E0,8.139328305E0
8.852165678E0,7.053699970E0,1.185299993E0,2.974699974E0,7.746512717E0
8.862165678E0,6.521899700E0,1.311100006E0,2.830399990E0,7.229475986E0
8.872165678E0,6.034199715E0,1.313399911E0,2.561599970E0,6.685684702E0
8.882165678E0,5.540400028E0,1.101199985E0,2.328199863E0,6.109761737E0
8.892165678E0,5.011899948E0,6.927999854E-1,2.162099838E0,5.502162177E0
8.902165678E0,4.519599915E0,3.041000068E-1,2.121899843E0,5.002171443E0
8.912165678E0,3.977699995E0,-2.017000020E-1,2.050499916E0,4.479657358E0
8.922165678E0,3.535499811E0,-7.947999835E-1,1.919600010E0,4.100771894E0
8.932165678E0,3.185799837E0,-1.434099913E0,1.809700012E0,3.934587309E0
8.942165678E0,2.911199808E0,-2.147799969E0,1.722899914E0,4.007057916E0
8.952165678E0,2.635099888E0,-2.855399847E0,1.651499987E0,4.221908563E0
8.962165678E0,2.339900017E0,-3.544999838E0,1.626899958E0,4.548511780E0
8.972165678E0,2.076099873E0,-4.233699799E0,1.650499940E0,4.995853753E0
8.982165678E0,1.727399945E0,-4.928699970E0,1.664899945E0,5.481595187E0
8.992165678E0,1.363600016E0,-5.479300022E0,1.671000004E0,5.888495117E0
9.002165678E0,1.034799933E0,-5.930699825E0,1.717299938E0,6.260441709E0
9.012165678E0,6.527999640E-1,-6.289499760E0,1.784799933E0,6.570347466E0
9.022165678E0,2.372999936E-1,-6.571499825E0,1.863199949E0,6.834649609E0
9.032167241E0,-6.480000168E-2,-6.734299660E0,1.821699977E0,6.976645451E0
9.042165678E0,-3.134999871E-1,-6.892999649E0,1.794600010E0,7.129678506E0
9.052165678E0,-5.784999728E-1,-6.947799683E0,1.759599924E0,7.190464139E0
9.062165678E0,-7.926999927E-1,-6.888799667E0,1.704199910E0,7.140604419E0
9.072165678E0,-1.006600022E0,-6.816099644E0,1.674999952E0,7.090703971E0
9.082165678E0,-1.280399919E0,-6.790799618E0,1.641199946E0,7.102669967E0
9.092165678E0,-1.595399976E0,-6.736899853E0,1.620999932E0,7.110468444E0
9.102165678E0,-1.942599893E0,-6.802499771E0,1.633799911E0,7.260647328E0
9.112165678E0,-2.263900042E0,-6.919199944E0,1.621199965E0,7.458475755E0
9.122165678E0,-2.540400028E0,-7.144599915E0,1.633099914E0,7.756671681E0
9.132165678E0,-2.763099909E0,-7.359599590E0,1.680400014E0,8.038791666E0
9.142165678E0,-2.874199867E0,-7.572399616E0,1.686199903E0,8.273181428E0
9.152165678E0,-3.011899948E0,-7.791999817E0,1.642199993E0,8.513731453E0
9.162165678E0,-3.118199825E0,-8.016900063E0,1.530399919E0,8.737046450E0
9.172165678E0,-3.096299887E0,-8.216300011E0,1.420499921E0,8.894519598E0
9.182165678E0,-3.045300007E0,-8.340000153E0,1.382099986E0,8.985524751E0
9.192165678E0,-2.956300020E0,-8.465199471E0,1.406299949E0,9.076177137E0
9.202165678E0,-2.928200006E0,-8.503499985E0,1.462799907E0,9.111731495E0
9.212164116E0,-2.848799944E0,-8.513400078E0,1.527699947E0,9.106454257E0
9.222165678E0,-2.811800003E0,-8.459699631E0,1.541999936E0,9.047126666E0
9.232165678E0,-2.793499947E0,-8.406499863E0,1.649099946E0,9.010683244E0
9.242165678E0,-2.710000038E0,-8.446800232E0,1.869199991E0,9.065673884E0
9.252165678E0,-2.473399878E0,-8.620299339E0,2.072399855E0,9.204461354E0
9.262165678E0,-2.319200039E0,-8.927599907E0,2.216300011E0,9.486449001E0
9.272165678E0,-2.326200008E0,-9.103599548E0,2.180500031E0,9.645792430E0
9.282165678E0,-2.416499853E0,-9.118000031E0,2.030900002E0,9.648935222E0
9.292165678E0,-2.452800035E0,-9.058799744E0,1.717000008E0,9.540763588E0
9.302165678E0,-2.591500044E0,-8.927000046E0,1.365999937E0,9.395379616E0
9.312165678E0,-2.900399923E0,-8.625800133E0,1.055599928E0,9.161388478E0
9.322165678E0,-3.319700003E0,-8.265500069E0,6.653999686E-1,8.932057804E0
9.332165678E0,-3.887199879E0,-7.995199680E0,2.230999917E-1,8.892879985E0
9.342165678E0,-4.160799980E0,-7.902899742E0,-1.981000006E-1,8.933494525E0
9.352165678E0,-4.267399788E0,-7.938999653E0,-3.536999822E-1,9.020172954E0
9.362165678E0,-4.167999744E0,-8.150300026E0,-2.237999886E-1,9.156948117E0
9.372165678E0,-3.833899975E0,-8.582099915E0,1.885999888E-1,9.401425313E0
9.382165678E0,-3.167999983E0,-9.013500214E0,5.809999704E-1,9.571675452E0
9.392165678E0,-2.307699919E0,-9.372699738E0,9.232999682E-1,9.696672734E0
9.402165678E0,-1.713499904E0,-9.491999626E0,1.298099995E0,9.732379073E0
9.412165678E0,-1.149399996E0,-9.470499992E0,1.708799958E0,9.691825821E0
9.422165678E0,-6.829999685E-1,-9.190499306E0,1.969999909E0,9.424047224E0
9.432165678E0,-4.108999968E-1,-8.684499741E0,2.150300026E0,8.956180255E0
9.442165678E0,-3.804000020E-1,-8.005000114E0,2.150199890E0,8.297474951E0
9.452165678E0,-4.134999812E-1,-7.263000011E0,2.044699907E0,7.556649331E0
9.462165678E0,-5.282999873E-1,-6.411999702E0,1.869899988E0,6.699952763E0
9.472165678E0,-6.058999896E-1,-5.572799683E0,1.641499996E0,5.841038721E0
9.482165678E0,-6.258000135E-1,-4.758199692E0,1.473799944E0,5.020376105E0
9.492165678E0,-5.875999928E-1,-4.069600105E0,1.374799967E0,4.335549990E0
9.502165678E0,-5.403000116E-1,-3.470700026E0,1.283800006E0,3.739762723E0
9.512165678E0,-3.662999868E-1,-2.963500023E0,1.139699936E0,3.196157695E0
9.522165678E0,-1.149999946E-1,-2.589400053E0,1.028900027E0,2.788700934E0
9.532165678E0,6.999999750E-3,-2.281399965E0,9.497999549E-1,2.471225355E0
9.542165678E0,5.829999968E-2,-2.049799919E0,8.136000037E-1,2.206133170E0
9.552165678E0,1.363999993E-1,-1.962700009E0,7.290999889E-1,2.098185664E0
9.562165678E0,3.100000024E-1,-2.028499842E0,5.694999695E-1,2.129610721E0
9.572165678E0,4.810999930E-1,-2.303999901E0,4.046999812E-1,2.388232573E0
9.582165678E0,4.442999959E-1,-2.463500023E0,3.941999972E-1,2.534093228E0
9.592165678E0,5.437999964E-1,-2.542999983E0,4.909999967E-1,2.646440694E0
9.602165678E0,8.994999528E-1,-2.646100044E0,7.058999538E-1,2.882575299E0
9.612165678E0,1.483999968E0,-2.446399927E0,9.202999473E-1,3.005674716E0
9.622165678E0,2.005399942E0,-1.934099913E0,8.163999915E-1,2.903253407E0
9.632165678E0,2.532899857E0,-1.327299953E0,3.725999892E-1,2.883771419E0
9.642165678E0,3.064999819E0,-6.984999776E-1,-1.893000007E-1,3.149279378E0
9.652165678E0,3.608199835E0,-8.089999855E-2,-4.675000012E-1,3.639259143E0
9.662165678E0,4.198100090E0,4.036999941E-1,-3.075999916E-1,4.228668325E0
9.672165678E0,4.880899906E0,7.720999718E-1,1.648000032E-1,4.944338308E0
9.682165678E0,5.527599812E0,1.227999926E0,6.510999799E-1,5.699673208E0
9.692165678E0,6.117199898E0,1.729999900E0,9.691999555E-1,6.430581840E0
9.702165678E0,6.608900070E0,2.324699879E0,1.053099990E0,7.084547216E0
9.712165678E0,6.972799778E0,2.987399817E0,9.402999878E-1,7.643864106E0
9.722165678E0,7.117399693E0,3.359999895E0,7.935999632E-1,7.910548564E0
9.732165678E0,7.388499737E0,3.734799862E0,7.344999909E-1,8.311326525E0
9.742165678E0,7.688399792E0,4.042399883E0,7.749999762E-1,8.720843602E0
9.752165678E0,7.956599712E0,4.390899658E0,7.867999673E-1,9.121761506E0
9.762175053E0,8.269800186E0,4.691899776E0,6.394999623E-1,9.529558166E0
9.772165678E0,8.459300041E0,4.964799881E0,4.208999872E-1,9.817644924E0
9.782165678E0,8.531199455E0,5.169499874E0,1.713999957E-1,9.976696400E0
9.792165678E0,8.571399689E0,5.198100090E0,-8.760000020E-2,1.002480977E1
9.802165678E0,8.392700195E0,5.061699867E0,-2.951000035E-1,9.805371290E0
9.812165678E0,8.142399788E0,4.849800110E0,-3.115999997E-1,9.482422157E0
9.822165678E0,7.754799843E0,4.496900082E0,-1.655000001E-1,8.965847489E0
9.832165678E0,7.233799934E0,4.231400013E0,6.359999627E-2,8.380731025E0
9.842165678E0,6.681200027E0,4.134399891E0,3.060999811E-1,7.862912531E0
9.852165678E0,6.275799751E0,4.001299858E0,5.511000156E-1,7.463228142E0
9.862165678E0,6.195399761E0,3.764099836E0,8.071999550E-1,7.294038494E0
9.872165678E0,6.381099701E0,3.275399923E0,1.132099986E0,7.261427437E0
9.882165678E0,6.666299820E0,2.721099854E0,1.524899960E0,7.359976738E0
9.892165678E0,6.581799984E0,2.415400028E0,1.795399904E0,7.237244582E0
9.902165678E0,6.169699669E0,2.447199821E0,1.809499979E0,6.879554575E0
9.912165678E0,5.679800034E0,2.710899830E0,1.384199977E0,6.443998439E0
9.922165678E0,5.184199810E0,3.188899994E0,5.764999986E-1,6.113702895E0
9.932165678E0,4.898299694E0,3.734999895E0,-3.529999852E-1,6.169941094E0
9.942165678E0,4.838500023E0,4.201200008E0,-1.179799914E0,6.515603719E0
9.952165678E0,4.852499962E0,4.507299900E0,-1.695999980E0,6.836587175E0
9.962165678E0,5.043200016E0,4.700699806E0,-1.832699895E0,7.133669040E0
9.972165678E0,5.435599804E0,4.690299988E0,-1.564799905E0,7.348010475E0
9.982165678E0,5.889199734E0,4.394899845E0,-9.598000050E-1,7.410737764E0
9.992165678E0,6.206399918E0,3.870199919E0,-2.355999947E-1,7.318015763E0
1.000216568E1,6.428999901E0,3.282599926E0,3.278000057E-1,7.225991617E0
1.001216568E1,6.647500038E0,2.572799921E0,8.252999783E-1,7.175630721E0
1.002216568E1,6.775699615E0,1.848599911E0,1.294799924E0,7.141703841E0
1.003216568E1,6.904599667E0,1.061499953E0,1.754999995E0,7.202798324E0
1.004216568E1,6.918399811E0,3.098999858E-1,2.195899963E0,7.265140783E0
1.005216568E1,6.840199947E0,-3.360999823E-1,2.742499828E0,7.377167737E0
1.006216568E1,6.633399963E0,-7.583000064E-1,3.262899876E0,7.431253567E0
1.007216568E1,6.231299877E0,-9.756999612E-1,3.682899952E0,7.303755242E0
1.008216568E1,5.654599667E0,-9.691999555E-1,3.889299870E0,6.931125408E0
1.009216568E1,5.030799866E0,-8.965999484E-1,3.918099880E0,6.439281437E0
1.010216568E1,4.368899822E0,-8.679999709E-1,3.856199980E0,5.891603168E0
1.011216568E1,3.757299900E0,-1.041399956E0,3.752699852E0,5.411522206E0
1.012216568E1,3.206699848E0,-1.309099913E0,3.616099834E0,5.007279152E0
1.013216568E1,2.698899984E0,-1.680899978E0,3.433699846E0,4.679720130E0
1.014216568E1,2.146999836E0,-2.195099831E0,3.156999826E0,4.403943627E0
1.015216568E1,1.709800005E0,-2.722599983E0,2.973999977E0,4.379571051E0
1.016216568E1,1.291299939E0,-3.270099878E0,2.818099976E0,4.505851331E0
1.017216568E1,8.439999819E-1,-3.756399870E0,2.672600031E0,4.686754408E0
1.018216568E1,4.670999944E-1,-4.198400021E0,2.519399881E0,4.918548658E0
1.019216568E1,1.023999974E-1,-4.554599762E0,2.351399899E0,5.126787126E0
1.020216568E1,-3.184999824E-1,-4.842999935E0,2.211299896E0,5.333473337E0
1.021216568E1,-7.644000053E-1,-5.292999744E0,2.100199938E0,5.745519423E0
1.022216568E1,-1.085799932E0,-5.508699894E0,2.035699844E0,5.972337053E0
1.023216568E1,-1.490999937E0,-5.791899681E0,1.947099924E0,6.289704353E0
1.024216568E1,-1.816299915E0,-6.019199848E0,1.768000007E0,6.531120594E0
1.025216568E1,-2.131199837E0,-6.305999756E0,1.519299984E0,6.827585086E0
1.026216568E1,-2.416800022E0,-6.501899719E0,1.210999966E0,7.041458885E0
1.027216568E1,-2.674199820E0,-6.653599739E0,9.016999602E-1,7.227364456E0
1.028216568E1,-2.904799938E0,-6.739899635E0,6.410999894E-1,7.367164921E0
1.029216568E1,-3.158699989E0,-6.750400066E0,4.970999956E-1,7.469430707E0
1.030216568E1,-3.466499805E0,-6.675099850E0,4.081999958E-1,7.532609517E0
1.031216568E1,-3.750499964E0,-6.631899834E0,4.389999807E-1,7.631583477E0
1.032216724E1,-3.933199883E0,-6.671000004E0,4.907999933E-1,7.759715652E0
1.033216568E1,-3.986099958E0,-6.744699955E0,6.053000093E-1,7.857885114E0
1.034216568E1,-3.998199940E0,-6.912399769E0,7.851999998E-1,8.023927490E0
1.035216568E1,-3.921199799E0,-7.135399818E0,1.031800032E0,8.206969583E0
1.036216568E1,-3.794799805E0,-7.363599777E0,1.207000017E0,8.371377203E0
1.037216568E1,-3.531199932E0,-7.538300037E0,1.279299974E0,8.422110712E0
1.038216568E1,-3.356199980E0,-7.708999634E0,1.365800023E0,8.518107968E0
1.039216568E1,-3.279899836E0,-7.945600033E0,1.356999993E0,8.702399198E0
1.040216568E1,-3.175099850E0,-8.198699951E0,1.319499969E0,8.890501680E0
1.041216568E1,-3.179699898E0,-8.378999710E0,1.409299970E0,9.072169200E0
1.042216568E1,-3.215899944E0,-8.494699478E0,1.477999926E0,9.202522233E0
1.043216568E1,-3.196300030E0,-8.484899521E0,1.492699981E0,9.189015562E0
1.044216568E1,-3.072399855E0,-8.270599365E0,1.430699944E0,8.938084641E0
1.045216568E1,-2.961699963E0,-8.030200005E0,1.281799912E0,8.654408691E0
1.046216568E1,-2.618399858E0,-8.130399704E0,1.067399979E0,8.608063654E0
1.047216568E1,-2.277099848E0,-8.446899414E0,8.782999516E-1,8.792423115E0
1.048216568E1,-2.290599823E0,-8.696499825E0,7.831000090E-1,9.027136997E0
1.049216568E1,-2.473099947E0,-8.719999313E0,7.687999606E-1,9.096464409E0
1.050216568E1,-2.590100050E0,-8.730400085E0,7.152000070E-1,9.134550617E0
1.051216568E1,-2.573199987E0,-8.715399742E0,6.511999965E-1,9.110631826E0
1.052216568E1,-2.696799994E0,-8.546500206E0,7.748000026E-1,8.995316060E0
1.053216568E1,-2.764499903E0,-8.125900269E0,9.480999708E-1,8.635485420E0
1.054216568E1,-2.618899822E0,-7.678799629E0,1.178399920E0,8.198245324E0
1.055216568E1,-2.366699934E0,-7.355899811E0,1.319499969E0,7.839107779E0
1.056216568E1,-2.026299953E0,-7.229099751E0,1.451599956E0,7.646758603E0
1.057216568E1,-1.606499910E0,-7.320999622E0,1.586399913E0,7.661236331E0
1.058216568E1,-1.244099975E0,-7.476099968E0,1.726300001E0,7.773028185E0
1.059216568E1,-8.993999958E-1,-7.624799728E0,1.883999944E0,7.905437814E0
1.060216568E1,-4.937999845E-1,-7.745599747E0,2.061399937E0,8.030412415E0
1.061216568E1,-1.544999927E-1,-7.846699715E0,2.238600016E0,8.161243575E0
1.062216568E1,1.482999921E-1,-7.769399643E0,2.422600031E0,8.139690081E0
1.063217193E1,4.054999948E-1,-7.473199844E0,2.414399862E0,7.863998528E0
1.064216568E1,4.903999865E-1,-7.008800030E0,2.253000021E0,7.378331729E0
1.065216568E1,4.038999975E-1,-6.408400059E0,2.019899845E0,6.731323934E0
1.066216568E1,1.855999976E-1,-5.782700062E0,1.826399922E0,6.067108376E0
1.067216568E1,-4.639999941E-2,-5.104399681E0,1.723899961E0,5.387845593E0
1.068216568E1,-3.021000028E-1,-4.453700066E0,1.573499918E0,4.733139622E0
1.069216568E1,-5.616999865E-1,-3.802599907E0,1.381399989E0,4.084548795E0
1.070216568E1,-7.956999540E-1,-3.191499949E0,1.193799973E0,3.499138281E0
1.071216568E1,-1.017400026E0,-2.590699911E0,9.618999958E-1,2.944839630E0
1.072217662E1,-1.187299967E0,-2.240599871E0,7.472999692E-1,2.643563170E0
1.073216568E1,-1.237499952E0,-1.912999988E0,6.053000093E-1,2.357406029E0
1.074216568E1,-1.292400002E0,-1.667999983E0,5.224999785E-1,2.173827946E0
1.075216568E1,-1.205199957E0,-1.563799977E0,4.610999823E-1,2.027459124E0
1.076217505E1,-1.054199934E0,-1.540499926E0,3.924999833E-1,1.907494104E0
1.077216568E1,-8.881999850E-1,-1.508700013E0,2.377999872E-1,1.766811755E0
1.078216568E1,-6.875000000E-1,-1.457899928E0,1.448999941E-1,1.618370927E0
1.079216568E1,-4.426999986E-1,-1.456900001E0,6.780000031E-2,1.524184287E0
1.080216568E1,-1.929999888E-1,-1.583299994E0,1.171000004E-1,1.599312439E0
1.081216568E1,-6.999999750E-3,-1.748299956E0,2.245999873E-1,1.762681733E0
1.082216724E1,1.551999897E-1,-1.901499987E0,3.604999781E-1,1.941584268E0
1.083216568E1,3.637999892E-1,-2.059900045E0,5.345999599E-1,2.159012679E0
1.084216568E1,6.790999770E-1,-2.132999897E0,7.662999630E-1,2.366026410E0
1.085216568E1,1.200899959E0,-2.158900023E0,9.655999541E-1,2.652431580E0
1.086216568E1,1.813199997E0,-1.999699950E0,1.100399971E0,2.915025594E0
1.087216568E1,2.389699936E0,-1.646999955E0,1.030099988E0,3.079672161E0
1.088216568E1,2.999099970E0,-1.181399941E0,6.643999815E-1,3.291159945E0
1.089216568E1,3.493099928E0,-6.944999695E-1,2.996000051E-1,3.574050570E0
1.090216568E1,3.869399786E0,-2.382999957E-1,6.809999794E-2,3.877328875E0
1.091216568E1,4.323400021E0,1.758999974E-1,4.079999775E-2,4.327169189E0
1.092216568E1,4.873699665E0,5.959999561E-1,2.480999976E-1,4.916270739E0
1.093216568E1,5.401299953E0,1.059100032E0,6.107999682E-1,5.537942819E0
1.094216568E1,6.013599873E0,1.436599970E0,9.095000029E-1,6.249351419E0
1.095216568E1,6.641200066E0,1.834699988E0,1.060899973E0,6.971167127E0
1.096216568E1,7.439599991E0,2.232199907E0,9.630999565E-1,7.826744277E0
1.097216568E1,8.288100243E0,2.636899948E0,6.736999750E-1,8.723515268E0
1.098216568E1,9.015500069E0,3.046099901E0,3.704999983E-1,9.523404661E0
1.099216568E1,9.382100105E0,3.458099842E0,4.609999806E-2,9.999219075E0
1.100216568E1,9.746799469E0,3.813399792E0,-2.777999938E-1,1.046992315E1
1.101216568E1,1.010729980E1,4.161399841E0,-5.112999678E-1,1.094240310E1
1.102216568E1,1.033259964E1,4.541199684E0,-4.953999817E-1,1.129736832E1
1.103216568E1,1.030369949E1,4.953599930E0,-4.167999923E-1,1.144019658E1
1.104216568E1,1.029369926E1,5.261699677E0,-4.149999917E-1,1.156797100E1
1.105216568E1,1.043900013E1,5.299399853E0,-4.908999801E-1,1.171739499E1
1.106216568E1,1.066759968E1,5.085999966E0,-3.966999948E-1,1.182465430E1
1.107216568E1,1.054519939E1,4.777999878E0,-3.159999847E-2,1.157719792E1
1.108216568E1,1.009379959E1,4.524300098E0,3.960999846E-1,1.106846768E1
1.109216568E1,9.427000046E0,4.572700024E0,6.430999637E-1,1.049721358E1
1.110216568E1,8.659600258E0,4.887300014E0,5.446999669E-1,9.958467558E0
1.111216568E1,7.951999664E0,5.489299774E0,2.349999994E-1,9.665502350E0
1.112216568E1,7.492199898E0,6.115200043E0,-1.951999962E-1,9.672995085E0
1.113216568E1,7.424699783E0,6.626599789E0,-5.746999979E-1,9.968363543E0
1.114216568E1,7.469299793E0,6.893300056E0,-7.694000006E-1,1.019313501E1
1.115216568E1,7.440999985E0,6.920499802E0,-7.045999765E-1,1.018617982E1
1.116216568E1,7.540699959E0,6.537999630E0,-4.945999980E-1,9.992608478E0
1.117216568E1,7.728399754E0,5.773299694E0,-1.789999902E-1,9.648377745E0
1.118216568E1,7.964399815E0,4.683099747E0,1.938999891E-1,9.241249096E0
1.119216568E1,8.184499741E0,3.444199800E0,5.931000113E-1,8.899455932E0
1.120216568E1,8.177399635E0,2.204099894E0,9.688999653E-1,8.524475836E0
1.121216568E1,7.901999950E0,9.767999649E-1,1.334200025E0,8.073154965E0
1.122216568E1,7.815399647E0,7.569999993E-2,1.699399948E0,7.998384981E0
1.123216568E1,7.645099640E0,-6.527000070E-1,2.056699991E0,7.943776221E0
1.124216568E1,7.475699902E0,-1.185799956E0,2.433199883E0,7.950639737E0
1.125216568E1,7.142399788E0,-1.464100003E0,2.858199835E0,7.831141031E0
1.126216568E1,6.685099602E0,-1.556599975E0,3.261299849E0,7.599318184E0
1.127216568E1,6.153399944E0,-1.590999961E0,3.501999855E0,7.256694477E0
1.128216568E1,5.459699631E0,-1.548599958E0,3.645299911E0,6.744975414E0
1.129216568E1,4.741600037E0,-1.537699938E0,3.648199797E0,6.177107233E0
1.130216568E1,4.048699856E0,-1.617599964E0,3.497499943E0,5.589374385E0
1.131216568E1,3.440299988E0,-1.808399916E0,3.240399837E0,5.060253489E0
1.132216724E1,2.887599945E0,-2.080499887E0,2.973500013E0,4.637716631E0
1.133216568E1,2.381899834E0,-2.453199863E0,2.666800022E0,4.336295509E0
1.134216568E1,1.914199948E0,-2.935799837E0,2.458299875E0,4.280925181E0
1.135216568E1,1.496099949E0,-3.437799931E0,2.299299955E0,4.398131843E0
1.136216568E1,1.129199982E0,-3.888000011E0,2.199300051E0,4.607445865E0
1.137216568E1,7.455999851E-1,-4.333499908E0,2.110499859E0,4.877432772E0
1.138216568E1,2.967999876E-1,-4.792099953E0,1.995399952E0,5.199416617E0
1.139216568E1,-9.860000014E-2,-5.182799816E0,1.934599996E0,5.532975062E0
1.140216568E1,-4.310999811E-1,-5.532700062E0,1.901399970E0,5.866169024E0
1.141216568E1,-7.497000098E-1,-5.820499897E0,1.879399896E0,6.162176006E0
1.142216568E1,-1.152999997E0,-6.103299618E0,1.948899984E0,6.509829980E0
1.143216568E1,-1.513899922E0,-6.309999943E0,1.962999940E0,6.779480881E0
1.144216568E1,-1.803799987E0,-6.507400036E0,1.911700010E0,7.018158345E0
1.145216568E1,-2.170699835E0,-6.635999680E0,1.875000000E0,7.229388254E0
1.146216568E1,-2.517599821E0,-6.733399868E0,1.814000010E0,7.414012320E0
1.147216568E1,-2.806200027E0,-6.787999630E0,1.757799983E0,7.552586203E0
1.148216568E1,-3.067199945E0,-6.788899899E0,1.637300014E0,7.627426085E0
1.149216568E1,-3.301599979E0,-6.746099949E0,1.471300006E0,7.653440445E0
1.150216568E1,-3.422399998E0,-6.727900028E0,1.347299933E0,7.667638336E0
1.151216568E1,-3.450099945E0,-6.784399986E0,1.245499969E0,7.712492656E0
1.152216568E1,-3.346199989E0,-6.984899998E0,1.234200001E0,7.842775783E0
1.153216568E1,-3.180099964E0,-7.232299805E0,1.254099965E0,7.999497670E0
1.154216568E1,-2.844599962E0,-7.556599617E0,1.275599957E0,8.174417531E0
1.155216568E1,-2.369699955E0,-7.968299866E0,1.319800019E0,8.417312678E0
1.156216568E1,-1.941899896E0,-8.448599815E0,1.477699995E0,8.793941740E0
1.157216568E1,-1.600999951E0,-8.899499893E0,1.564599991E0,9.176724488E0
1.158216568E1,-1.347700000E0,-9.289899826E0,1.676499963E0,9.535679640E0
1.159216568E1,-1.398800015E0,-9.469999313E0,1.669999957E0,9.717326193E0
1.160216568E1,-1.686899900E0,-9.310199738E0,1.575500011E0,9.592061859E0
1.161216568E1,-2.066499949E0,-8.926300049E0,1.332999945E0,9.258841367E0
1.162216568E1,-2.420399904E0,-8.387899399E0,1.036899924E0,8.791493245E0
1.163216568E1,-2.865499973E0,-7.974299908E0,8.970999718E-1,8.520876567E0
1.164216568E1,-3.155299902E0,-7.739399910E0,8.429999948E-1,8.400290318E0
1.165216568E1,-3.190999985E0,-7.852799892E0,8.215000033E-1,8.516091199E0
1.166216568E1,-3.148599863E0,-8.286799431E0,8.581999540E-1,8.906246856E0
1.167216568E1,-3.155499935E0,-8.884399414E0,1.005100012E0,9.481558881E0
1.168216568E1,-3.281800032E0,-9.297900200E0,1.111099958E0,9.922484704E0
1.169216568E1,-3.636999846E0,-9.580599785E0,1.091799974E0,1.030571139E1
1.170216568E1,-4.065499783E0,-9.629199982E0,8.441999555E-1,1.048629841E1
1.171216568E1,-4.579400063E0,-9.609899521E0,5.151999593E-1,1.065769697E1
1.172216568E1,-4.957799911E0,-9.428500175E0,1.109999940E-1,1.065310830E1
1.173216568E1,-5.013799667E0,-9.092499733E0,-2.447999865E-1,1.038612852E1
1.174216568E1,-4.644499779E0,-8.834499359E0,-5.613999963E-1,9.996745824E0
1.175216568E1,-3.868399858E0,-8.735899925E0,-7.721999884E-1,9.585236449E0
1.176217505E1,-2.987599850E0,-8.812099457E0,-5.661999583E-1,9.321986488E0
1.177216568E1,-2.324199915E0,-8.970199585E0,-1.359999925E-1,9.267409662E0
1.178216568E1,-1.828099966E0,-9.064000130E0,2.377999872E-1,9.249572783E0
1.179216568E1,-1.340999961E0,-9.132399559E0,4.983999729E-1,9.243776562E0
1.180216568E1,-1.126699924E0,-9.125999451E0,6.509999633E-1,9.218303512E0
1.181216568E1,-1.046499968E0,-9.014999390E0,6.927999854E-1,9.101941990E0
1.182216724E1,-9.425999522E-1,-8.886099815E0,6.721000075E-1,8.961193169E0
1.183216568E1,-8.628000021E-1,-8.640099525E0,7.085999846E-1,8.711937649E0
1.184216568E1,-7.763999701E-1,-8.168199539E0,6.958000064E-1,8.234465269E0
1.185216568E1,-6.618999839E-1,-7.549299717E0,6.722999811E-1,7.608023730E0
1.186216568E1,-5.468999743E-1,-6.894199848E0,6.082999706E-1,6.942558605E0
1.187216568E1,-4.791999757E-1,-6.245599747E0,5.440999866E-1,6.287542732E0
1.188216568E1,-3.301999867E-1,-5.596799850E0,6.085999608E-1,5.639467573E0
1.189216568E1,-1.876999885E-1,-4.921899796E0,7.737999558E-1,4.985889615E0
1.190216568E1,9.559999406E-2,-4.273399830E0,9.221999645E-1,4.372818112E0
1.191216568E1,4.609999955E-1,-3.664299965E0,1.053599954E0,3.840532267E0
1.192216568E1,8.879999518E-1,-3.079499960E0,1.087800026E0,3.384549130E0
1.193216568E1,1.287400007E0,-2.610999823E0,1.062500000E0,3.098971620E0
1.194216568E1,1.579599977E0,-2.202800035E0,8.966999650E-1,2.855089300E0
1.195216568E1,1.832099915E0,-1.866599917E0,5.097000003E-1,2.664691246E0
1.196216568E1,2.023999929E0,-1.671399951E0,2.960000001E-2,2.625077079E0
1.197216568E1,2.320799828E0,-1.587299943E0,-5.205999613E-1,2.859485490E0
1.198216568E1,2.730599880E0,-1.613299966E0,-8.888999820E-1,3.293790471E0
1.199216568E1,3.064999819E0,-1.739499927E0,-9.901999831E-1,3.660680250E0
1.200216568E1,3.381699800E0,-1.885999918E0,-8.004999757E-1,3.953946060E0
1.201216568E1,3.553699970E0,-2.011399984E0,-3.693999946E-1,4.100118258E0
1.202216568E1,3.651399851E0,-2.083699942E0,1.127999946E-1,4.205621257E0
1.203216568E1,3.775499821E0,-2.119499922E0,6.209999919E-1,4.374050732E0
1.204216568E1,3.958499908E0,-2.077199936E0,1.042500019E0,4.590347197E0
1.205216568E1,4.182099819E0,-1.926799893E0,1.404799938E0,4.814143703E0
1.206216568E1,4.515399933E0,-1.766600013E0,1.806399941E0,5.174243221E0
1.207216568E1,4.870599747E0,-1.489199996E0,2.306299925E0,5.591017605E0
1.208216568E1,5.160099983E0,-1.095700026E0,2.744400024E0,5.946336845E0
1.209216568E1,5.561899662E0,-5.573999882E-1,2.976699829E0,6.332942797E0
1.210216568E1,6.037399769E0,1.338000000E-1,3.008299828E0,6.746700398E0
1.211216568E1,6.664299965E0,1.014899969E0,2.727200031E0,7.271900438E0
1.212216568E1,7.330099583E0,1.874699950E0,2.181299925E0,7.874193873E0
1.213216568E1,8.047399521E0,2.708299875E0,1.432899952E0,8.610965656E0
1.214216568E1,8.688499451E0,3.275199890E0,8.518999815E-1,9.324306441E0
1.215216568E1,9.106299400E0,3.640999794E0,2.979999781E-1,9.811746647E0
1.216216568E1,9.323699951E0,3.746199846E0,-1.963000000E-1,1.005007103E1
1.217216568E1,9.319399834E0,3.671499968E0,-6.983000040E-1,1.004085396E1
1.218216568E1,9.005599976E0,3.498999834E0,-1.166299939E0,9.731602453E0
1.219216568E1,8.483499527E0,3.331199884E0,-1.616799951E0,9.256386929E0
1.220216568E1,7.914799690E0,3.310599804E0,-2.006999969E0,8.810912216E0
1.221216412E1,7.429299831E0,3.501399994E0,-2.247900009E0,8.515124917E0
1.222216568E1,7.101799965E0,3.894699812E0,-2.246199846E0,8.405335396E0
1.223216568E1,7.281699657E0,4.298999786E0,-2.033099890E0,8.697013523E0
1.224216568E1,7.844999790E0,4.624199867E0,-1.524399996E0,9.233149055E0
1.225216568E1,8.383600235E0,4.827799797E0,-7.906000018E-1,9.706567475E0
1.226216568E1,8.656700134E0,4.974999905E0,2.539999969E-2,9.984474269E0
1.227216568E1,8.427599907E0,5.093299866E0,6.412000060E-1,9.867992763E0
1.228216568E1,7.984699726E0,5.320399761E0,1.000200033E0,9.646889833E0
1.229216568E1,7.537499905E0,5.608200073E0,1.098099947E0,9.458944781E0
1.230216568E1,7.146599770E0,5.820199966E0,1.100600004E0,9.282237677E0
1.231216568E1,6.852399826E0,6.075099945E0,1.068400025E0,9.219745188E0
1.232216724E1,6.772899628E0,6.343699932E0,1.091099977E0,9.343725026E0
1.233216568E1,6.925999641E0,6.429299831E0,1.061200023E0,9.509548509E0
1.234216568E1,7.169600010E0,6.368799686E0,1.028299928E0,9.644800386E0
1.235216568E1,7.460599899E0,6.081599712E0,1.003299952E0,9.677448874E0
1.236216568E1,7.755899906E0,5.516499996E0,1.154799938E0,9.587456308E0
1.237216568E1,7.896999836E0,4.789400101E0,1.385999918E0,9.339269538E0
1.238216568E1,7.905699730E0,4.076399803E0,1.588299990E0,9.035475662E0
1.239216568E1,7.883199692E0,3.347800016E0,1.682299972E0,8.728272196E0
1.240216568E1,7.861699581E0,2.603600025E0,1.699000001E0,8.454090986E0
1.241216568E1,8.148799896E0,1.785799980E0,1.779899955E0,8.529951065E0
1.242216568E1,8.364299774E0,1.022199988E0,2.038300037E0,8.669548464E0
1.243216568E1,8.273900032E0,3.905999959E-1,2.496599913E0,8.651184961E0
1.244216568E1,7.979399681E0,-6.969999522E-2,2.985499859E0,8.519911195E0
1.245216568E1,7.573199749E0,-4.467999935E-1,3.352200031E0,8.293987565E0
1.246216568E1,7.047899723E0,-6.718999743E-1,3.680199862E0,7.979236248E0
1.247216568E1,6.365599632E0,-7.946999669E-1,3.895799875E0,7.505309013E0
1.248216568E1,5.694799900E0,-8.252999783E-1,4.131599903E0,7.083924316E0
1.249216568E1,5.173699856E0,-9.797999859E-1,4.275199890E0,6.782662627E0
1.250216568E1,4.743700027E0,-1.220199943E0,4.371799946E0,6.565379853E0
1.251216568E1,4.307399750E0,-1.626199961E0,4.457999706E0,6.408742490E0
1.252216568E1,3.797699928E0,-2.178299904E0,4.363199711E0,6.181021512E0
1.253216568E1,3.334899902E0,-2.718600035E0,4.015799999E0,5.885490051E0
1.254216568E1,2.823400021E0,-3.284899950E0,3.575500011E0,5.616614255E0
1.255216568E1,2.333899975E0,-3.836599827E0,3.134999990E0,5.476751981E0
1.256216568E1,1.907499909E0,-4.390999794E0,2.701099873E0,5.496851428E0
1.257216568E1,1.457599998E0,-4.925699711E0,2.329399824E0,5.640320818E0
1.258216568E1,1.122399926E0,-5.447899818E0,2.055299997E0,5.929894780E0
1.259216568E1,7.942999601E-1,-5.984600067E0,1.824099898E0,6.306638632E0
1.260216568E1,4.244000018E-1,-6.493999958E0,1.727800012E0,6.733308525E0
1.261216568E1,2.269999869E-2,-6.962699890E0,1.620800018E0,7.148894862E0
1.262216568E1,-3.718999922E-1,-7.348399639E0,1.583299994E0,7.526229184E0
1.263216568E1,-7.901999950E-1,-7.668399811E0,1.509099960E0,7.855326497E0
1.264216568E1,-1.193699956E0,-7.899600029E0,1.350099921E0,8.102553301E0
1.265216568E1,-1.574299932E0,-8.059599876E0,1.147199988E0,8.291660766E0
1.266216568E1,-1.923799992E0,-8.116499901E0,9.808999896E-1,8.398853603E0
1.267216568E1,-2.263799906E0,-8.039599419E0,8.815999627E-1,8.398640802E0
1.268216568E1,-2.634699821E0,-7.935899734E0,8.185999990E-1,8.401800623E0
1.269216568E1,-2.959100008E0,-7.804199696E0,7.786999941E-1,8.382611731E0
1.270216568E1,-3.159399986E0,-7.623699665E0,7.186999917E-1,8.283666732E0
1.271216568E1,-3.156100035E0,-7.589399815E0,6.783999801E-1,8.247434965E0
1.272216568E1,-3.093299866E0,-7.420300007E0,5.875999928E-1,8.060684214E0
1.273216568E1,-2.995899916E0,-7.434899807E0,4.566999972E-1,8.028806034E0
1.274216568E1,-2.855999947E0,-7.496099949E0,2.610999942E-1,8.025984260E0
1.275216568E1,-2.752599955E0,-7.684299946E0,5.920000002E-2,8.162645209E0
1.276217505E1,-2.784099817E0,-7.863499641E0,-1.059999969E-2,8.341819392E0
1.277216568E1,-2.784099817E0,-8.062899590E0,2.039999887E-2,8.530063173E0
1.278216568E1,-2.772599936E0,-8.320599556E0,6.179999933E-2,8.770604689E0
1.279216568E1,-2.867699862E0,-8.645799637E0,2.390999943E-1,9.112119548E0
1.280216568E1,-3.021199942E0,-8.850199699E0,4.221999943E-1,9.361193121E0
1.281216568E1,-3.253799915E0,-8.989699364E0,5.500000119E-1,9.576241880E0
1.282216724E1,-3.478699923E0,-8.953199387E0,4.524999857E-1,9.615918502E0
1.283216568E1,-3.706799984E0,-8.758699417E0,2.171999961E-1,9.513272699E0
1.284216568E1,-3.742699862E0,-8.572999954E0,-9.510000050E-2,9.354847646E0
1.285216568E1,-3.459199905E0,-8.565099716E0,-3.225999773E-1,9.242892831E0
1.286216568E1,-3.140300035E0,-8.757399559E0,-3.725999892E-1,9.310873326E0
1.287216568E1,-2.854599953E0,-8.994099617E0,-3.235999942E-1,9.441784035E0
1.288216568E1,-2.542899847E0,-9.079500198E0,-2.478999943E-1,9.432132203E0
1.289216568E1,-2.332700014E0,-9.229399681E0,-2.168999910E-1,9.522098163E0
1.290216568E1,-2.429800034E0,-9.296799660E0,-2.126999944E-1,9.611433473E0
1.291216568E1,-2.756199837E0,-9.210700035E0,-1.982000023E-1,9.616283893E0
1.292216568E1,-3.096599817E0,-8.870200157E0,-2.852999866E-1,9.399509420E0
1.293216568E1,-3.205999851E0,-8.370699883E0,-4.549999833E-1,8.975192285E0
1.294216568E1,-2.985199928E0,-8.057700157E0,-4.571999907E-1,8.605055622E0
1.295216568E1,-2.511600018E0,-7.846299648E0,-1.764999926E-1,8.240370445E0
1.296216568E1,-1.950599909E0,-7.818699837E0,2.431999892E-1,8.062012985E0
1.297216568E1,-1.350000024E0,-7.909599781E0,7.123000026E-1,8.055534747E0
1.298216568E1,-9.052000046E-1,-8.032299995E0,1.079699993E0,8.154936072E0
1.299216568E1,-7.329999804E-1,-8.148599625E0,1.251899958E0,8.276727513E0
1.300216568E1,-8.328999877E-1,-8.248499870E0,1.245499969E0,8.383480344E0
1.301216568E1,-1.087100029E0,-8.251199722E0,1.120100021E0,8.397541747E0
1.302216568E1,-1.417099953E0,-8.191699982E0,1.024899960E0,8.376308303E0
1.303216568E1,-1.694899917E0,-7.908899784E0,9.426999688E-1,8.143222013E0
1.304216568E1,-1.850899935E0,-7.429800034E0,8.366000056E-1,7.702444980E0
1.305216568E1,-1.766199946E0,-6.852099895E0,7.098000050E-1,7.111578677E0
1.306216568E1,-1.527999997E0,-6.217599869E0,6.337000132E-1,6.433887458E0
1.307216568E1,-1.242900014E0,-5.500899792E0,5.709999800E-1,5.668398358E0
1.308216568E1,-1.057399988E0,-4.756199837E0,4.937999845E-1,4.897281904E0
1.309216568E1,-9.025999904E-1,-4.096300125E0,3.237999976E-1,4.207042654E0
1.310216568E1,-7.983999848E-1,-3.555299997E0,7.079999894E-2,3.644531965E0
1.311216568E1,-7.454999685E-1,-3.116400003E0,-2.248999923E-1,3.212210951E0
1.312216568E1,-6.270999908E-1,-2.800899982E0,-4.633999765E-1,2.907410299E0
1.313216568E1,-5.421999693E-1,-2.540699959E0,-5.734999776E-1,2.660458478E0
1.314216568E1,-4.032000005E-1,-2.414199829E0,-6.031999588E-1,2.520869145E0
1.315216568E1,-1.905999929E-1,-2.410799980E0,-5.238000154E-1,2.474399191E0
1.316216568E1,1.445000023E-1,-2.431200027E0,-4.054999948E-1,2.469016823E0
1.317216568E1,5.934000015E-1,-2.464400053E0,-3.400000036E-1,2.557536155E0
1.318216568E1,1.175899982E0,-2.411399841E0,-2.802000046E-1,2.697425070E0
1.319216568E1,1.715799928E0,-2.302199841E0,-2.775999904E-1,2.884641269E0
1.320216568E1,2.193300009E0,-2.216300011E0,-3.939999938E-1,3.142894631E0
1.321216568E1,2.523399830E0,-1.912099957E0,-7.457999587E-1,3.252674365E0
1.322216568E1,2.608999968E0,-1.633199930E0,-1.253899932E0,3.323625713E0
1.323216568E1,2.616499901E0,-1.262599945E0,-1.822600007E0,3.429591978E0
1.324216568E1,2.629499912E0,-1.061599970E0,-2.082799911E0,3.518425750E0
1.325216568E1,2.715299845E0,-1.020799994E0,-1.857899904E0,3.444804484E0
1.326216568E1,2.794899940E0,-1.002399921E0,-9.758999944E-1,3.125484295E0
1.327216568E1,2.938299894E0,-1.024500012E0,2.469999939E-1,3.121572607E0
1.328216568E1,3.246699810E0,-9.381999969E-1,1.282699943E0,3.614774963E0
1.329216568E1,3.564399958E0,-5.677999854E-1,2.112699986E0,4.182205771E0
1.330216568E1,3.792599916E0,-8.229999989E-2,2.544899940E0,4.568052443E0
1.331216568E1,4.097099781E0,3.890999854E-1,2.567699909E0,4.850846136E0
1.332216568E1,4.545000076E0,9.037999511E-1,2.389299870E0,5.213696761E0
1.333216568E1,4.975599766E0,1.311599970E0,2.202499866E0,5.597132585E0
1.334216568E1,5.522699833E0,1.580500007E0,2.130300045E0,6.126693398E0
1.335216568E1,6.242199898E0,1.669799924E0,2.166300058E0,6.815141032E0
1.336216568E1,6.809299946E0,1.843999982E0,2.320199966E0,7.426320056E0
1.337216568E1,7.242799759E0,2.132599831E0,2.549999952E0,7.969230210E0
1.338216568E1,7.591699600E0,2.487099886E0,2.732699871E0,8.443175780E0
1.339216568E1,7.825299740E0,2.877799988E0,2.814999819E0,8.800072316E0
1.340216568E1,7.912099838E0,3.196399927E0,2.832700014E0,8.991244948E0
1.341216568E1,7.831299782E0,3.550899982E0,2.794199944E0,9.041332882E0
1.342216568E1,7.592099667E0,3.883299828E0,2.818399906E0,8.981279025E0
1.343216568E1,7.322399616E0,4.234099865E0,2.836999893E0,8.921530485E0
1.344216568E1,7.365999699E0,4.418099880E0,2.742300034E0,9.016527468E0
1.345216568E1,7.721899986E0,4.376800060E0,2.703399897E0,9.278603837E0
1.346216724E1,7.984899998E0,4.226099968E0,2.919899940E0,9.494438613E0
1.347216568E1,7.888399601E0,4.161499977E0,3.402299881E0,9.545709759E0
1.348216568E1,7.315599918E0,4.331200123E0,3.919499874E0,9.361611823E0
1.349216568E1,6.612699986E0,4.610399723E0,4.158499718E0,9.070650837E0
1.350216568E1,5.969500065E0,4.893699646E0,4.035500050E0,8.710251885E0
1.351216568E1,5.496099949E0,5.310299873E0,3.894399881E0,8.577455907E0
1.352216568E1,5.212500095E0,5.713399887E0,3.679299831E0,8.564481465E0
1.353216568E1,5.264999866E0,6.033499718E0,3.432499886E0,8.712370395E0
1.354216568E1,5.502699852E0,6.150300026E0,3.245699883E0,8.867945861E0
1.355216568E1,5.754799843E0,6.119599819E0,3.181900024E0,8.982856502E0
1.356216568E1,6.067399979E0,5.841199875E0,3.096199989E0,8.973260993E0
1.357216568E1,6.507299900E0,5.303299904E0,3.019500017E0,8.921172693E0
1.358216568E1,6.887699604E0,4.553899765E0,2.903399944E0,8.752607620E0
1.359216568E1,7.171599865E0,3.887699842E0,2.816399813E0,8.630073151E0
1.360216568E1,7.418799877E0,3.206300020E0,2.700700045E0,8.521310472E0
1.361216568E1,7.572599888E0,2.559000015E0,2.745699883E0,8.451722782E0
1.362216568E1,7.634099960E0,1.925799966E0,2.816499949E0,8.361869389E0
1.363216568E1,7.654500008E0,1.356099963E0,2.884299994E0,8.291535680E0
1.364216568E1,7.576200008E0,8.689999580E-1,2.978499889E0,8.186905953E0
1.365216568E1,7.371299744E0,4.544000030E-1,3.089299917E0,8.005392761E0
1.366216568E1,6.972399712E0,9.219999611E-2,3.264699936E0,7.699423631E0
1.367216568E1,6.322899818E0,-1.096999943E-1,3.363699913E0,7.162790888E0
1.368216568E1,5.631299973E0,-1.898999959E-1,3.293499947E0,6.526464838E0
1.369216568E1,5.036399841E0,-2.563999891E-1,3.100399971E0,5.919758804E0
1.370216568E1,4.441199780E0,-4.570999742E-1,2.872900009E0,5.309119544E0
1.371216568E1,3.808300018E0,-8.970999718E-1,2.636800051E0,4.718119530E0
1.372216568E1,3.552999973E0,-1.060599923E0,2.448400021E0,4.443348250E0
1.373216568E1,3.190199852E0,-1.479599953E0,2.345099926E0,4.226829164E0
1.374216568E1,2.862499952E0,-1.994300008E0,2.207299948E0,4.128354582E0
1.375216568E1,2.621199846E0,-2.524999857E0,1.965299964E0,4.136268470E0
1.376217505E1,2.458400011E0,-3.041599989E0,1.747599959E0,4.283592736E0
1.377216568E1,2.296999931E0,-3.611699820E0,1.516999960E0,4.541131263E0
1.378216568E1,2.020699978E0,-4.234699726E0,1.314299941E0,4.872709155E0
1.379216568E1,1.631199956E0,-4.888700008E0,1.072099924E0,5.263990816E0
1.380216568E1,1.159500003E0,-5.501599789E0,8.119999766E-1,5.680790830E0
1.381216568E1,6.365000010E-1,-6.048899651E0,5.758000016E-1,6.109489739E0
1.382216724E1,1.508999914E-1,-6.476799965E0,3.267999887E-1,6.486794804E0
1.383216568E1,-1.895999908E-1,-6.858699799E0,1.645999998E-1,6.863293979E0
1.384216568E1,-5.823999643E-1,-7.250099659E0,1.208999977E-1,7.274458852E0
1.385216568E1,-1.038100004E0,-7.548699856E0,1.747999936E-1,7.621750204E0
1.386216568E1,-1.401299953E0,-7.613199711E0,1.850999892E-1,7.743301195E0
1.387216568E1,-1.732499957E0,-7.568799973E0,1.985999942E-1,7.767092833E0
1.388216568E1,-1.994699955E0,-7.524399757E0,2.349999994E-1,7.787852375E0
1.389216568E1,-2.238600016E0,-7.470499992E0,2.545999885E-1,7.802853409E0
1.390216568E1,-2.406899929E0,-7.466499805E0,2.463999987E-1,7.848725984E0
1.391216568E1,-2.530400038E0,-7.533499718E0,1.896999925E-1,7.949372833E0
1.392216568E1,-2.629699945E0,-7.652499676E0,7.400000095E-2,8.092067047E0
1.393216568E1,-2.666699886E0,-7.784999847E0,-7.239999622E-2,8.229383493E0
1.394216568E1,-2.642400026E0,-7.941199780E0,-1.794999987E-1,8.371209715E0
1.395216568E1,-2.646299839E0,-8.072599411E0,-1.665000021E-1,8.496910400E0
1.396216568E1,-2.610499859E0,-8.218500137E0,-1.410000026E-1,8.624287508E0
1.397216568E1,-2.643499851E0,-8.320799828E0,-3.559999913E-2,8.730696913E0
1.398216568E1,-2.726399899E0,-8.369299889E0,1.391000003E-1,8.803282674E0
1.399216568E1,-2.761799812E0,-8.334400177E0,2.751999795E-1,8.784389537E0
1.400216568E1,-2.789700031E0,-8.304599762E0,3.141999841E-1,8.766272018E0
1.401216568E1,-2.741799831E0,-8.289799690E0,1.392000020E-1,8.732561014E0
1.402216568E1,-2.569599867E0,-8.301099777E0,-2.093999982E-1,8.692235003E0
1.403216568E1,-2.322299957E0,-8.388099670E0,-4.843999743E-1,8.717105971E0
1.404216568E1,-2.029599905E0,-8.444199562E0,-3.984999955E-1,8.693824490E0
1.405216568E1,-1.662099957E0,-8.547999382E0,-2.574999928E-1,8.711898527E0
1.406216568E1,-1.131099939E0,-8.630800247E0,-3.113999963E-1,8.710170488E0
1.407216568E1,-6.517999768E-1,-8.812399864E0,-4.449999928E-1,8.847669725E0
1.408216568E1,-5.170999765E-1,-9.185099602E0,-5.604999661E-1,9.216702626E0
1.409216568E1,-7.558000088E-1,-9.573299408E0,-5.927999616E-1,9.621367211E0
1.410216568E1,-1.329199910E0,-9.807799339E0,-5.184000134E-1,9.911026125E0
1.411216568E1,-2.150399923E0,-9.932799339E0,-5.094999671E-1,1.017567260E1
1.412216568E1,-2.985899925E0,-9.873499870E0,-4.713999927E-1,1.032588088E1
1.413216568E1,-3.602099895E0,-9.604599953E0,-3.828999996E-1,1.026499276E1
1.414216568E1,-3.970899820E0,-9.122099876E0,-2.205999941E-1,9.951352466E0
1.415216568E1,-4.042799950E0,-8.591199875E0,-1.806000024E-1,9.496607978E0
1.416216568E1,-3.659600019E0,-8.130999565E0,-2.606000006E-1,8.920411347E0
1.417216568E1,-2.957000017E0,-7.813599586E0,-4.329999983E-1,8.365624699E0
1.418216568E1,-2.099999905E0,-7.713799953E0,-6.105999947E-1,8.017826493E0
1.419216568E1,-1.322499990E0,-7.885900021E0,-6.800999641E-1,8.024896343E0
1.420216568E1,-8.292999864E-1,-8.234700203E0,-7.978000045E-1,8.314716516E0
1.421216412E1,-5.256000161E-1,-8.505599976E0,-9.353999496E-1,8.573007605E0
1.422216568E1,-5.367999673E-1,-8.842100143E0,-1.009199977E0,8.915681339E0
1.423216568E1,-7.591999769E-1,-8.928400040E0,-1.041199923E0,9.020909552E0
1.424216568E1,-8.930999637E-1,-8.652899742E0,-1.112200022E0,8.769680176E0
1.425216568E1,-7.113999724E-1,-8.071599960E0,-1.220499992E0,8.194292896E0
1.426216568E1,-3.592999876E-1,-7.441299915E0,-1.115299940E0,7.532989769E0
1.427216568E1,9.749999642E-2,-6.688899994E0,-8.631999493E-1,6.745072537E0
1.428216568E1,4.953999817E-1,-5.958299637E0,-4.470999837E-1,5.995552860E0
1.429216568E1,9.544000030E-1,-5.216499805E0,-2.899999917E-2,5.303167976E0
1.430216568E1,1.329499960E0,-4.400899887E0,3.941999972E-1,4.614204547E0
1.431216568E1,1.582299948E0,-3.664399862E0,6.877999902E-1,4.050255338E0
1.432216724E1,1.742299914E0,-3.079999924E0,8.273999691E-1,3.634088501E0
1.433216568E1,1.857499957E0,-2.660699844E0,8.399999738E-1,3.351899418E0
1.434216568E1,1.936999917E0,-2.377300024E0,7.348999977E-1,3.153347759E0
1.435216568E1,2.009700060E0,-2.101599932E0,5.220999718E-1,2.954353565E0
1.436216568E1,2.124199867E0,-1.782899976E0,1.739999950E-1,2.778710744E0
1.437216568E1,2.349200010E0,-1.351599932E0,-2.190999985E-1,2.719111596E0
1.438216568E1,2.605399847E0,-9.056999683E-1,-6.334999800E-1,2.830145406E0
1.439216568E1,2.999599934E0,-4.470999837E-1,-1.124899983E0,3.234640340E0
1.440216568E1,3.421899796E0,4.079999775E-2,-1.474099994E0,3.726128506E0
1.441216568E1,3.702499866E0,5.155000091E-1,-1.391499996E0,3.988799037E0
1.442216568E1,4.054599762E0,8.574999571E-1,-1.018899918E0,4.267697558E0
1.443216568E1,4.574999809E0,1.144699931E0,-4.553000033E-1,4.737959400E0
1.444216568E1,4.919399738E0,1.258599997E0,1.750000007E-2,5.077880856E0
1.445216568E1,5.048500061E0,1.346699953E0,1.142999977E-1,5.226281481E0
1.446216568E1,4.923799992E0,1.470099926E0,9.290000051E-2,5.139419282E0
1.447216568E1,4.614500046E0,1.680299997E0,7.199999690E-2,4.911435916E0
1.448216568E1,4.307799816E0,2.058500051E0,2.721999884E-1,4.782118208E0
1.449216568E1,4.278100014E0,2.507999897E0,7.192999721E-1,5.010947581E0
1.450216568E1,4.525499821E0,2.940999985E0,1.228399992E0,5.535214185E0
1.451216568E1,5.118199825E0,3.415699959E0,1.540099978E0,6.343097319E0
1.452216568E1,5.700799942E0,3.929899931E0,1.619799972E0,7.111046716E0
1.453216568E1,6.091799736E0,4.410999775E0,1.416499972E0,7.653327068E0
1.454216568E1,6.453399658E0,4.698899746E0,1.098699927E0,8.058111907E0
1.455216568E1,6.732699871E0,4.753099918E0,8.187999725E-1,8.282006990E0
1.456216568E1,6.720999718E0,4.700399876E0,7.200999856E-1,8.233112424E0
1.457216568E1,6.634500027E0,4.513499737E0,7.960000038E-1,8.063614976E0
1.458216568E1,6.602699757E0,4.254199982E0,1.105599999E0,7.931974087E0
1.459216568E1,6.618999958E0,4.062900066E0,1.558300018E0,7.921276181E0
1.460216568E1,6.568199635E0,4.040100098E0,1.934199929E0,7.950143685E0
1.461216568E1,6.608399868E0,4.069299698E0,2.100399971E0,8.040014234E0
1.462216568E1,6.641299725E0,4.130899906E0,2.182399988E0,8.119979420E0
1.463216568E1,6.685299873E0,4.185199738E0,2.230499983E0,8.196600601E0
1.464216568E1,6.798399925E0,4.182799816E0,2.286099911E0,8.303030088E0
1.465216568E1,6.900799751E0,4.142600060E0,2.537099838E0,8.439137874E0
1.466216568E1,6.913799763E0,4.074199677E0,2.895200014E0,8.531231639E0
1.467216568E1,6.915999889E0,3.948599815E0,3.199699879E0,8.582573873E0
1.468216568E1,6.879299641E0,3.864699841E0,3.347399950E0,8.571216648E0
1.469216568E1,6.725800037E0,3.852499962E0,3.305699825E0,8.426493543E0
1.470216568E1,6.309199810E0,3.941699982E0,3.211599827E0,8.102923820E0
1.471216412E1,5.628599644E0,4.241399765E0,3.013099909E0,7.664814217E0
1.472216568E1,5.097599983E0,4.705199718E0,2.622799873E0,7.416435071E0
1.473216568E1,4.794399738E0,5.173999786E0,2.082799911E0,7.354902998E0
1.474216568E1,4.750699997E0,5.500299931E0,1.672199965E0,7.457794748E0
1.475216568E1,4.962999821E0,5.661599636E0,1.438300014E0,7.665101734E0
1.476217505E1,5.367300034E0,5.575399876E0,1.486299992E0,7.880487364E0
1.477216568E1,5.822299957E0,5.198499680E0,1.710899949E0,7.990666702E0
1.478216568E1,6.188199997E0,4.410500050E0,2.012899876E0,7.861176489E0
1.479216568E1,6.250400066E0,3.563399792E0,2.173199892E0,7.515857691E0
1.480216568E1,6.287499905E0,2.629699945E0,2.228600025E0,7.170399914E0
1.481216568E1,6.224799633E0,1.650299907E0,2.257499933E0,6.824069622E0
1.482216724E1,6.224299908E0,8.248999715E-1,2.271999836E0,6.677151530E0
1.483216568E1,6.318899632E0,2.249999940E-1,2.332399845E0,6.739377315E0
1.484216568E1,6.412299633E0,-2.759000063E-1,2.440599918E0,6.866602898E0
1.485216568E1,6.426300049E0,-6.290999651E-1,2.628199816E0,6.971408276E0
1.486216568E1,6.312299728E0,-8.740999699E-1,2.815999985E0,6.966996091E0
1.487216568E1,6.100499630E0,-1.040799975E0,3.040099859E0,6.895039338E0
1.488216568E1,5.751999855E0,-1.091099977E0,3.119199991E0,6.633657368E0
1.489216568E1,5.296499729E0,-1.095000029E0,3.049199820E0,6.208828713E0
1.490216568E1,4.772999763E0,-1.162299991E0,2.916100025E0,5.712802059E0
1.491216568E1,4.230899811E0,-1.353299975E0,2.719399929E0,5.208365387E0
1.492216568E1,3.681199789E0,-1.688300014E0,2.517799854E0,4.768742489E0
1.493216568E1,3.194399834E0,-2.117199898E0,2.310699940E0,4.475048594E0
1.494216568E1,2.723199844E0,-2.531100035E0,2.147300005E0,4.293388183E0
1.495216568E1,2.357699871E0,-3.007099867E0,1.999499917E0,4.312701962E0
1.496216568E1,2.040699959E0,-3.483999968E0,1.878799915E0,4.453380875E0
1.497216568E1,1.881399989E0,-4.009399891E0,1.717099905E0,4.750093208E0
1.498216568E1,1.841499925E0,-4.581900120E0,1.476799965E0,5.154208845E0
1.499216568E1,1.597700000E0,-5.102699757E0,1.288599968E0,5.500061815E0
1.500216568E1,1.209599972E0,-5.619499683E0,1.153399944E0,5.862784340E0
1.501216568E1,7.565999627E-1,-6.070299625E0,1.099099994E0,6.215223394E0
1.502216568E1,2.590000033E-1,-6.421899796E0,1.024799943E0,6.508309528E0
1.503216568E1,-3.224000037E-1,-6.662099838E0,9.682999849E-1,6.739816086E0
1.504216568E1,-8.606999516E-1,-6.808499813E0,9.695999622E-1,6.930843974E0
1.505216568E1,-1.386199951E0,-6.918599606E0,1.100099921E0,7.141343756E0
1.506216568E1,-1.752599955E0,-7.068999767E0,1.282499909E0,7.395077439E0
1.507216568E1,-2.098099947E0,-7.297399998E0,1.387499928E0,7.718758071E0
1.508216568E1,-2.511899948E0,-7.484299660E0,1.353699923E0,8.009799387E0
1.509216568E1,-2.975600004E0,-7.617899895E0,1.140900016E0,8.257617516E0
1.510216568E1,-3.373099804E0,-7.715999603E0,7.493000031E-1,8.454342237E0
1.511216568E1,-3.568699837E0,-7.806599617E0,4.556999803E-1,8.595712802E0
1.512216568E1,-3.691799879E0,-7.927999973E0,2.649999857E-1,8.749445406E0
1.513216568E1,-3.646499872E0,-8.156999588E0,1.616999954E-1,8.936428285E0
1.514216568E1,-3.424199820E0,-8.385199547E0,1.149000004E-1,9.058140971E0
1.515216568E1,-3.153699875E0,-8.553599358E0,-2.520000003E-2,9.116497129E0
1.516216568E1,-2.992699862E0,-8.653999329E0,-2.788999975E-1,9.161099391E0
1.517216568E1,-2.853699923E0,-8.706199646E0,-6.653999686E-1,9.186091260E0
1.518216568E1,-2.796200037E0,-8.701299667E0,-1.048799992E0,9.199528899E0
1.519216568E1,-2.928200006E0,-8.690599442E0,-1.301299930E0,9.262518850E0
1.520216568E1,-3.102699995E0,-8.743800163E0,-1.265900016E0,9.363935679E0
1.521216568E1,-3.230700016E0,-8.856100082E0,-8.987999558E-1,9.469729279E0
1.522216568E1,-3.374099970E0,-8.927299500E0,-2.978000045E-1,9.548293659E0
1.523216568E1,-3.425999880E0,-8.929499626E0,2.820000052E-1,9.568331242E0
1.524216568E1,-3.326799870E0,-8.942199707E0,6.718999743E-1,9.564621401E0
1.525216568E1,-3.174199820E0,-9.035900116E0,8.891999722E-1,9.618404857E0
1.526216568E1,-2.967799902E0,-9.349599838E0,1.033399940E0,9.863608307E0
1.527216568E1,-2.932799816E0,-9.746899605E0,1.226599932E0,1.025221508E1
1.528216568E1,-2.991499901E0,-1.014779949E1,1.372999907E0,1.066827235E1
1.529216568E1,-2.899699926E0,-1.049919987E1,1.385800004E0,1.098006827E1
1.530216568E1,-2.884299994E0,-1.075809956E1,1.394599915E0,1.122500786E1
1.531216568E1,-2.984999895E0,-1.064599991E1,1.509499907E0,1.115912758E1
1.532216724E1,-3.133100033E0,-1.016989994E1,1.573799968E0,1.075732434E1
1.533216568E1,-3.170499802E0,-9.436699867E0,1.281599998E0,1.003722431E1
1.534216568E1,-2.859400034E0,-8.604899406E0,7.005000114E-1,9.094567753E0
1.535216568E1,-2.422499895E0,-7.738499641E0,3.979999945E-2,8.108912781E0
1.536216568E1,-1.846799970E0,-6.963199615E0,-4.593999982E-1,7.218577933E0
1.537216568E1,-1.286800027E0,-6.483999729E0,-7.436999679E-1,6.652157277E0
1.538216880E1,-6.922000051E-1,-6.356699944E0,-8.874999881E-1,6.455573658E0
1.539216568E1,-1.115999967E-1,-6.545199871E0,-9.006999731E-1,6.607825388E0
1.540216568E1,4.350000024E-1,-6.774099827E0,-8.546999693E-1,6.841649326E0
1.541216568E1,9.282999635E-1,-6.981499672E0,-8.416999578E-1,7.093062619E0
1.542216568E1,1.280099988E0,-7.096999645E0,-8.547999859E-1,7.262006814E0
1.543216568E1,1.412299991E0,-7.041399956E0,-8.759999871E-1,7.234865623E0
1.544216568E1,1.531099916E0,-6.852099895E0,-8.464999795E-1,7.071923511E0
1.545216568E1,1.548799992E0,-6.488999844E0,-6.279999614E-1,6.700767444E0
1.546216568E1,1.465699911E0,-6.021100044E0,-3.671000004E-1,6.207792231E0
1.547216568E1,1.292400002E0,-5.479000092E0,-1.332999915E-1,5.630942075E0
1.548216568E1,1.127399921E0,-4.893599987E0,1.001999974E-1,5.022787220E0
1.549216568E1,9.025999904E-1,-4.266099930E0,4.189999998E-1,4.380622827E0
1.550216568E1,7.358999848E-1,-3.617999792E0,7.131999731E-1,3.760335821E0
1.551216568E1,6.272000074E-1,-3.009899855E0,9.427999854E-1,3.215858952E0
1.552216568E1,6.448000073E-1,-2.483000040E0,1.116799951E0,2.797909644E0
1.553216568E1,7.001000047E-1,-2.038800001E0,1.225299954E0,2.479557509E0
1.554216568E1,7.723999619E-1,-1.640199900E0,1.269400001E0,2.213195376E0
1.555216568E1,9.688999653E-1,-1.366799951E0,1.182799935E0,2.050835180E0
1.556216568E1,1.161000013E0,-1.160599947E0,1.115299940E0,1.984642846E0
1.557216568E1,1.367599964E0,-9.822999835E-1,1.059800029E0,1.989577599E0
1.558216568E1,1.587999940E0,-8.710999489E-1,1.076300025E0,2.106888861E0
1.559216568E1,1.792400002E0,-6.891999841E-1,1.027300000E0,2.177852079E0
1.560216568E1,1.980699897E0,-5.830000043E-1,8.445000052E-1,2.230749055E0
1.561216568E1,2.083600044E0,-4.840999842E-1,6.563999653E-1,2.237543933E0
1.562216568E1,2.139799833E0,-4.016000032E-1,5.447999835E-1,2.244288954E0
1.563216568E1,2.217499971E0,-4.134999812E-1,7.099999785E-1,2.364823107E0
1.564216568E1,2.415099859E0,-4.104999900E-1,1.074399948E0,2.674986508E0
1.565216568E1,2.743299961E0,-4.109999835E-1,1.597700000E0,3.201134323E0
1.566216568E1,3.055799961E0,-3.847999871E-1,2.001399994E0,3.673089485E0
1.567216568E1,3.333999872E0,-2.430000007E-1,2.250099897E0,4.029584804E0
1.568216568E1,3.460699797E0,-2.510000020E-2,2.349799871E0,4.183136685E0
1.569216568E1,3.504099846E0,3.077999949E-1,2.310199976E0,4.208382171E0
1.570216568E1,3.532999992E0,7.164999843E-1,2.289099932E0,4.270297375E0
1.571216568E1,3.663299799E0,1.222599983E0,2.337899923E0,4.514453698E0
1.572216568E1,3.829999924E0,1.603099942E0,2.466500044E0,4.829332387E0
1.573216568E1,4.264400005E0,1.972399950E0,2.566599846E0,5.353774719E0
1.574216568E1,4.907999992E0,2.405499935E0,2.615700006E0,6.059437300E0
1.575216568E1,5.523599625E0,2.822299957E0,2.475199938E0,6.678483705E0
1.576217505E1,6.088500023E0,3.170899868E0,2.309599876E0,7.242837158E0
1.577216568E1,6.472499847E0,3.439999819E0,2.137399912E0,7.635137943E0
1.578216568E1,6.634199619E0,3.638399839E0,1.959299922E0,7.815971735E0
1.579216568E1,6.699599743E0,3.775699854E0,1.845199943E0,7.908559220E0
1.580216568E1,6.738100052E0,3.912400007E0,1.796000004E0,7.995904085E0
1.581216568E1,6.917599678E0,4.099299908E0,1.743499994E0,8.227833085E0
1.582216724E1,7.100999832E0,4.396100044E0,1.697699904E0,8.522445610E0
1.583216568E1,7.287399769E0,4.782999992E0,1.608500004E0,8.864003417E0
1.584216568E1,7.396800041E0,5.190799713E0,1.425899982E0,9.148237167E0
1.585216568E1,7.514099598E0,5.509699821E0,1.200099945E0,9.394611475E0
1.586216568E1,7.803299904E0,5.620800018E0,1.112399936E0,9.681028657E0
1.587216568E1,8.104800224E0,5.522999763E0,1.354699969E0,9.900834564E0
1.588216568E1,8.191499710E0,5.304100037E0,1.799699903E0,9.923359534E0
1.589216568E1,7.948599815E0,5.378099918E0,2.184799910E0,9.842639301E0
1.590216568E1,7.496699810E0,5.766699791E0,2.156199932E0,9.700749078E0
1.591216568E1,7.142099857E0,6.206699848E0,1.768199921E0,9.625967190E0
1.592216568E1,6.922899723E0,6.579799652E0,1.279099941E0,9.636202608E0
1.593216568E1,6.807899952E0,6.845200062E0,9.401999712E-1,9.699909362E0
1.594216568E1,6.873199940E0,6.961999893E0,7.274000049E-1,9.810169759E0
1.595216568E1,6.957799911E0,6.868099689E0,7.030000091E-1,9.801835643E0
1.596216568E1,7.010099888E0,6.511999607E0,8.105999827E-1,9.602328450E0
1.597216568E1,6.979699612E0,5.960199833E0,1.110199928E0,9.245146435E0
1.598216568E1,6.818599701E0,5.202399731E0,1.424399972E0,8.694088803E0
1.599216568E1,6.637799740E0,4.238800049E0,1.751699924E0,8.068225571E0
1.600216568E1,6.451600075E0,3.237799883E0,1.952099919E0,7.477779463E0
1.601216568E1,6.323599815E0,2.191900015E0,2.074199915E0,7.006757138E0
1.602216568E1,6.267600060E0,1.191200018E0,2.247699976E0,6.764164632E0
1.603216568E1,6.188999653E0,2.867999971E-1,2.563199997E0,6.704920966E0
1.604216568E1,5.973299980E0,-4.208000004E-1,2.883800030E0,6.646328904E0
1.605216568E1,5.771100044E0,-9.681999683E-1,3.127499819E0,6.635078147E0
1.606216568E1,5.339699745E0,-1.205999970E0,3.378799915E0,6.432971177E0
1.607216568E1,4.856899738E0,-1.161899924E0,3.427599907E0,6.057056020E0
1.608216568E1,4.441100121E0,-9.235000014E-1,3.260499954E0,5.586329966E0
1.609216568E1,4.090699673E0,-6.590999961E-1,2.937000036E0,5.078799645E0
1.610216568E1,3.783299923E0,-5.094000101E-1,2.608700037E0,4.623652513E0
1.611216568E1,3.487499952E0,-5.465999842E-1,2.347599983E0,4.239416604E0
1.612216568E1,3.251799822E0,-6.841999888E-1,2.135099888E0,3.949808000E0
1.613216568E1,2.968600035E0,-9.629999995E-1,1.902499914E0,3.655059656E0
1.614216568E1,2.589499950E0,-1.402999997E0,1.660099983E0,3.380806256E0
1.615216568E1,2.243599892E0,-1.905399919E0,1.516600013E0,3.311248242E0
1.616216568E1,1.903299928E0,-2.448600054E0,1.424199939E0,3.412702493E0
1.617216568E1,1.521199942E0,-3.010900021E0,1.314800024E0,3.620534118E0
1.618216568E1,1.079100013E0,-3.619199991E0,1.238600016E0,3.974568582E0
1.619216568E1,6.567999721E-1,-4.201499939E0,1.167699933E0,4.409933228E0
1.620216568E1,2.554000020E-1,-4.734399796E0,1.220799923E0,4.895929231E0
1.621216568E1,-1.208999977E-1,-5.137199879E0,1.357599974E0,5.314933404E0
1.622216568E1,-4.341999888E-1,-5.304800034E0,1.492100000E0,5.527729682E0
1.623216568E1,-6.441000104E-1,-5.404500008E0,1.669299960E0,5.692982304E0
1.624216568E1,-7.360000014E-1,-5.435800076E0,1.841399908E0,5.786222609E0
1.625216568E1,-7.402999997E-1,-5.507499695E0,1.929499984E0,5.882479678E0
1.626216568E1,-7.267000079E-1,-5.632299900E0,1.952499986E0,6.005260299E0
1.627216568E1,-8.039999604E-1,-5.841599941E0,1.929699898E0,6.204389374E0
1.628216568E1,-1.041000009E0,-6.009399891E0,1.849799991E0,6.373250981E0
1.629216568E1,-1.447600007E0,-6.154399872E0,1.720099926E0,6.552169665E0
1.630216568E1,-1.847399950E0,-6.294899940E0,1.558799982E0,6.743034126E0
1.631216568E1,-2.152400017E0,-6.418599606E0,1.403499961E0,6.913830984E0
1.632216724E1,-2.333799839E0,-6.572700024E0,1.204399943E0,7.077964857E0
1.633216568E1,-2.411799908E0,-6.717399597E0,9.629999995E-1,7.201916769E0
1.634216568E1,-2.446300030E0,-6.911900043E0,7.608000040E-1,7.371401678E0
1.635216568E1,-2.398699999E0,-7.166699886E0,4.539999962E-1,7.571094039E0
1.636216568E1,-2.289299965E0,-7.540999889E0,1.547999978E-1,7.882356037E0
1.637216568E1,-2.236299992E0,-7.947000027E0,1.105999947E-1,8.256396274E0
1.638216568E1,-2.289299965E0,-8.324799538E0,2.714999914E-1,8.638107079E0
1.639216568E1,-2.429199934E0,-8.613800049E0,4.575999975E-1,8.961470937E0
1.640216568E1,-2.480099916E0,-8.840700150E0,6.162999868E-1,9.202646380E0
1.641216568E1,-2.502099991E0,-8.934999466E0,7.667999864E-1,9.310354560E0
1.642216568E1,-2.515499830E0,-8.924900055E0,9.963999987E-1,9.326006291E0
1.643216568E1,-2.462199926E0,-8.917699814E0,1.135100007E0,9.320743022E0
1.644216568E1,-2.293200016E0,-8.954299927E0,1.021899939E0,9.299598538E0
1.645216568E1,-1.988699913E0,-9.105699539E0,7.732999921E-1,9.352362499E0
1.646216568E1,-1.685899973E0,-9.492699623E0,4.804999828E-1,9.653211128E0
1.647216568E1,-1.452999949E0,-1.005840015E1,2.242999971E-1,1.016528076E1
1.648216568E1,-1.584499955E0,-1.046000004E1,1.328999996E-1,1.058016556E1
1.649216568E1,-2.227999926E0,-1.069509983E1,1.345999986E-1,1.092553254E1
1.650216568E1,-3.012899876E0,-1.063019943E1,8.709999919E-2,1.104926658E1
1.651216568E1,-3.735399961E0,-1.039489937E1,5.629999936E-2,1.104582797E1
1.652216568E1,-4.328799725E0,-9.923799515E0,5.079999939E-2,1.082695176E1
1.653216568E1,-4.744699955E0,-9.262999535E0,-2.417999953E-1,1.041027403E1
1.654216568E1,-4.865499973E0,-8.625599861E0,-7.884999514E-1,9.934575740E0
1.655216568E1,-4.375999928E0,-8.101399422E0,-1.496799946E0,9.328582852E0
1.656216568E1,-3.607199907E0,-7.597899914E0,-2.035799980E0,8.653580521E0
1.657216568E1,-2.811199903E0,-7.241199970E0,-2.142299891E0,8.057746008E0
1.658216568E1,-2.074100018E0,-7.068999767E0,-1.860399961E0,7.598271949E0
1.659216568E1,-1.443099976E0,-7.116499901E0,-1.358600020E0,7.387347453E0
1.660216568E1,-9.465999603E-1,-7.326999664E0,-6.715999842E-1,7.418357103E0
1.661216568E1,-7.117999792E-1,-7.513700008E0,-1.187999994E-1,7.548275331E0
1.662216568E1,-5.717999935E-1,-7.673799992E0,3.542999923E-1,7.703225949E0
1.663216568E1,-4.186999798E-1,-7.724899769E0,7.166000009E-1,7.769356580E0
