"Time (s)","Linear Acceleration x (m/s^2)","Linear Acceleration y (m/s^2)","Linear Acceleration z (m/s^2)","Absolute acceleration (m/s^2)"
3.006780000E-4,-7.340600014E0,2.771800041E0,-3.696899891E0,8.673773852E0
1.030067800E-2,-2.697799921E0,2.807299852E0,1.047600031E0,4.031937834E0
2.030224000E-2,-1.689099908E0,3.884499788E0,6.068999767E-1,4.279103257E0
3.030224000E-2,-1.731299996E0,4.272699833E0,1.169999968E-2,4.610151888E0
4.030224000E-2,-1.520399928E0,4.137700081E0,-5.591999888E-1,4.443521411E0
5.030224000E-2,-1.154999956E-1,3.921599865E0,-2.360000014E-1,3.930392061E0
6.030224000E-2,1.158299923E0,2.402999878E0,5.751999617E-1,2.728904931E0
7.030224000E-2,3.910300016E0,3.167899847E0,2.475800037E0,5.608531134E0
8.031005300E-2,6.526999950E0,4.220200062E0,4.013000011E0,8.747341654E0
9.030224000E-2,9.288099289E0,6.808099747E0,5.793799877E0,1.289135864E1
1.003022400E-1,1.183099937E1,9.596199989E0,6.173899651E0,1.643705075E1
1.103022400E-1,1.408799934E1,1.125119972E1,4.264899731E0,1.852702325E1
1.203022400E-1,1.624729919E1,1.172569942E1,1.128399968E0,2.006838420E1
1.303038030E-1,1.775000000E1,1.145239925E1,-1.423200011E0,2.117180783E1
1.403022400E-1,1.841939926E1,1.036349964E1,-2.873199940E0,2.132912731E1
1.503022400E-1,1.876700020E1,8.681200027E0,-3.299599886E0,2.093921894E1
1.603022400E-1,1.893429947E1,7.344999790E0,-2.230099916E0,2.043110530E1
1.703022400E-1,1.885890007E1,6.947700024E0,-5.281000137E-1,2.010491326E1
1.803053650E-1,1.998760033E1,8.474399567E0,8.429999948E-1,2.172625747E1
1.903022400E-1,2.180839920E1,9.959099770E0,1.508899927E0,2.402221311E1
2.003022400E-1,2.288979912E1,1.029189968E1,3.136199951E0,2.529232794E1
2.103022400E-1,2.316899872E1,1.003279972E1,5.962499619E0,2.594245504E1
2.203022400E-1,2.332959938E1,9.655799866E0,8.698499680E0,2.670521625E1
2.303069280E-1,2.613949966E1,1.059109974E1,9.700799942E0,2.982533078E1
2.403022400E-1,2.746899986E1,1.166749954E1,9.331799507E0,3.126913784E1
2.503022400E-1,2.619029999E1,1.196490002E1,6.842899799E0,2.959587680E1
2.603022400E-1,2.243939972E1,1.181839943E1,3.663100004E0,2.562458832E1
2.703022400E-1,1.742129898E1,1.241799927E1,1.030300021E0,2.141891412E1
2.803038030E-1,1.293109989E1,1.384739971E1,-6.240000129E-1,1.895661360E1
2.903038030E-1,1.007409954E1,1.428829956E1,-6.315999627E-1,1.749405340E1
3.003022400E-1,9.881099701E0,1.460639954E1,2.408299923E0,1.779839732E1
3.103022400E-1,9.764800072E0,1.530029964E1,7.084499836E0,1.948436880E1
3.203022400E-1,8.368999481E0,1.576289940E1,1.015810013E1,2.053524161E1
3.303116150E-1,6.508599758E0,1.641449928E1,1.152530003E1,2.108625614E1
3.403038030E-1,4.459199905E0,1.681780052E1,1.092280006E1,2.054337945E1
3.503022400E-1,2.417000055E0,1.699479866E1,8.935199738E0,1.935207651E1
3.603022400E-1,7.494999766E-1,1.729380035E1,5.964499950E0,1.830881046E1
3.703022400E-1,2.157999873E-1,1.793420029E1,2.611799955E0,1.812466851E1
3.803053650E-1,8.549000025E-1,1.985649872E1,1.200199962E0,1.991109930E1
3.903022400E-1,2.061100006E0,2.275109863E1,2.751699924E0,2.300939970E1
4.003022400E-1,4.137099743E0,2.515649986E1,4.871599674E0,2.595568460E1
4.103022400E-1,6.977399826E0,2.722270012E1,6.092999935E0,2.875559351E1
4.203022400E-1,8.194299698E0,2.892989922E1,6.095900059E0,3.067972643E1
4.303131780E-1,6.950999737E0,2.927409935E1,4.810800076E0,3.047019999E1
4.403022400E-1,4.564799786E0,2.834700012E1,3.566900015E0,2.893289804E1
4.503022400E-1,2.495899916E0,2.679459953E1,3.427599907E0,2.712800254E1
4.603022400E-1,2.477599859E0,2.575739861E1,4.866099834E0,2.632985020E1
4.703022400E-1,6.485799789E0,2.608809853E1,8.769999504E0,2.827662241E1
4.803100530E-1,1.192140007E1,2.704939842E1,1.432629967E1,3.284863158E1
4.903022400E-1,1.671879959E1,3.053719902E1,1.903299904E1,3.967737184E1
5.003022400E-1,2.667409897E1,3.767549896E1,2.014279938E1,5.036549558E1
5.103022400E-1,4.398939896E1,4.355019760E1,1.872889900E1,6.467193046E1
5.203022400E-1,6.409249878E1,4.215810013E1,1.758759880E1,7.870500262E1
5.303100530E-1,6.941880035E1,3.381240082E1,1.638030052E1,7.893391246E1
5.403022400E-1,6.895790100E1,2.395619965E1,1.559909916E1,7.464866714E1
5.503022400E-1,6.666289520E1,1.604419899E1,1.397629929E1,6.997638787E1
5.603022400E-1,6.775669861E1,1.050159931E1,1.082030010E1,6.941421100E1
5.703022400E-1,6.854930115E1,4.640299797E0,7.735499859E0,6.914027067E1
5.803069280E-1,6.753179932E1,-3.725699902E0,5.878900051E0,6.788951483E1
5.903022400E-1,5.893969727E1,-1.322949982E1,4.225399971E0,6.055379083E1
6.003022400E-1,4.703619766E1,-2.137849998E1,3.686199903E0,5.179799438E1
6.103022400E-1,3.533379745E1,-2.765059853E1,4.037799835E0,4.504815944E1
6.203022400E-1,2.520249939E1,-3.194029999E1,3.889400005E0,4.087145913E1
6.303116150E-1,1.495149994E1,-3.436319733E1,3.023099899E0,3.759675270E1
6.403022400E-1,5.602599621E0,-3.434389877E1,2.784799814E0,3.490913370E1
6.503022400E-1,-1.080699921E0,-3.348089981E1,3.373199940E0,3.366774484E1
6.603022400E-1,-4.158800125E0,-3.254169846E1,4.531300068E0,3.311782658E1
6.703022400E-1,-3.788100004E0,-3.076099968E1,5.479700089E0,3.147405147E1
6.803022400E-1,-1.085999966E0,-2.863589859E1,5.850699902E0,2.924764560E1
6.903022400E-1,1.373099923E0,-2.718659973E1,5.471399784E0,2.776567708E1
7.003022400E-1,1.613299966E0,-2.598199844E1,4.505599976E0,2.641907286E1
7.103022400E-1,-2.950000018E-2,-2.533219910E1,3.387799978E0,2.555774579E1
7.203022400E-1,-2.349299908E0,-2.543549919E1,2.550400019E0,2.567076877E1
7.303053650E-1,-4.572999954E0,-2.633869934E1,2.048599958E0,2.681112033E1
7.403022400E-1,-7.575899601E0,-2.692319870E1,1.939399958E0,2.803594399E1
7.503022400E-1,-1.084799957E1,-2.630279922E1,1.804899931E0,2.850919160E1
7.603022400E-1,-1.313959980E1,-2.514559937E1,1.704499960E0,2.842280019E1
7.703022400E-1,-1.344989967E1,-2.350370026E1,1.832799911E0,2.714190271E1
7.803038030E-1,-1.203679943E1,-2.148219872E1,2.277400017E0,2.472965736E1
7.903022400E-1,-9.611100197E0,-1.922069931E1,2.315599918E0,2.161412806E1
8.003022400E-1,-7.445600033E0,-1.715600014E1,2.155400038E0,1.882580808E1
8.103022400E-1,-6.164899826E0,-1.545249939E1,1.562799931E0,1.671011882E1
8.203022400E-1,-5.767099857E0,-1.415499973E1,9.994999766E-1,1.531739072E1
8.303022400E-1,-5.858399868E0,-1.318709946E1,6.758999825E-1,1.444566654E1
8.403022400E-1,-5.924499989E0,-1.260709953E1,3.673999906E-1,1.393462025E1
8.503022400E-1,-5.727799892E0,-1.213889980E1,2.196999937E-1,1.342418892E1
8.603022400E-1,-5.430200100E0,-1.166440010E1,2.412999868E-1,1.286870345E1
8.703084900E-1,-5.091899872E0,-1.144829941E1,4.238999784E-1,1.253677370E1
8.803022400E-1,-5.005300045E0,-1.154049969E1,4.096999764E-1,1.258586571E1
8.903022400E-1,-5.294499874E0,-1.177530003E1,3.790000081E-2,1.291088130E1
9.003022400E-1,-5.534299850E0,-1.206429958E1,-2.947999835E-1,1.327639659E1
9.103022400E-1,-5.449299812E0,-1.216039944E1,-4.307999909E-1,1.333250807E1
9.203163030E-1,-5.224099636E0,-1.222879982E1,-2.648999989E-1,1.330056142E1
9.303022400E-1,-4.970900059E0,-1.242719936E1,1.155999973E-1,1.338501008E1
9.403022400E-1,-4.773699760E0,-1.279669952E1,2.748999894E-1,1.366086740E1
9.503022400E-1,-4.913899899E0,-1.332949924E1,2.739000022E-1,1.420904583E1
9.603022400E-1,-5.331199646E0,-1.380169964E1,2.818999887E-1,1.479824551E1
9.703116150E-1,-5.979699612E0,-1.425179958E1,2.433999926E-1,1.545735561E1
9.803022400E-1,-6.992899895E0,-1.491279984E1,5.799999926E-3,1.647095266E1
9.903022400E-1,-7.750799656E0,-1.549619961E1,-5.359999835E-2,1.732656834E1
1.000302240E0,-7.440299988E0,-1.598609924E1,-2.694999874E-1,1.763479694E1
1.010302240E0,-5.214799881E0,-1.615149879E1,-1.393899918E0,1.702962149E1
1.020306928E0,-1.734099984E0,-1.545529938E1,-2.501399994E0,1.575215489E1
1.030302240E0,2.156499863E0,-1.440919971E1,-3.354499817E0,1.495085941E1
1.040302240E0,5.603499889E0,-1.317840004E1,-2.991899967E0,1.462945331E1
1.050302240E0,7.298799992E0,-1.219069958E1,-1.178399920E0,1.425742838E1
1.060302240E0,7.303799629E0,-1.241359997E1,1.456099987E0,1.447629719E1
1.070311615E0,6.855199814E0,-1.442809963E1,3.608599901E0,1.637637984E1
1.080302240E0,6.274199963E0,-1.731069946E1,3.648000002E0,1.877055687E1
1.090302240E0,6.042299747E0,-1.812529945E1,1.894699931E0,1.919962902E1
1.100302240E0,1.132859993E1,-1.381809998E1,-2.024999857E0,1.798270524E1
1.110302240E0,2.294330025E1,-6.948199749E0,-5.318399906E0,2.455520074E1
1.120314740E0,3.750999832E1,-8.953999877E-1,-4.740299702E0,3.781893912E1
1.130302240E0,5.153249741E1,4.963500023E0,1.048900008E0,5.178160689E1
1.140302240E0,5.518849945E1,1.161989975E1,1.045709991E1,5.735977232E1
1.150302240E0,4.945639801E1,1.681209946E1,1.533239937E1,5.443954870E1
1.160302240E0,3.998679733E1,1.687590027E1,1.479099941E1,4.585317475E1
1.170308490E0,3.216370010E1,1.257089996E1,1.150349998E1,3.639864891E1
1.180302240E0,2.481550026E1,7.461199760E0,7.494599819E0,2.697494359E1
1.190302240E0,1.802529907E1,4.716799736E0,3.617999792E0,1.898024049E1
1.200302240E0,1.267070007E1,3.706699848E0,8.687999845E-1,1.323030905E1
1.210302240E0,1.114529991E1,3.668799877E0,-2.308999896E-1,1.173589014E1
1.220308490E0,1.230939960E1,4.147999763E0,-1.180000007E-1,1.299004021E1
1.230302240E0,1.576239967E1,6.541899681E0,8.425999880E-1,1.708682737E1
1.240302240E0,1.454729939E1,8.709199905E0,2.608000040E0,1.715446725E1
1.250302240E0,8.938899994E0,8.757299423E0,4.393399715E0,1.326258600E1
1.260302240E0,3.311199903E0,8.122099876E0,6.648099899E0,1.100589767E1
1.270314740E0,-7.890999913E-1,7.875699997E0,9.550499916E0,1.240408714E1
1.280302240E0,-2.643399954E0,8.026399612E0,1.214929962E1,1.479919374E1
1.290302240E0,-3.406299829E0,8.624599457E0,1.354229927E1,1.641281401E1
1.300302240E0,-3.843199968E0,9.302199364E0,1.322299957E1,1.661772598E1
1.310302240E0,-3.574699879E0,1.025559998E1,1.150529957E1,1.582174858E1
1.320310053E0,-3.126299858E0,1.092239952E1,8.323499680E0,1.408379242E1
1.330302240E0,-1.277799964E0,1.228959942E1,4.354199886E0,1.310061385E1
1.340302240E0,-1.379799962E0,1.298349953E1,4.973999858E-1,1.306608261E1
1.350302240E0,-2.851999998E0,1.264019966E1,-2.254299879E0,1.315258223E1
1.360302240E0,-4.860499859E0,1.227279949E1,-3.503599882E0,1.365727932E1
1.370305365E0,-6.693999767E0,1.201589966E1,-3.500299931E0,1.419308202E1
1.380302240E0,-8.041199684E0,1.194939995E1,-2.517599821E0,1.462146916E1
1.390302240E0,-8.584599495E0,1.190859985E1,-1.132599950E0,1.472388813E1
1.400302240E0,-8.462299347E0,1.202559948E1,1.405999959E-1,1.470528209E1
1.410302240E0,-7.696099758E0,1.255599976E1,1.393199921E0,1.479270386E1
1.420313178E0,-5.779699802E0,1.325929928E1,2.047999859E0,1.460849926E1
1.430302240E0,-3.844899893E0,1.397579956E1,2.206099987E0,1.466196118E1
1.440302240E0,-1.280300021E0,1.514009953E1,1.587799907E0,1.527687436E1
1.450302240E0,1.625599980E0,1.681589890E1,7.203999758E-1,1.690964243E1
1.460302240E0,2.772300005E0,1.756209946E1,9.690000117E-2,1.777983055E1
1.470308490E0,2.038399935E0,1.729800034E1,4.530999959E-1,1.742358142E1
1.480302240E0,-9.368999600E-1,1.598649979E1,1.398899913E0,1.607491455E1
1.490302240E0,-2.776499987E0,1.558409977E1,1.611999989E0,1.591136895E1
1.500302240E0,-8.134999871E-1,1.693869972E1,1.261999905E-1,1.695869267E1
1.510302240E0,3.346299887E0,1.994099998E1,3.165999949E-1,2.022230053E1
1.520308490E0,1.054699993E1,2.412159920E1,3.811899900E0,2.660115291E1
1.530302240E0,1.856089973E1,2.762819862E1,7.979399681E0,3.422711173E1
1.540302240E0,2.749749947E1,3.109630013E1,1.133729935E1,4.303053236E1
1.550302240E0,3.763369751E1,3.338629913E1,1.416819954E1,5.226545739E1
1.560302240E0,4.843389893E1,3.375230026E1,1.716950035E1,6.148050163E1
1.570306928E0,5.731469727E1,3.138499832E1,1.922839928E1,6.811551938E1
1.580302240E0,6.294499969E1,2.624370003E1,1.941740036E1,7.090726489E1
1.590302240E0,6.507119751E1,1.806060028E1,1.749810028E1,6.976123237E1
1.600302240E0,6.239939880E1,9.338699341E0,1.261429977E1,6.434296259E1
1.610302240E0,5.544199753E1,1.093999982E0,6.056099892E0,5.578250865E1
1.620314740E0,4.714039993E1,-5.143899918E0,4.152999818E-1,4.742203587E1
1.630302240E0,3.803030014E1,-9.723799706E0,-3.174899817E0,3.938192477E1
1.640302240E0,3.013669968E1,-1.349679947E1,-3.847100019E0,3.324431443E1
1.650302240E0,2.275199890E1,-1.721500015E1,-1.926399946E0,2.859581615E1
1.660302240E0,1.564159966E1,-2.066839981E1,1.071999967E-1,2.592014434E1
1.670302240E0,9.669199944E0,-2.340239906E1,9.416999817E-1,2.533875507E1
1.680302240E0,5.465600014E0,-2.549959946E1,1.844399929E0,2.614391262E1
1.690302240E0,4.099400043E0,-2.660330009E1,3.802399874E0,2.718453423E1
1.700302240E0,5.862499714E0,-2.663819885E1,5.549799919E0,2.783456161E1
1.710302240E0,8.211199760E0,-2.700440025E1,6.271899700E0,2.891363278E1
1.720302240E0,1.012989998E1,-2.817669868E1,5.474499702E0,3.043864927E1
1.730302240E0,9.899499893E0,-2.982809830E1,3.021999836E0,3.157290023E1
1.740302240E0,7.000299931E0,-3.072289848E1,-2.879999951E-2,3.151033989E1
1.750302240E0,2.284999847E0,-3.070119858E1,-3.142999887E0,3.094613492E1
1.760311615E0,-2.339200020E0,-3.027459908E1,-5.500000000E0,3.085892425E1
1.770302240E0,-6.155799866E0,-2.989509964E1,-6.977699757E0,3.130972929E1
1.780302240E0,-8.490699768E0,-2.879589844E1,-6.579400063E0,3.073408945E1
1.790302240E0,-9.462299347E0,-2.671609879E1,-4.286999702E0,2.866467181E1
1.800302240E0,-8.582599640E0,-2.402559853E1,-9.326999784E-1,2.552959714E1
1.810302240E0,-6.458999634E0,-2.154310036E1,2.126899958E0,2.259087322E1
1.820302240E0,-3.637799978E0,-1.913969994E1,4.515799999E0,1.999885377E1
1.830302240E0,-1.223599911E0,-1.682449913E1,6.364999771E0,1.802981392E1
1.840302240E0,2.504000068E-1,-1.484489918E1,7.332599640E0,1.655900810E1
1.850302240E0,7.766999602E-1,-1.325659943E1,7.450999737E0,1.522688702E1
1.860314740E0,3.190999925E-1,-1.203949928E1,6.725499630E0,1.379433627E1
1.870302240E0,-9.799999595E-1,-1.161709976E1,5.276299953E0,1.279674756E1
1.880302240E0,-2.547099829E0,-1.168769932E1,3.799399853E0,1.255091519E1
1.890302240E0,-3.777599812E0,-1.184130001E1,2.573600054E0,1.269291391E1
1.900302240E0,-4.450699806E0,-1.191339970E1,1.825599909E0,1.284798179E1
1.910302240E0,-4.694399834E0,-1.196420002E1,1.511299968E0,1.294076889E1
1.920302240E0,-4.481800079E0,-1.200489998E1,1.386099935E0,1.288896538E1
1.930302240E0,-3.949399948E0,-1.206470013E1,1.339100003E0,1.276510626E1
1.940302240E0,-3.339399815E0,-1.210419941E1,1.408900023E0,1.263519821E1
1.950302240E0,-2.645900011E0,-1.218209934E1,1.291299939E0,1.253282836E1
1.960310053E0,-2.283900023E0,-1.249459934E1,1.261699915E0,1.276413329E1
1.970302240E0,-2.229099989E0,-1.277719975E1,1.800699949E0,1.309458821E1
1.980302240E0,-2.264799833E0,-1.285190010E1,2.697899818E0,1.332588901E1
1.990302240E0,-2.400099993E0,-1.295109940E1,3.349399805E0,1.359080331E1
2.000302240E0,-2.523999929E0,-1.304299927E1,4.058099747E0,1.389095314E1
2.010313178E0,-2.594300032E0,-1.284210014E1,4.603899956E0,1.388689395E1
2.020302240E0,-2.707200050E0,-1.283920002E1,4.578999996E0,1.389752605E1
2.030302240E0,-2.647399902E0,-1.310330009E1,4.276599884E0,1.403547314E1
2.040302240E0,-2.576400042E0,-1.350089931E1,3.407999992E0,1.416074092E1
2.050302240E0,-2.311199903E0,-1.402709961E1,2.076299906E0,1.436705223E1
2.060313178E0,-2.272099972E0,-1.471009922E1,6.438999772E-1,1.489845846E1
2.070302240E0,-1.648599982E0,-1.558929920E1,-3.641999960E-1,1.568045832E1
2.080302240E0,-5.370000005E-2,-1.701809883E1,-1.511699915E0,1.708519266E1
2.090302240E0,2.521800041E0,-1.911389923E1,-2.839699984E0,1.948754770E1
2.100302240E0,3.652099848E0,-2.059679985E1,-3.926800013E0,2.128346202E1
2.110306928E0,6.752299786E0,-1.888010025E1,-3.285799980E0,2.031866677E1
2.120302240E0,1.572819996E1,-1.206879997E1,-8.269999921E-2,1.982521238E1
2.130302240E0,2.974199867E1,-2.462399960E0,2.522599936E0,2.995018212E1
2.140302240E0,4.629249954E1,4.177999973E0,3.159399986E0,4.658790622E1
2.150302240E0,5.679240036E1,4.447000027E0,5.216999650E-1,5.696862925E1
2.160310053E0,5.535189819E1,5.027100086E0,-1.321299911E0,5.559541530E1
2.170302240E0,4.532349777E1,9.399399757E0,2.806900024E0,4.637291078E1
2.180302240E0,3.615609741E1,1.183459949E1,8.961899757E0,3.908499421E1
2.190302240E0,3.140049934E1,9.398900032E0,1.351410007E1,3.545365400E1
2.200302240E0,2.620369911E1,6.676300049E0,1.394329929E1,3.042404353E1
2.210308490E0,1.967829895E1,4.736399651E0,9.327499390E0,2.228612071E1
2.220302240E0,1.285879993E1,2.930899858E0,1.504799962E0,1.327416034E1
2.230302240E0,8.858799934E0,1.734499931E0,-5.461400032E0,1.055053158E1
2.240302240E0,7.803299904E0,1.334399939E0,-9.378199577E0,1.227284563E1
2.250302240E0,7.443099976E0,1.079299927E0,-9.669400215E0,1.224997658E1
2.260308490E0,7.093699932E0,1.445400000E0,-6.735499859E0,9.888211074E0
2.270302240E0,6.551699638E0,1.186900020E0,-1.819999963E-1,6.660827562E0
2.280302240E0,6.676199913E0,2.571599960E0,6.856799603E0,9.909615150E0
2.290302240E0,5.162600040E0,4.525899887E0,1.126060009E1,1.318852999E1
2.300302240E0,2.721499920E0,6.312099934E0,1.359469986E1,1.523368083E1
2.310308490E0,6.150000095E-1,8.108200073E0,1.508739948E1,1.713915857E1
2.320302240E0,-1.692899942E0,9.155300140E0,1.511899948E1,1.775583217E1
2.330302240E0,-3.684099913E0,9.017999649E0,1.259089947E1,1.591941140E1
2.340302240E0,-4.091099739E0,9.321299553E0,1.067259979E1,1.474883415E1
2.350302240E0,-4.065199852E0,1.011479950E1,1.029099941E1,1.499132041E1
2.360314740E0,-4.094299793E0,9.842399597E0,9.613200188E0,1.435443271E1
2.370302240E0,-3.670899868E0,9.658299446E0,8.308599472E0,1.325862283E1
2.380302240E0,-3.604199886E0,9.863900185E0,6.621799946E0,1.241511249E1
2.390302240E0,-4.105499744E0,9.938399315E0,4.536600113E0,1.167080330E1
2.400302240E0,-4.591000080E0,9.657499313E0,2.550600052E0,1.099318586E1
2.410308490E0,-5.112199783E0,1.012279987E1,5.422999859E-1,1.135340271E1
2.420302240E0,-5.249000072E0,1.120949936E1,-1.977199912E0,1.253452022E1
2.430302240E0,-4.168900013E0,1.191529942E1,-5.149199963E0,1.363335424E1
2.440302240E0,-2.096400023E0,1.327569962E1,-6.013899803E0,1.472433646E1
2.450302240E0,-6.119999662E-2,1.487360001E1,-5.084899902E0,1.571890357E1
2.460306928E0,2.302000046E0,1.608880043E1,-3.358199835E0,1.659596968E1
2.470302240E0,4.434000015E0,1.688539886E1,-1.366500020E0,1.751126418E1
2.480302240E0,4.312099934E0,1.636249924E1,1.154999971E0,1.696053101E1
2.490302240E0,2.421999931E0,1.538789940E1,2.784799814E0,1.582430541E1
2.500302240E0,-1.131699920E0,1.438539982E1,3.731199980E0,1.490443981E1
2.510313178E0,-3.282099962E0,1.366709995E1,3.971999884E0,1.460611462E1
2.520302240E0,-2.532099962E0,1.253559971E1,3.879799843E0,1.336434200E1
2.530302240E0,1.091599941E0,1.246179962E1,6.083799839E0,1.391045149E1
2.540302240E0,6.685299873E0,1.242169952E1,9.486000061E0,1.699929559E1
2.550302240E0,1.476419926E1,1.296560001E1,1.193139935E1,2.298796759E1
2.560302240E0,2.585610008E1,1.548259926E1,1.254949951E1,3.264565406E1
2.570302240E0,4.042029953E1,1.873509979E1,9.115699768E0,4.547417466E1
2.580302240E0,5.495240021E1,2.020179939E1,2.531299829E0,5.860278548E1
2.590302240E0,6.496060181E1,1.816989899E1,-3.561699867E0,6.754784025E1
2.600302240E0,6.583779907E1,1.289639950E1,-5.951699734E0,6.735247313E1
2.610302240E0,6.236179733E1,6.811399937E0,-4.528100014E0,6.289588719E1
2.620302240E0,5.774969864E1,2.007900000E0,-1.118199944E0,5.779541268E1
2.630302240E0,5.296969986E1,-1.037199974E0,-6.800000072E-1,5.298421734E1
2.640302240E0,4.723009872E1,-3.455699921E0,-2.493199825E0,4.742193725E1
2.650302240E0,4.022219849E1,-5.532599926E0,-3.415599823E0,4.074433992E1
2.660302240E0,3.270930099E1,-6.846399784E0,-3.391099930E0,3.358974725E1
2.670302240E0,2.712819862E1,-7.732899666E0,-4.395100117E0,2.854914715E1
2.680302240E0,2.333829880E1,-8.815899849E0,-5.886199951E0,2.563286232E1
2.690302240E0,1.958209991E1,-1.117299938E1,-6.040799618E0,2.334064721E1
2.700302240E0,1.482689953E1,-1.444399929E1,-5.172499657E0,2.133590443E1
2.710302240E0,9.626099586E0,-1.769459915E1,-3.998899937E0,2.053659741E1
2.720302240E0,4.699500084E0,-2.056959915E1,-2.728099823E0,2.127524944E1
2.730302240E0,4.328999817E-1,-2.283359909E1,-7.552999854E-1,2.285018879E1
2.740302240E0,-1.989499927E0,-2.373659897E1,2.653800011E0,2.396720457E1
2.750314740E0,-2.248699903E0,-2.322459984E1,6.378299713E0,2.418928267E1
2.760302240E0,-6.245999932E-1,-2.200090027E1,9.143799782E0,2.383356482E1
2.770302240E0,3.023200035E0,-2.081760025E1,1.014579964E1,2.335485964E1
2.780302240E0,6.566999912E0,-2.011829948E1,9.537399292E0,2.321278629E1
2.790302240E0,8.807299614E0,-2.017259979E1,7.491199970E0,2.325124482E1
2.800314740E0,8.670000076E0,-2.126009941E1,4.944699764E0,2.348639572E1
2.810302240E0,6.358200073E0,-2.259770012E1,2.303599834E0,2.358790646E1
2.820302240E0,2.553699970E0,-2.369659996E1,-2.379999906E-1,2.383499270E1
2.830302240E0,-1.280799985E0,-2.456480026E1,-2.002799988E0,2.467956783E1
2.840302240E0,-4.192800045E0,-2.470699883E1,-2.551899910E0,2.518983041E1
2.850313178E0,-5.423299789E0,-2.387240028E1,-1.578499913E0,2.453151724E1
2.860302240E0,-4.926899910E0,-2.244299889E1,3.535999954E-1,2.298015611E1
2.870302240E0,-3.193799973E0,-2.107359886E1,2.433799982E0,2.145274597E1
2.880302240E0,-1.359099984E0,-1.982859993E1,4.145599842E0,2.030286990E1
2.890302240E0,-1.735999882E-1,-1.890539932E1,5.303999901E0,1.963610642E1
2.900306928E0,3.745999932E-1,-1.830309868E1,5.960199833E0,1.925273301E1
2.910302240E0,6.424999833E-1,-1.789249992E1,5.967999935E0,1.887250336E1
2.920302240E0,6.398000121E-1,-1.792739868E1,5.216599941E0,1.868191324E1
2.930302240E0,7.949999720E-2,-1.858429909E1,3.812999964E0,1.897159618E1
2.940302240E0,-7.811999917E-1,-1.943179893E1,2.495599985E0,1.960696566E1
2.950311615E0,-1.956499934E0,-2.025419998E1,1.605599999E0,2.041172360E1
2.960302240E0,-3.279099941E0,-2.086509895E1,1.434000015E0,2.116981830E1
2.970302240E0,-4.367199898E0,-2.094059944E1,1.476699948E0,2.144205640E1
2.980302240E0,-4.592299938E0,-2.088309860E1,1.394400001E0,2.142749116E1
2.990302240E0,-4.515500069E0,-2.114469910E1,1.313799977E0,2.166135063E1
3.000308490E0,-4.703399658E0,-2.168809891E1,9.970999956E-1,2.221463056E1
3.010302240E0,-5.321799755E0,-2.233919907E1,4.794999957E-1,2.296935541E1
3.020302240E0,-6.111799717E0,-2.292370033E1,-4.559999704E-2,2.372450657E1
3.030302240E0,-6.837399960E0,-2.323670006E1,-5.880999565E-1,2.422891102E1
3.040302240E0,-6.822700024E0,-2.319989967E1,-9.948999882E-1,2.420277683E1
3.050306928E0,-5.968400002E0,-2.291269875E1,-8.308999538E-1,2.369185424E1
3.060302240E0,-4.903599739E0,-2.248499870E1,-4.570999742E-1,2.301802332E1
3.070302240E0,-3.834699869E0,-2.195879936E1,4.411999881E-1,2.229548048E1
3.080302240E0,-2.841099977E0,-2.132919884E1,1.441499949E0,2.156581773E1
3.090302240E0,-1.621399999E0,-2.061199951E1,2.099799871E0,2.078202640E1
3.100313178E0,-8.068000078E-1,-1.960849953E1,1.960299969E0,1.972275224E1
3.110302240E0,-1.789999940E-2,-1.847439957E1,7.831000090E-1,1.849099796E1
3.120302240E0,1.933599949E0,-1.688369942E1,-5.812000036E-1,1.700399683E1
3.130302240E0,5.614500046E0,-1.427839947E1,-1.366400003E0,1.540332273E1
3.140302240E0,1.395809937E1,-8.290100098E0,-3.448999822E-1,1.623801877E1
3.150310053E0,2.646839905E1,3.407999873E-1,2.753999829E-1,2.647202557E1
3.160302240E0,3.907180023E1,6.663199902E0,-2.438599825E0,3.971083700E1
3.170302240E0,4.823439789E1,1.020549965E1,-5.705100060E0,4.963121527E1
3.180302240E0,5.263449860E1,1.166489983E1,-5.632499695E0,5.420503098E1
3.190302240E0,5.101389694E1,1.074310017E1,-2.408900023E0,5.218845353E1
3.200313178E0,4.822449875E1,1.191300011E1,6.619299889E0,5.011324158E1
3.210302240E0,4.500169754E1,1.363519955E1,2.018869972E1,5.117279594E1
3.220302240E0,4.353839874E1,1.338889980E1,2.804369926E1,5.349115695E1
3.230302240E0,3.997719955E1,1.419279957E1,2.807719994E1,5.087181145E1
3.240302240E0,3.202729797E1,1.585359955E1,2.347739983E1,4.275830606E1
3.250306928E0,2.328129959E1,1.527709961E1,1.665799904E1,3.244838386E1
3.260302240E0,1.594069958E1,1.310149956E1,1.048349953E1,2.314430721E1
3.270302240E0,9.275799751E0,1.057380009E1,5.568699837E0,1.512799151E1
3.280302240E0,3.846799850E0,7.940299988E0,1.039799929E0,8.884110359E0
3.290302240E0,4.220999777E-1,5.796099663E0,-2.854399920E0,6.474607215E0
3.300311615E0,-2.040899992E0,4.238399982E0,-5.470299721E0,7.214810200E0
3.310302240E0,-4.728899956E0,3.204699993E0,-6.173199654E0,8.410766362E0
3.320302240E0,-7.749799728E0,2.498800039E0,-5.243499756E0,9.684920607E0
3.330302240E0,-1.018340015E1,1.994499922E0,-2.917099953E0,1.077910668E1
3.340302240E0,-1.172690010E1,1.620299935E0,1.078999937E-1,1.183880063E1
3.350302240E0,-1.260619926E1,1.418799996E0,2.913699865E0,1.301610158E1
3.360302240E0,-1.326239967E1,1.408999920E0,5.527100086E0,1.443694432E1
3.370302240E0,-1.373539925E1,1.937099934E0,7.577499866E0,1.580607645E1
3.380302240E0,-1.379039955E1,2.722299814E0,8.879599571E0,1.662628415E1
3.390302240E0,-1.274109936E1,3.265399933E0,9.154600143E0,1.602514129E1
3.400310053E0,-1.116510010E1,3.728699923E0,8.122300148E0,1.430155317E1
3.410302240E0,-9.944999695E0,4.346899986E0,5.883899689E0,1.234580228E1
3.420302240E0,-9.474499702E0,4.950900078E0,3.413699865E0,1.122189391E1
3.430302240E0,-9.627099991E0,5.523799896E0,1.213299990E0,1.116537131E1
3.440302240E0,-9.972299576E0,5.967700005E0,-7.032999992E-1,1.164280177E1
3.450302240E0,-9.991000175E0,6.329099655E0,-2.397199869E0,1.206748334E1
3.460302240E0,-9.280099869E0,6.873399734E0,-3.197399855E0,1.198278946E1
3.470302240E0,-7.886899948E0,8.078800201E0,-2.473799944E0,1.155810926E1
3.480302240E0,-5.683399677E0,9.532599449E0,-1.440099955E0,1.119130788E1
3.490302240E0,-3.163399935E0,1.092710018E1,-8.502999544E-1,1.140752504E1
3.500306928E0,-9.325000048E-1,1.183839989E1,-4.951999784E-1,1.188538982E1
3.510302240E0,2.532999814E-1,1.205529976E1,-3.511999846E-1,1.206307401E1
3.520302240E0,-3.689000010E-1,1.151289940E1,-2.412000000E-1,1.152133314E1
3.530302240E0,-2.240900040E0,1.066319942E1,-2.190000005E-2,1.089614311E1
3.540302240E0,-3.432999849E0,1.018509960E1,5.182999969E-1,1.076059370E1
3.550302240E0,-3.463399887E0,1.005480003E1,8.617999554E-1,1.066943493E1
3.560302240E0,-2.531100035E0,1.055070019E1,5.187999606E-1,1.086245346E1
3.570302240E0,-1.721599936E0,1.133969975E1,-1.266099930E0,1.153931132E1
3.580302240E0,4.646999836E-1,1.207109928E1,-2.904000044E0,1.242419415E1
3.590302240E0,4.471399784E0,1.262169933E1,-1.613999963E0,1.348724234E1
3.600302240E0,9.483499527E0,1.188869953E1,2.230000019E0,1.537045347E1
3.610302240E0,1.424559975E1,1.170459938E1,7.838799953E0,2.003450882E1
3.620302240E0,1.851630020E1,1.301219940E1,1.348810005E1,2.634576910E1
3.630302240E0,2.378439903E1,1.449639988E1,1.679739952E1,3.252684856E1
3.640302240E0,3.527629852E1,1.477499962E1,1.464729977E1,4.095438001E1
3.650302240E0,4.890829849E1,1.525869942E1,8.558899879E0,5.194327999E1
3.660302240E0,5.861399841E1,1.632169914E1,1.741999984E0,6.086898419E1
3.670302240E0,6.153969955E1,1.717070007E1,-3.308699846E0,6.397589434E1
3.680302240E0,5.887919998E1,1.621920013E1,-6.271499634E0,6.139343899E1
3.690306928E0,5.394789886E1,1.411419964E1,-5.522899628E0,5.603649564E1
3.700302240E0,4.934669876E1,1.158139992E1,-5.202000141E-1,5.069019738E1
3.710302240E0,4.378139877E1,7.532099724E0,5.134399891E0,4.472030263E1
3.720302240E0,3.749269867E1,3.435499907E0,8.085100174E0,3.850810250E1
3.730302240E0,3.042799950E1,-3.729999810E-2,9.070899963E0,3.175131132E1
3.740314740E0,2.471679878E1,-3.138499975E0,8.218799591E0,2.623583410E1
3.750302240E0,2.060899925E1,-6.317599773E0,5.917500019E0,2.235306967E1
3.760302240E0,1.737199974E1,-9.256799698E0,3.071499825E0,1.992257079E1
3.770302240E0,1.387639999E1,-1.193760014E1,4.547999799E-1,1.831031449E1
3.780302240E0,1.040199947E1,-1.424619961E1,-1.695999980E0,1.772095404E1
3.790311615E0,7.450399876E0,-1.621579933E1,-3.302599907E0,1.814849229E1
3.800302240E0,5.225499630E0,-1.806939888E1,-4.006799698E0,1.923183470E1
3.810302240E0,3.830399990E0,-2.021999931E1,-3.670300007E0,2.090434018E1
3.820302240E0,3.160199881E0,-2.229920006E1,-1.950699925E0,2.260633576E1
3.830302240E0,3.527899981E0,-2.388279915E1,3.379999995E-1,2.414432475E1
3.840314740E0,4.769199848E0,-2.513599968E1,1.847099900E0,2.565103361E1
3.850302240E0,6.163899899E0,-2.610549927E1,2.716799974E0,2.696055927E1
3.860302240E0,6.973000050E0,-2.667059898E1,3.450099945E0,2.778213040E1
3.870302240E0,7.013700008E0,-2.730449867E1,3.836699963E0,2.845079792E1
3.880302240E0,6.203000069E0,-2.843579865E1,3.918299913E0,2.936707218E1
3.890305365E0,4.326699734E0,-2.959959984E1,3.789899826E0,3.015327481E1
3.900302240E0,1.620800018E0,-3.005839920E1,3.849299908E0,3.034718216E1
3.910302240E0,-1.955500007E0,-2.892289925E1,4.238999844E0,2.929722172E1
3.920302240E0,-5.088999748E0,-2.667389870E1,4.591199875E0,2.754040498E1
3.930302240E0,-6.341599941E0,-2.404119873E1,4.997600079E0,2.536081885E1
3.940306928E0,-5.646100044E0,-2.168509865E1,5.516399860E0,2.307710156E1
3.950302240E0,-3.751399994E0,-2.009119987E1,5.928599834E0,2.128092128E1
3.960302240E0,-1.090299964E0,-1.888430023E1,5.980199814E0,1.983855688E1
3.970302240E0,1.249599934E0,-1.798989868E1,5.581099987E0,1.887714575E1
3.980302240E0,2.927999973E0,-1.738269997E1,4.813199997E0,1.827288527E1
3.990313178E0,3.686100006E0,-1.702129936E1,3.997699976E0,1.786878760E1
4.000302240E0,3.602299929E0,-1.672939873E1,3.336299896E0,1.743502921E1
4.010302240E0,2.463500023E0,-1.657620049E1,3.024099827E0,1.702892935E1
4.020302240E0,6.647999883E-1,-1.649300003E1,2.985100031E0,1.677414174E1
4.030302240E0,-1.073099971E0,-1.657760048E1,3.027299881E0,1.688587948E1
4.040311615E0,-2.383599997E0,-1.676379967E1,3.056200027E0,1.720601310E1
4.050302240E0,-3.276499987E0,-1.696489906E1,3.098399878E0,1.755401191E1
4.060302240E0,-3.810299873E0,-1.723079872E1,3.206899881E0,1.793608142E1
4.070302240E0,-3.753199816E0,-1.761750031E1,3.485800028E0,1.834703321E1
4.080302240E0,-3.250200033E0,-1.809560013E1,3.782699823E0,1.877027869E1
4.090308490E0,-2.743899822E0,-1.877120018E1,4.037399769E0,1.939555463E1
4.100302240E0,-2.436899900E0,-1.923959923E1,4.249599934E0,1.985345711E1
4.110302240E0,-2.647699833E0,-1.944890022E1,4.392600060E0,2.011380048E1
4.120302240E0,-3.275399923E0,-1.925779915E1,4.578999996E0,2.006385590E1
4.130302240E0,-3.506399870E0,-1.865259933E1,4.501299858E0,1.950579407E1
4.140306928E0,-2.681499958E0,-1.810989952E1,4.108099937E0,1.876260610E1
4.150302240E0,-1.645099998E0,-1.823609924E1,3.318499804E0,1.860844192E1
4.160302240E0,-5.939999819E-1,-1.828619957E1,2.617100000E0,1.848207627E1
4.170302240E0,-4.419999942E-2,-1.802540016E1,1.858699918E0,1.812103115E1
4.180302240E0,6.143000126E-1,-1.734259987E1,6.844999790E-1,1.736697080E1
4.190313178E0,2.854399920E0,-1.543229961E1,-9.996999502E-1,1.572586628E1
4.200302240E0,8.404099464E0,-1.148989964E1,-3.016599894E0,1.455151389E1
4.210302240E0,1.890950012E1,-4.834899902E0,-5.415100098E0,2.025509222E1
4.220302240E0,3.183969879E1,3.395699978E0,-5.150700092E0,3.243188106E1
4.230302240E0,4.780839920E1,1.062570000E1,-5.273000002E-1,4.897781722E1
4.240305365E0,6.057769775E1,1.446129990E1,5.109699726E0,6.248916459E1
4.250302240E0,6.115409851E1,1.655150032E1,9.990300179E0,6.413721248E1
4.260302240E0,5.469059753E1,1.808679962E1,1.053179932E1,5.855862512E1
4.270302240E0,4.713010025E1,1.941779900E1,9.364999771E0,5.182663879E1
4.280302240E0,4.200469971E1,1.964109993E1,8.040200233E0,4.706179367E1
4.290311615E0,3.839080048E1,1.922130013E1,6.647999763E0,4.344545823E1
4.300302240E0,3.375650024E1,1.847509956E1,6.331299782E0,3.899892267E1
4.310302240E0,2.775699997E1,1.683869934E1,6.276599884E0,3.306642631E1
4.320302240E0,2.085879898E1,1.437999916E1,5.583899975E0,2.594328063E1
4.330302240E0,1.424029922E1,1.171420002E1,4.598999977E0,1.900419440E1
4.340303803E0,8.440599442E0,9.152099609E0,3.562299967E0,1.294969603E1
4.350302240E0,3.590199947E0,6.937500000E0,2.697399855E0,8.264043072E0
4.360302240E0,6.839999557E-2,5.392999649E0,2.104199886E0,5.789367922E0
4.370302240E0,-2.743099928E0,4.170300007E0,1.442299962E0,5.195789501E0
4.380302240E0,-5.020799637E0,3.486299992E0,1.154699922E0,6.220614804E0
4.390302240E0,-7.079099655E0,3.498299837E0,1.314099908E0,8.004911758E0
4.400305365E0,-9.007499695E0,3.692699909E0,1.574999928E0,9.861628068E0
4.410302240E0,-1.100409985E1,3.998399973E0,1.937099934E0,1.186717203E1
4.420302240E0,-1.275710011E1,4.279200077E0,2.396100044E0,1.366734985E1
4.430302240E0,-1.397389984E1,4.657700062E0,2.831799984E0,1.499943792E1
4.440302240E0,-1.471409988E1,4.931200027E0,2.905699968E0,1.578811456E1
4.450302240E0,-1.490959930E1,5.100699902E0,2.307600021E0,1.592602614E1
4.460302240E0,-1.475669956E1,5.138400078E0,1.440999985E0,1.569203041E1
4.470302240E0,-1.434329987E1,5.312699795E0,8.816999793E-1,1.532097990E1
4.480302240E0,-1.364849949E1,5.530200005E0,8.870999813E-1,1.475301992E1
4.490302240E0,-1.276799965E1,5.952799797E0,1.630599976E0,1.418155481E1
4.500302240E0,-1.164029980E1,6.654299736E0,2.590100050E0,1.365594752E1
4.510302240E0,-1.004799938E1,7.516799927E0,3.424599886E0,1.300740009E1
4.520302240E0,-8.277999878E0,8.255199432E0,4.092799664E0,1.238646878E1
4.530302240E0,-6.582900047E0,8.634099960E0,4.554500103E0,1.177394268E1
4.540302240E0,-5.865999699E0,8.490599632E0,4.673599720E0,1.132884676E1
4.550302240E0,-6.325099945E0,7.848999977E0,4.350899696E0,1.097925399E1
4.560302240E0,-7.974299908E0,7.122200012E0,3.433699846E0,1.122966993E1
4.570302240E0,-1.034099960E1,6.227799892E0,2.192999840E0,1.226910806E1
4.580302240E0,-1.221070004E1,5.314199924E0,1.255299926E0,1.337601189E1
4.590302240E0,-1.349259949E1,4.547199726E0,1.218799949E0,1.429030229E1
4.600302240E0,-1.325430012E1,4.061500072E0,1.740000010E0,1.397139415E1
4.610302240E0,-1.140100002E1,4.636499882E0,2.562899828E0,1.257172972E1
4.620302240E0,-8.118599892E0,5.730199814E0,2.449899912E0,1.023468923E1
4.630310053E0,-4.011099815E0,7.116299629E0,1.889599919E0,8.384582876E0
4.640302240E0,8.827999830E-1,8.965999603E0,1.889299989E0,9.205321241E0
4.650302240E0,4.552000046E0,1.144259930E1,4.137799740E0,1.299134981E1
4.660302240E0,6.456500053E0,1.258419991E1,6.935499668E0,1.575276597E1
4.670302240E0,7.805799961E0,1.258409977E1,8.421299934E0,1.703550330E1
4.680313178E0,9.759799957E0,1.228279972E1,7.631799698E0,1.744606634E1
4.690302240E0,1.353230000E1,1.156929970E1,3.893599987E0,1.822448791E1
4.700302240E0,2.200749969E1,1.243849945E1,-9.077999592E-1,2.529565995E1
4.710302240E0,3.229610062E1,1.535829926E1,-5.609799862E0,3.619924482E1
4.720302240E0,4.190340042E1,1.822949982E1,-9.799599648E0,4.673587256E1
4.730308490E0,5.079699707E1,1.730389977E1,-1.188899994E1,5.496460841E1
4.740302240E0,5.539489746E1,1.095259953E1,-7.607800007E0,5.697747557E1
4.750302240E0,5.554779816E1,2.381399870E0,-2.338999957E-1,5.559931344E1
4.760302240E0,5.096419907E1,-3.129599810E0,6.432399750E0,5.146377122E1
4.770302240E0,4.372029877E1,-2.387899876E0,1.378849983E1,4.590522103E1
4.780313178E0,3.920700073E1,3.618099928E0,2.164919853E1,4.493292057E1
4.790302240E0,4.015219879E1,7.634399891E0,2.747989845E1,4.925066445E1
4.800302240E0,4.353450012E1,8.204099655E0,3.178999901E1,5.452672729E1
4.810302240E0,4.465269852E1,7.049599648E0,3.165899849E1,5.518924284E1
4.820302240E0,4.096109772E1,2.299599886E0,2.424289894E1,4.765309890E1
4.830308490E0,3.401459885E1,-4.291699886E0,1.379579926E1,3.695586151E1
4.840302240E0,2.594499969E1,-1.137549973E1,3.930499792E0,2.860059146E1
4.850302240E0,1.798040009E1,-1.734720039E1,-3.568099976E0,2.523789782E1
4.860302240E0,1.055329990E1,-2.099199867E1,-8.387399673E0,2.494763757E1
4.870302240E0,3.878199816E0,-2.194269943E1,-1.174959946E1,2.519078362E1
4.880314740E0,-3.263999820E-1,-2.045959854E1,-1.295839977E1,2.422027733E1
4.890302240E0,-1.498799920E0,-1.861079979E1,-1.194749928E1,2.216643880E1
4.900302240E0,1.375999898E-1,-1.752000046E1,-8.593899727E0,1.951472424E1
4.910302240E0,2.995399952E0,-1.717599869E1,-3.565999985E0,1.779617115E1
4.920302240E0,5.335199833E0,-1.801799965E1,7.450000048E-1,1.880605471E1
4.930310053E0,7.266599655E0,-1.936240005E1,3.271099806E0,2.093814940E1
4.940302240E0,8.885499954E0,-2.072599983E1,4.875799656E0,2.307146724E1
4.950302240E0,9.274600029E0,-2.191589928E1,5.933499813E0,2.452613436E1
4.960302240E0,8.385099411E0,-2.288889885E1,6.544499874E0,2.523969218E1
4.970302240E0,7.198699951E0,-2.371749878E1,6.088699818E0,2.552279951E1
4.980316303E0,6.116499901E0,-2.456359863E1,4.373300076E0,2.568866875E1
4.990302240E0,4.493599892E0,-2.523799896E1,2.237900019E0,2.573241590E1
5.000302240E0,2.210399866E0,-2.552789879E1,2.078000009E-1,2.562425931E1
5.010302240E0,-3.328999877E-1,-2.548839951E1,-1.322499990E0,2.552485726E1
5.020302240E0,-2.520099878E0,-2.520059967E1,-2.408999920E0,2.544060549E1
5.030305365E0,-3.579499960E0,-2.452649879E1,-2.689499855E0,2.493181447E1
5.040300678E0,-3.291999817E0,-2.383449936E1,-1.713999987E0,2.412174161E1
5.050302240E0,-2.243599892E0,-2.323009872E1,-4.039999843E-2,2.333822743E1
5.060302240E0,-9.079999924E-1,-2.306110001E1,1.751699924E0,2.314535051E1
5.070302240E0,-1.480000019E-1,-2.350879860E1,3.318899870E0,2.374238008E1
5.080310053E0,-7.666999698E-1,-2.459159851E1,3.971199989E0,2.492197776E1
5.090302240E0,-2.997999907E0,-2.548189926E1,3.630399942E0,2.591322051E1
5.100302240E0,-6.278599739E0,-2.595019913E1,2.705999851E0,2.683572404E1
5.110302240E0,-9.895999908E0,-2.618929863E1,1.474599957E0,2.803541728E1
5.120302240E0,-1.254719925E1,-2.606089973E1,-4.849999771E-2,2.892412585E1
5.130303803E0,-1.312019920E1,-2.543770027E1,-7.583999634E-1,2.863199945E1
5.140302240E0,-1.138469982E1,-2.450489998E1,-5.518999696E-1,2.702602647E1
5.150302240E0,-8.156299591E0,-2.385729980E1,2.073999941E-1,2.521386507E1
5.160302240E0,-5.097399712E0,-2.327559853E1,9.501999617E-1,2.384617056E1
5.170302240E0,-3.181399822E0,-2.267009926E1,1.427500010E0,2.293670555E1
5.180305365E0,-2.350299835E0,-2.196360016E1,1.816999912E0,2.216359921E1
5.190302240E0,-2.519999981E0,-2.116689873E1,1.793299913E0,2.139167890E1
5.200302240E0,-2.870800018E0,-2.022039986E1,1.442099929E0,2.047402538E1
5.210302240E0,-3.151199818E0,-1.935680008E1,6.272000074E-1,1.962165002E1
5.220302240E0,-3.268800020E0,-1.858339882E1,-4.101999998E-1,1.887315631E1
5.230302240E0,-2.725999832E0,-1.769089890E1,-1.052899957E0,1.793063237E1
5.240302240E0,-2.025599957E0,-1.678429985E1,-1.082299948E0,1.694069508E1
5.250302240E0,-1.031599998E0,-1.579529953E1,-9.132999778E-1,1.585527681E1
5.260302240E0,-3.738999963E-1,-1.473769951E1,-7.779999971E-1,1.476295607E1
5.270302240E0,-2.137999982E-1,-1.436310005E1,-1.967299938E0,1.449878004E1
5.280302240E0,2.490999997E-1,-1.436919975E1,-3.960699797E0,1.490714913E1
5.290302240E0,3.300799847E0,-1.350239944E1,-4.965699673E0,1.476036055E1
5.300302240E0,1.142490005E1,-1.123069954E1,-3.767099857E0,1.645746015E1
5.310302240E0,2.541090012E1,-6.942599773E0,-1.046999991E-1,2.634244671E1
5.320302240E0,4.764749908E1,2.883800030E0,5.308399677E0,4.802894522E1
5.330306928E0,6.781769562E1,1.263549995E1,8.419499397E0,6.949664501E1
5.340302240E0,6.973539734E1,1.830959892E1,7.923699856E0,7.253311019E1
5.350302240E0,6.715319824E1,1.899689865E1,3.617999792E0,6.988221601E1
5.360302240E0,5.577369690E1,1.513789940E1,2.877399921E0,5.786312033E1
5.370302240E0,4.268779755E1,1.045679951E1,3.527699947E0,4.409123929E1
5.380302240E0,3.252199936E1,8.941899300E0,4.103699684E0,3.397761552E1
5.390302240E0,2.576770020E1,8.895199776E0,3.771899939E0,2.751955998E1
5.400302240E0,2.145119858E1,8.831899643E0,3.354899883E0,2.343953338E1
5.410302240E0,1.693759918E1,8.144399643E0,3.581300020E0,1.913215151E1
5.420302240E0,1.117379951E1,6.798699856E0,3.148499966E0,1.345322145E1
5.430302240E0,5.176799774E0,5.796999931E0,2.655499935E0,8.213168938E0
5.440302240E0,6.659999490E-2,5.432399750E0,3.416699886E0,6.417884442E0
5.450302240E0,-2.710500002E0,5.515399933E0,4.978600025E0,7.909039442E0
5.460302240E0,-3.753199816E0,5.830399990E0,6.567100048E0,9.550229104E0
5.470314740E0,-4.236099720E0,6.373499870E0,7.325699806E0,1.059395672E1
5.480302240E0,-5.129099846E0,6.897199631E0,6.987899780E0,1.107744426E1
5.490302240E0,-6.424399853E0,7.267099857E0,6.009399891E0,1.141036988E1
5.500302240E0,-7.918999672E0,7.462299824E0,4.563799858E0,1.179935353E1
5.510302240E0,-9.242799759E0,7.319599628E0,2.748699903E0,1.210624786E1
5.520317865E0,-1.017229939E1,6.932600021E0,6.755999923E-1,1.232854627E1
5.530302240E0,-1.065969944E1,6.218599796E0,-1.058200002E0,1.238628123E1
5.540300678E0,-1.067570019E1,5.815299988E0,-1.635100007E0,1.226628878E1
5.550302240E0,-1.060199928E1,5.314099789E0,-1.530799985E0,1.195765002E1
5.560302240E0,-1.069379997E1,4.720599651E0,-1.124699950E0,1.174335424E1
5.570302240E0,-1.086170006E1,4.323199749E0,-5.611000061E-1,1.170390608E1
5.580302240E0,-1.077089977E1,4.216499805E0,-1.159999985E-2,1.156681836E1
5.590302240E0,-1.032100010E1,4.201499939E0,6.823999882E-1,1.116428746E1
5.600302240E0,-9.333099365E0,4.322799683E0,1.449000001E0,1.038715273E1
5.610302240E0,-8.041799545E0,4.452099800E0,2.042199850E0,9.416066736E0
5.620306928E0,-6.692999840E0,4.652800083E0,2.251299858E0,8.456544597E0
5.630302240E0,-5.651799679E0,4.986700058E0,1.705099940E0,7.727702303E0
5.640302240E0,-4.361999989E0,5.926399708E0,9.797999859E-1,7.423561504E0
5.650302240E0,-3.179899931E0,7.353799820E0,8.685999513E-1,8.058821331E0
5.660302240E0,-2.140899897E0,8.568300247E0,8.140999675E-1,8.869158937E0
5.670313178E0,-1.359499931E0,9.498600006E0,6.049999595E-1,9.614450951E0
5.680302240E0,-1.135699987E0,1.009700012E1,3.422999978E-1,1.016643473E1
5.690302240E0,-1.315799952E0,1.040819931E1,8.839999884E-2,1.049141349E1
5.700302240E0,-1.625399947E0,1.034539986E1,2.170999944E-1,1.047455754E1
5.710302240E0,-1.756399989E0,1.027999973E1,1.210199952E0,1.049894849E1
5.720316303E0,-1.125299931E0,1.032059956E1,2.165499926E0,1.060520934E1
5.730302240E0,1.242299914E0,1.015259933E1,2.168200016E0,1.045560489E1
5.740302240E0,4.963200092E0,9.655499458E0,1.230799913E0,1.092597334E1
5.750302240E0,9.613999367E0,8.495200157E0,6.700999737E-1,1.284704026E1
5.760302240E0,1.443039989E1,6.535599709E0,1.687799931E0,1.593107571E1
5.770308490E0,2.069330025E1,4.932300091E0,3.858699799E0,2.162012543E1
5.780302240E0,2.968820000E1,4.358299732E0,7.825099945E0,3.100993687E1
5.790302240E0,4.096649933E1,7.566399574E0,1.359809971E1,4.382251460E1
5.800302240E0,5.295419693E1,1.371219921E1,1.797889900E1,5.757961609E1
5.810302240E0,6.469039917E1,1.830710030E1,2.152859879E1,7.059375491E1
5.820306928E0,6.855120087E1,1.621269989E1,2.437489891E1,7.454028760E1
5.830302240E0,6.810369873E1,5.111299992E0,2.363059998E1,7.226786577E1
5.840302240E0,5.791629791E1,-7.395799637E0,1.995419884E1,6.170223227E1
5.850302240E0,4.259849930E1,-1.377199936E1,1.575879955E1,4.746198344E1
5.860302240E0,2.937679863E1,-1.542329979E1,1.115880013E1,3.500561804E1
5.870305365E0,2.031509972E1,-1.511590004E1,7.131499767E0,2.630688122E1
5.880302240E0,1.613669968E1,-1.540629959E1,4.265399933E0,2.271432984E1
5.890302240E0,1.397709942E1,-1.705309868E1,1.364300013E0,2.209137382E1
5.900302240E0,1.090880013E1,-1.834370041E1,-1.761199951E0,2.141483341E1
5.910302240E0,5.926199913E0,-1.837179947E1,-4.913300037E0,1.991942214E1
5.920314740E0,8.658999801E-1,-1.738619995E1,-6.354799747E0,1.853141148E1
5.930302240E0,-2.371000051E0,-1.647859955E1,-6.293499947E0,1.779814670E1
5.940302240E0,-3.414700031E0,-1.605799866E1,-5.230400085E0,1.723010685E1
5.950302240E0,-2.999899864E0,-1.582719994E1,-3.486999989E0,1.648207590E1
5.960302240E0,-1.942599893E0,-1.574729919E1,-1.307600021E0,1.592045678E1
5.970314740E0,-3.467999995E-1,-1.606049919E1,7.328000069E-1,1.608094837E1
5.980302240E0,1.149199963E0,-1.735210037E1,1.687199950E0,1.747176842E1
5.990302240E0,1.563199997E0,-1.949449921E1,9.526999593E-1,1.958026381E1
6.000302240E0,1.375000030E-1,-2.151070023E1,-7.706999779E-1,2.152494155E1
6.010302240E0,-2.959499836E0,-2.254389954E1,-2.119199991E0,2.283587209E1
6.020303803E0,-6.414199829E0,-2.293569946E1,-3.683599949E0,2.409890408E1
6.030302240E0,-8.893699646E0,-2.242790031E1,-4.683099747E0,2.457722582E1
6.040302240E0,-9.860599518E0,-2.155329895E1,-4.410299778E0,2.410864705E1
6.050302240E0,-9.949199677E0,-2.010059929E1,-3.172499895E0,2.265138895E1
6.060302240E0,-8.410399437E0,-1.919929886E1,-1.074399948E0,2.098814500E1
6.070308490E0,-6.240299702E0,-1.890219879E1,8.849999905E-1,1.992530262E1
6.080302240E0,-4.641299725E0,-1.913369942E1,1.934399962E0,1.978337736E1
6.090302240E0,-4.020199776E0,-1.927649879E1,2.475899935E0,1.984629669E1
6.100302240E0,-4.204699993E0,-1.926630020E1,2.700000048E0,1.990376411E1
6.110302240E0,-5.127399921E0,-1.919099998E1,2.844099998E0,2.006672906E1
6.120302240E0,-6.174299717E0,-1.897979927E1,2.965600014E0,2.017794689E1
6.130302240E0,-6.859999657E0,-1.887479973E1,3.162299871E0,2.033021890E1
6.140302240E0,-7.128799915E0,-1.860890007E1,3.175199986E0,2.017901992E1
6.150302240E0,-6.924299717E0,-1.841580009E1,2.881099939E0,1.988437468E1
6.160302240E0,-6.617899895E0,-1.831579971E1,2.124399900E0,1.959025761E1
6.170302240E0,-6.361999989E0,-1.823349953E1,1.291999936E0,1.935471035E1
6.180302240E0,-6.338500023E0,-1.834930038E1,6.021999717E-1,1.942256553E1
6.190302240E0,-6.731400013E0,-1.864760017E1,-1.366999894E-1,1.982582723E1
6.200302240E0,-7.482899666E0,-1.899390030E1,-7.188999653E-1,2.042740446E1
6.210302240E0,-8.019299507E0,-1.911339951E1,-6.085999608E-1,2.073647991E1
6.220302240E0,-8.231800079E0,-1.919079971E1,2.296999991E-1,2.088305745E1
6.230302240E0,-7.857599735E0,-1.938199997E1,7.463999987E-1,2.092751560E1
6.240302240E0,-7.399600029E0,-1.960879898E1,1.162400007E0,2.099071823E1
6.250302240E0,-7.492399693E0,-1.989279938E1,1.465999961E0,2.130747935E1
6.260317865E0,-8.204699516E0,-2.027499962E1,1.261600018E0,2.190854487E1
6.270302240E0,-9.621299744E0,-2.074580002E1,4.057999849E-1,2.287186702E1
6.280302240E0,-1.148460007E1,-2.111559868E1,-7.400999665E-1,2.404812455E1
6.290302240E0,-1.231909943E1,-2.180719948E1,-1.204299927E0,2.507517693E1
6.300302240E0,-1.136909962E1,-2.207159996E1,-8.991000056E-1,2.484391941E1
6.310316303E0,-8.558599472E0,-2.148480034E1,-1.407999992E0,2.316956483E1
6.320302240E0,-3.610699892E0,-2.066880035E1,-1.541799903E0,2.103838418E1
6.330302240E0,1.434399962E0,-1.926309967E1,-1.592299938E0,1.938194859E1
6.340302240E0,9.798999786E0,-1.576659966E1,-6.205999851E-1,1.857393889E1
6.350302240E0,2.547629929E1,-7.108399868E0,1.726000011E-1,2.644997098E1
6.360314740E0,4.376219940E1,2.419399977E0,4.079999924E-1,4.383092580E1
6.370302240E0,6.256679916E1,9.963099480E0,2.408599854E0,6.340086011E1
6.380302240E0,7.010759735E1,1.654579926E1,8.474100113E0,7.253033195E1
6.390302240E0,6.773509979E1,2.073029900E1,1.284329987E1,7.199124524E1
6.400302240E0,5.678120041E1,2.120359993E1,1.164729977E1,6.171998835E1
6.410306928E0,4.536089706E1,2.078170013E1,8.226399422E0,5.056840605E1
6.420302240E0,3.801939774E1,1.896409988E1,3.472800016E0,4.262830079E1
6.430302240E0,3.274649811E1,1.624769974E1,-1.494099975E0,3.658624359E1
6.440302240E0,2.636829948E1,1.350179958E1,-5.281099796E0,3.009112535E1
6.450302240E0,1.961829948E1,1.138989925E1,-7.523200035E0,2.389991670E1
6.460310053E0,1.315329933E1,9.148099899E0,-8.922200203E0,1.833855696E1
6.470302240E0,7.838099957E0,6.433300018E0,-8.200900078E0,1.304139265E1
6.480302240E0,3.375999928E0,3.810699940E0,-5.479399681E0,7.479480624E0
6.490302240E0,-5.273000002E-1,1.456399918E0,-1.488999963E0,2.148549953E0
6.500302240E0,-3.723699808E0,-4.069999978E-2,3.553499937E0,5.147325379E0
6.510303803E0,-6.534899712E0,-6.582999825E-1,1.041499996E1,1.231302145E1
6.520302240E0,-8.262000084E0,-3.445000052E-1,1.675149918E1,1.868132892E1
6.530302240E0,-9.099299431E0,3.109000027E-1,2.018149948E1,2.214016328E1
6.540300678E0,-9.658800125E0,1.276799917E0,2.029660034E1,2.251387624E1
6.550302240E0,-1.013019943E1,1.962199926E0,1.740530014E1,2.023402190E1
6.560314740E0,-1.041169930E1,2.167700052E0,1.260149956E1,1.648939650E1
6.570302240E0,-1.054640007E1,1.979699969E0,7.471599579E0,1.307557137E1
6.580302240E0,-1.025049973E1,1.843499899E0,2.858000040E0,1.079997226E1
6.590302240E0,-1.000579929E1,1.666099906E0,-4.142999947E-1,1.015202211E1
6.600302240E0,-1.006919956E1,1.128600001E0,-3.364799976E0,1.067634753E1
6.610305365E0,-1.057969952E1,5.555999875E-1,-5.295000076E0,1.184380678E1
6.620302240E0,-1.112580013E1,4.381999969E-1,-5.874000072E0,1.258885716E1
6.630302240E0,-1.143169975E1,7.051999569E-1,-5.379999638E0,1.265406900E1
6.640302240E0,-1.103450012E1,1.155499935E0,-4.096799850E0,1.182705128E1
6.650302240E0,-1.001069927E1,1.668099999E0,-2.399399996E0,1.042850794E1
6.660306928E0,-8.850299835E0,2.170099974E0,-8.578999639E-1,9.152766435E0
6.670302240E0,-7.672199726E0,2.776199818E0,9.560999870E-1,8.214868304E0
6.680302240E0,-6.606799603E0,3.217299938E0,2.340399981E0,7.712217058E0
6.690302240E0,-5.814499855E0,3.915999889E0,3.760999918E0,7.955412251E0
6.700302240E0,-5.110799789E0,4.927199841E0,4.918299675E0,8.636390707E0
6.710303803E0,-4.449100018E0,5.864899635E0,5.509900093E0,9.195136635E0
6.720302240E0,-3.655200005E0,6.676699638E0,5.625299931E0,9.464819303E0
6.730302240E0,-2.427299976E0,7.409299850E0,4.980599880E0,9.251804398E0
6.740302240E0,-1.493499994E0,8.226200104E0,3.850699902E0,9.204824828E0
6.750302240E0,-9.999999311E-4,9.499899864E0,2.702699900E0,9.876876286E0
6.760311615E0,3.419899940E0,1.162580013E1,2.592999935E0,1.239268304E1
6.770302240E0,6.760299683E0,1.367059994E1,3.680899858E0,1.568872137E1
6.780302240E0,8.585800171E0,1.371840000E1,4.551899910E0,1.681161075E1
6.790302240E0,7.888799667E0,1.215129948E1,4.803699970E0,1.526311805E1
6.800302240E0,4.602900028E0,9.726499557E0,4.243499756E0,1.156714193E1
6.810311615E0,-2.456999868E-1,7.876399994E0,2.605000019E0,8.299642790E0
6.820302240E0,-3.724299908E0,6.908899784E0,6.405999660E-1,7.874876148E0
6.830302240E0,-2.006099939E0,7.523399830E0,1.213400006E0,7.880248825E0
6.840302240E0,4.320300102E0,7.781399727E0,4.706199646E0,1.006794367E1
6.850302240E0,1.245699978E1,9.718699455E0,9.082900047E0,1.822440770E1
6.860314740E0,1.969219971E1,1.415689945E1,9.299900055E0,2.597476992E1
6.870302240E0,2.709679985E1,2.182289886E1,3.251099825E0,3.494345614E1
6.880302240E0,3.870409775E1,2.907969856E1,-3.882900000E0,4.856658278E1
6.890302240E0,5.543649673E1,3.298299789E1,-3.252199888E0,6.458839001E1
6.900303803E0,6.735800171E1,3.201379776E1,4.163300037E0,7.469482384E1
6.910302240E0,6.850270081E1,2.621539879E1,1.216419983E1,7.434941095E1
6.920302240E0,6.673929596E1,1.777479935E1,1.591949940E1,7.087670688E1
6.930302240E0,5.948180008E1,1.045179939E1,1.670450020E1,6.266071319E1
6.940302240E0,5.349479675E1,4.932300091E0,1.652799988E1,5.620672241E1
6.950302240E0,4.916759872E1,3.840999901E-1,1.481459999E1,5.135243587E1
6.960310053E0,4.275970078E1,-4.820899963E0,1.244559956E1,4.479426342E1
6.970302240E0,3.288549805E1,-1.127309990E1,9.967800140E0,3.616484208E1
6.980302240E0,2.041419983E1,-1.776269913E1,6.000400066E0,2.771746446E1
6.990302240E0,9.802100182E0,-2.263039970E1,1.324899912E0,2.469760147E1
7.000302240E0,4.590099812E0,-2.528559875E1,-2.425099850E0,2.581301280E1
7.010303803E0,2.879999876E0,-2.605229950E1,-3.712699890E0,2.647264341E1
7.020302240E0,2.848500013E0,-2.557629967E1,-1.744399905E0,2.579348732E1
7.030302240E0,3.226799965E0,-2.572559929E1,9.789999574E-2,2.592736549E1
7.040302240E0,4.163799763E0,-2.658129883E1,1.044700027E0,2.692571399E1
7.050303803E0,4.671299934E0,-2.788109970E1,2.362900019E0,2.836829322E1
7.060302240E0,4.310899734E0,-2.992709923E1,3.623399973E0,3.045232589E1
7.070302240E0,2.072900057E0,-3.198649979E1,4.211199760E0,3.232904710E1
7.080302240E0,-1.728699923E0,-3.375219727E1,3.061399937E0,3.393481094E1
7.090302240E0,-5.278599739E0,-3.421659851E1,1.103799939E0,3.463896077E1
7.100302240E0,-8.027400017E0,-3.344449997E1,-9.530999660E-1,3.440758824E1
7.110302240E0,-9.036999702E0,-3.165740013E1,-2.268100023E0,3.300003976E1
7.120302240E0,-8.434299469E0,-2.927039909E1,-2.143300056E0,3.053665675E1
7.130302240E0,-7.178199768E0,-2.728879929E1,-8.903999925E-1,2.823115177E1
7.140302240E0,-4.885499954E0,-2.551779938E1,1.127599955E0,2.600572392E1
7.150302240E0,-2.595099926E0,-2.407969856E1,3.181499958E0,2.442720550E1
7.160302240E0,-1.634499907E0,-2.283749962E1,4.695799828E0,2.337249483E1
7.170302240E0,-1.893999934E0,-2.196539879E1,5.490299702E0,2.272024143E1
7.180302240E0,-2.782899857E0,-2.144979858E1,5.609799862E0,2.234520632E1
7.190302240E0,-4.030699730E0,-2.113089943E1,5.055099964E0,2.209786159E1
7.200302240E0,-5.036099911E0,-2.084930038E1,4.030099869E0,2.182423730E1
7.210302240E0,-5.733699799E0,-2.092700005E1,2.753299952E0,2.187224965E1
7.220302240E0,-6.204400063E0,-2.133359909E1,1.439399958E0,2.226407201E1
7.230302240E0,-6.380599976E0,-2.172539902E1,4.257999957E-1,2.264699371E1
7.240302240E0,-6.039999962E0,-2.188579941E1,1.929999888E-2,2.270396855E1
7.250316303E0,-5.063199997E0,-2.179290009E1,1.899999916E-3,2.237334333E1
7.260302240E0,-3.735199928E0,-2.148270035E1,6.050999761E-1,2.181339677E1
7.270302240E0,-2.806399822E0,-2.120759964E1,1.467099905E0,2.144272708E1
7.280302240E0,-2.275899887E0,-2.095759964E1,2.161900043E0,2.119137831E1
7.290302240E0,-2.444900036E0,-2.070389938E1,2.117499828E0,2.095501829E1
7.300311615E0,-2.641700029E0,-2.039739990E1,1.775099993E0,2.064421182E1
7.310302240E0,-2.687399864E0,-2.015439987E1,1.299000025E0,2.037423258E1
7.320302240E0,-2.593099833E0,-1.989509964E1,6.608999968E-1,2.007426076E1
7.330302240E0,-1.945599914E0,-1.948970032E1,-5.389999971E-2,1.958664552E1
7.340302240E0,-1.017599940E0,-1.901329994E1,-3.238999844E-1,1.904326641E1
7.350316303E0,6.759999692E-2,-1.819839859E1,-4.772999883E-1,1.820478224E1
7.360302240E0,1.288800001E0,-1.728999901E1,-7.720999718E-1,1.735514937E1
7.370302240E0,3.166800022E0,-1.614439964E1,-1.170599937E0,1.649365231E1
7.380302240E0,4.876699924E0,-1.462939930E1,-1.351799965E0,1.547995120E1
7.390302240E0,5.964299679E0,-1.384989929E1,-1.116699934E0,1.512083330E1
7.400310053E0,7.252699852E0,-1.321039963E1,-4.442999959E-1,1.507692661E1
7.410302240E0,9.950900078E0,-1.152979946E1,-4.699999839E-2,1.523019688E1
7.420302240E0,1.592779922E1,-8.818599701E0,2.336999923E-1,1.820761117E1
7.430302240E0,2.585559845E1,-4.821799755E0,1.985699892E0,2.637621520E1
7.440302240E0,3.850859833E1,8.812999725E-1,3.926800013E0,3.871832374E1
7.450305365E0,4.935099792E1,6.409299850E0,3.891599894E0,4.991737844E1
7.460302240E0,5.542979813E1,1.053590012E1,1.910899997E0,5.645457688E1
7.470302240E0,5.676449966E1,1.211349964E1,-1.254799962E0,5.805617813E1
7.480302240E0,5.350289917E1,1.073299980E1,-2.045199871E0,5.460714557E1
7.490302240E0,4.737659836E1,8.599999428E0,-1.089999974E-1,4.815094956E1
7.500313178E0,4.156100082E1,8.822699547E0,3.832899809E0,4.265967578E1
7.510302240E0,3.609740067E1,9.385000229E0,7.989699841E0,3.814362159E1
7.520302240E0,3.132679939E1,9.511599541E0,1.155249977E1,3.471741835E1
7.530302240E0,2.591440010E1,9.860899925E0,1.523589993E1,3.163741656E1
7.540302240E0,2.026539993E1,1.021309948E1,1.739399910E1,2.859274454E1
7.550308490E0,1.452019978E1,9.821599960E0,1.690239906E1,2.435140902E1
7.560302240E0,1.013780022E1,9.629599571E0,1.411969948E1,1.987133852E1
7.570302240E0,7.689299583E0,1.011030006E1,1.045549965E1,1.645177706E1
7.580302240E0,6.624300003E0,1.091160011E1,6.405200005E0,1.428184003E1
7.590302240E0,4.350399971E0,1.102709961E1,3.633999825E0,1.239874431E1
7.600306928E0,7.936999798E-1,1.027600002E1,2.339900017E0,1.056888207E1
7.610302240E0,-3.098299980E0,9.266900063E0,3.237599850E0,1.029353935E1
7.620302240E0,-6.522299767E0,7.686699867E0,4.956199646E0,1.123341729E1
7.630302240E0,-8.937500000E0,6.009199619E0,5.924999714E0,1.229207094E1
7.640302240E0,-1.097060013E1,4.476500034E0,6.118099689E0,1.333507644E1
7.650306928E0,-1.264050007E1,3.433599949E0,6.070299625E0,1.443677208E1
7.660302240E0,-1.391720009E1,3.068399906E0,5.875499725E0,1.541509109E1
7.670302240E0,-1.431019974E1,3.232499838E0,5.320300102E0,1.560565490E1
7.680302240E0,-1.405519962E1,3.506199837E0,4.507800102E0,1.517110199E1
7.690302240E0,-1.358439922E1,3.745100021E0,3.298799992E0,1.447217184E1
7.700305365E0,-1.308500004E1,3.770399809E0,1.756099939E0,1.373015032E1
7.710302240E0,-1.258659935E1,3.515699863E0,2.900999784E-1,1.307160230E1
7.720302240E0,-1.216669941E1,3.352799892E0,-6.251999736E-1,1.263569217E1
7.730302240E0,-1.180429935E1,3.304299831E0,-1.281700015E0,1.232487872E1
7.740302240E0,-1.185120010E1,3.276199818E0,-1.432699919E0,1.237889568E1
7.750305365E0,-1.197229958E1,3.441099882E0,-1.310299993E0,1.252573397E1
7.760302240E0,-1.192159939E1,3.540400028E0,-1.205899954E0,1.249452516E1
7.770302240E0,-1.176729965E1,3.933199883E0,-1.221300006E0,1.246719600E1
7.780302240E0,-1.096000004E1,4.641599655E0,-1.289600015E0,1.197201388E1
7.790302240E0,-9.618999481E0,5.325200081E0,-1.281199932E0,1.106907314E1
7.800314740E0,-8.189000130E0,5.870999813E0,-1.101199985E0,1.013612368E1
7.810302240E0,-6.714200020E0,6.301300049E0,-9.395999908E-1,9.255793448E0
7.820302240E0,-5.717899799E0,6.582699776E0,-5.067999959E-1,8.734023167E0
7.830302240E0,-5.280399799E0,6.560400009E0,4.144999981E-1,8.431683140E0
7.840302240E0,-5.225399971E0,6.379799843E0,1.556599975E0,8.392237745E0
7.850313178E0,-5.462599754E0,6.165199757E0,2.442899942E0,8.591707877E0
7.860302240E0,-5.930599689E0,5.639400005E0,2.869899988E0,8.672437434E0
7.870302240E0,-6.204699993E0,5.254099846E0,3.416100025E0,8.818934549E0
7.880302240E0,-5.979199886E0,5.147299767E0,3.885199785E0,8.794333604E0
7.890302240E0,-5.353399754E0,4.794199944E0,4.163099766E0,8.305097331E0
7.900303803E0,-3.683300018E0,4.446700096E0,4.165199757E0,7.119601799E0
7.910302240E0,-1.667999983E0,3.643199921E0,3.857999802E0,5.562309958E0
7.920302240E0,1.938499928E0,2.724099874E0,3.685099840E0,4.975787669E0
7.930302240E0,9.427299500E0,3.179499865E0,4.570600033E0,1.094867937E1
7.940302240E0,1.788730049E1,2.996799946E0,6.506700039E0,1.926845801E1
7.950302240E0,2.601579857E1,2.536000013E0,8.753799438E0,2.756595864E1
7.960302240E0,3.353809738E1,2.122999907E0,9.941699982E0,3.504494975E1
7.970302240E0,3.914649963E1,2.538199902E0,8.157400131E0,4.006786829E1
7.980302240E0,4.315200043E1,3.120499849E0,3.973299980E0,4.344674640E1
7.990313178E0,4.639879990E1,2.318500042E0,6.162999868E-1,4.646077808E1
8.000302240E0,4.834569931E1,7.992999554E-1,4.028999805E-1,4.835398485E1
8.010302240E0,4.848509979E1,-1.999999881E-1,6.352999806E-1,4.848967424E1
8.020302240E0,4.555170059E1,1.580500007E0,2.172999978E-1,4.557962951E1
8.030302240E0,4.200249863E1,5.529399872E0,-1.781999916E-1,4.236526772E1
8.040302240E0,3.950019836E1,7.962100029E0,-7.120999694E-1,4.030096518E1
8.050302240E0,3.730629730E1,8.658499718E0,2.759999968E-2,3.829791375E1
8.060302240E0,3.366659927E1,6.924699783E0,9.845999479E-1,3.438547383E1
8.070302240E0,2.716099930E1,3.523699999E0,2.198699951E0,2.747672881E1
8.080302240E0,1.890830040E1,-1.258700013E0,3.648799896E0,1.929823542E1
8.090306928E0,1.110989952E1,-6.823400021E0,4.209599972E0,1.370070754E1
8.100302240E0,4.211100101E0,-1.424849987E1,1.578899980E0,1.494142021E1
8.110302240E0,-3.935099840E0,-2.066339874E1,-1.144899964E0,2.106589315E1
8.120302240E0,-1.376979923E1,-2.405739975E1,-2.985199928E0,2.787969283E1
8.130302240E0,-1.988949966E1,-2.491809845E1,-4.448899746E0,3.219156001E1
8.140311615E0,-2.044050026E1,-2.385479927E1,-4.863999844E0,3.178874004E1
8.150302240E0,-1.658180046E1,-2.169069862E1,-3.902899981E0,2.758033977E1
8.160302240E0,-1.091300011E1,-1.934539986E1,-2.479399920E0,2.234917204E1
8.170302240E0,-5.246999741E0,-1.707919884E1,-1.620700002E0,1.794036532E1
8.180302240E0,-2.102799892E0,-1.544989967E1,-1.944099903E0,1.571307391E1
8.190311615E0,-1.577999949E0,-1.491219997E1,-3.597800016E0,1.542102321E1
8.200302240E0,-3.219099998E0,-1.529449940E1,-5.325399876E0,1.651194115E1
8.210302240E0,-5.704499722E0,-1.582569981E1,-6.011499882E0,1.786427223E1
8.220302240E0,-8.115099907E0,-1.648589897E1,-6.113399982E0,1.936526196E1
8.230302240E0,-9.404199600E0,-1.674049950E1,-5.859899998E0,2.007540090E1
8.240305365E0,-9.709099770E0,-1.645249939E1,-5.244100094E0,1.981039980E1
8.250302240E0,-8.972499847E0,-1.562889957E1,-4.465499878E0,1.856633902E1
8.260302240E0,-6.558099747E0,-1.421399975E1,-3.764499903E0,1.610024598E1
8.270302240E0,-3.948399782E0,-1.263669968E1,-3.023799896E0,1.358011065E1
8.280302240E0,-1.975899935E0,-1.133249950E1,-2.352099895E0,1.174146922E1
8.290313178E0,-7.185999751E-1,-1.065730000E1,-1.604799986E0,1.080138010E1
8.300302240E0,-4.763000011E-1,-1.049230003E1,-4.415999949E-1,1.051238471E1
8.310302240E0,-1.113699913E0,-1.112589931E1,9.490000010E-1,1.122170059E1
8.320302240E0,-2.596899986E0,-1.255919933E1,1.726399899E0,1.294054999E1
8.330302240E0,-4.834700108E0,-1.439960003E1,1.555899978E0,1.526904158E1
8.340306928E0,-7.834199905E0,-1.625869942E1,7.820999622E-1,1.806465265E1
8.350302240E0,-1.094829941E1,-1.781180000E1,-6.868000031E-1,2.091882343E1
8.360302240E0,-1.347009945E1,-1.863459969E1,-2.171200037E0,2.309558387E1
8.370302240E0,-1.494409943E1,-1.876679993E1,-2.738499880E0,2.414577124E1
8.380302240E0,-1.438599968E1,-1.871089935E1,-1.991699934E0,2.368589475E1
8.390313178E0,-1.219789982E1,-1.844439888E1,-5.235999823E-1,2.211919454E1
8.400302240E0,-9.522799492E0,-1.795940018E1,7.358999848E-1,2.034122203E1
8.410302240E0,-6.984999657E0,-1.750919914E1,1.286800027E0,1.889492337E1
8.420302240E0,-5.230799675E0,-1.716309929E1,1.094699979E0,1.797586188E1
8.430302240E0,-4.728300095E0,-1.654780006E1,3.152999878E-1,1.721295799E1
8.440305365E0,-4.924299717E0,-1.587419987E1,-1.088500023E0,1.665604339E1
8.450302240E0,-4.685499668E0,-1.528819942E1,-2.346699953E0,1.616137214E1
8.460302240E0,-3.624599934E0,-1.465789986E1,-2.742599964E0,1.534645260E1
8.470302240E0,-1.724200010E0,-1.375519943E1,-2.166100025E0,1.403105008E1
8.480302240E0,4.899999797E-1,-1.295440006E1,-1.148000002E0,1.301439530E1
8.490308490E0,2.317600012E0,-1.227919960E1,-7.849999517E-2,1.249624643E1
8.500302240E0,3.241699934E0,-1.207649994E1,5.464999676E-1,1.251595508E1
8.510302240E0,4.021199703E0,-1.228289986E1,7.601999640E-1,1.294672082E1
8.520302240E0,6.268699646E0,-1.277629948E1,3.836999834E-1,1.423649006E1
8.530302240E0,8.901999474E0,-1.177559948E1,-2.073999941E-1,1.476324329E1
8.540311615E0,1.350999928E1,-7.804100037E0,-5.647000074E-1,1.561226902E1
8.550302240E0,2.183119965E1,-1.615499973E0,6.498999596E-1,2.190053625E1
8.560302240E0,3.248450089E1,4.815899849E0,2.477099895E0,3.293283639E1
8.570302240E0,4.290209961E1,9.947499275E0,2.341699839E0,4.410245402E1
8.580302240E0,4.799409866E1,1.282870007E1,-5.917999744E-1,4.968258527E1
8.590313178E0,4.734959793E1,1.475179958E1,-4.591399670E0,4.980643499E1
8.600302240E0,4.333739853E1,1.620279884E1,-6.657299995E0,4.674377440E1
8.610302240E0,3.758039856E1,1.545059967E1,-5.615799904E0,4.101883219E1
8.620302240E0,3.173649979E1,1.359989929E1,-2.188299894E0,3.459698449E1
8.630302240E0,2.520539856E1,1.210099983E1,2.115999937E0,2.803968205E1
8.640306928E0,1.880620003E1,1.121459961E1,5.449399948E0,2.256405025E1
8.650302240E0,1.261149979E1,9.637199402E0,6.888499737E0,1.730251334E1
8.660302240E0,7.401799679E0,7.938599586E0,6.973099709E0,1.290085739E1
8.670302240E0,3.204200029E0,6.579199791E0,6.421899796E0,9.736198678E0
8.680302240E0,5.180000067E-1,5.853099823E0,5.558799744E0,8.088717830E0
8.690303803E0,-1.146799922E0,5.516999722E0,4.278999805E0,7.075469972E0
8.700302240E0,-2.240700006E0,5.713699818E0,2.832000017E0,6.759240063E0
8.710302240E0,-3.215999842E0,6.295599937E0,1.627399921E0,7.254354834E0
8.720302240E0,-4.163799763E0,7.050199986E0,3.947999775E-1,8.197463957E0
8.730302240E0,-5.068099976E0,7.876299858E0,-6.669999659E-2,9.366225798E0
8.740306928E0,-6.921999931E0,8.162499428E0,5.196999907E-1,1.071496934E1
8.750302240E0,-9.159099579E0,7.484599590E0,1.350000024E0,1.190507607E1
8.760302240E0,-1.121169949E1,6.276199818E0,1.883499980E0,1.298616424E1
8.770302240E0,-1.290279961E1,5.026000023E0,2.297899961E0,1.403649736E1
8.780302240E0,-1.423099995E1,3.577499866E0,2.638599873E0,1.490912721E1
8.790310053E0,-1.529309940E1,2.300299883E0,2.624599934E0,1.568626130E1
8.800302240E0,-1.584239960E1,1.564000010E0,2.160199881E0,1.606530997E1
8.810302240E0,-1.582849979E1,1.114799976E0,1.191399932E0,1.591237313E1
8.820302240E0,-1.512239933E1,1.094799995E0,1.767999977E-1,1.516300784E1
8.830302240E0,-1.346679974E1,1.528100014E0,-4.921000004E-1,1.356215127E1
8.840306928E0,-1.068279934E1,2.805500031E0,-7.423999906E-1,1.106996793E1
8.850302240E0,-7.838799953E0,4.402100086E0,-7.112999558E-1,9.018382200E0
8.860302240E0,-5.575699806E0,5.782099724E0,-6.456999779E-1,8.058413864E0
8.870302240E0,-4.086599827E0,6.889699936E0,-1.923999935E-1,8.012819798E0
8.880302240E0,-3.487200022E0,7.146299839E0,5.321999788E-1,7.969529610E0
8.890302240E0,-3.155200005E0,7.156999588E0,9.810999632E-1,7.882923779E0
8.900302240E0,-3.632099867E0,7.064299583E0,1.050899982E0,8.012544466E0
8.910302240E0,-4.172699928E0,6.893300056E0,5.194999576E-1,8.074582996E0
8.920302240E0,-3.724900007E0,7.496099949E0,-2.945999801E-1,8.375749737E0
8.930302240E0,-3.148099899E0,8.830200195E0,-1.053599954E0,9.433612316E0
8.940302240E0,-2.235100031E0,9.866000175E0,-2.092499971E0,1.033015913E1
8.950302240E0,-4.763999879E-1,1.036069965E1,-2.392400026E0,1.064399512E1
8.960302240E0,8.626999855E-1,1.067959976E1,-1.178599954E0,1.077901666E1
8.970302240E0,2.841799974E0,1.004099941E1,9.225999713E-1,1.047610075E1
8.980302240E0,4.600100040E0,8.141900063E0,3.178699970E0,9.877023363E0
8.990302240E0,6.719399929E0,6.563799858E0,5.749499798E0,1.101319899E1
9.000302240E0,1.108459949E1,5.712299824E0,5.474099636E0,1.361853451E1
9.010302240E0,1.811989975E1,5.595299721E0,3.861299992E0,1.935323703E1
9.020302240E0,2.773159981E1,8.409799576E0,3.568399906E0,2.919759981E1
9.030310053E0,3.777199936E1,1.330439949E1,4.817399979E0,4.033532353E1
9.040302240E0,4.502199936E1,1.605419922E1,5.634199619E0,4.812963686E1
9.050302240E0,4.812820053E1,1.640439987E1,6.488899708E0,5.125947562E1
9.060302240E0,4.856329727E1,1.405299950E1,8.576600075E0,5.127805286E1
9.070302240E0,4.917580032E1,1.209609985E1,1.088089943E1,5.179738354E1
9.080311615E0,4.851789856E1,1.178240013E1,1.096910000E1,5.111880856E1
9.090302240E0,4.686619949E1,1.220259953E1,7.886799812E0,4.906674741E1
9.100302240E0,4.641370010E1,1.313919926E1,2.103399992E0,4.828347964E1
9.110302240E0,4.700370026E1,1.414299965E1,-1.963899970E0,4.912462906E1
9.120302240E0,4.565719986E1,1.192920017E1,-4.410900116E0,4.739558793E1
9.130311615E0,3.971239853E1,6.199599743E0,-5.723999977E0,4.059893853E1
9.140302240E0,3.124589920E1,-1.398999989E-1,-4.746500015E0,3.160466819E1
9.150302240E0,2.167149925E1,-6.143899918E0,-2.300600052E0,2.264275042E1
9.160302240E0,1.284939957E1,-1.123639965E1,-3.143000007E-1,1.707227374E1
9.170302240E0,5.526899815E0,-1.515669918E1,2.131500006E0,1.627315101E1
9.180306928E0,2.577999830E0,-1.799829865E1,3.213799953E0,1.846383891E1
9.190302240E0,4.272999763E0,-2.047509956E1,1.370999932E0,2.096110374E1
9.200302240E0,8.626299858E0,-2.262849998E1,-6.787999868E-1,2.422649026E1
9.210302240E0,1.228719997E1,-2.459989929E1,-1.133299947E0,2.752116816E1
9.220302240E0,1.317899990E1,-2.595809937E1,-1.105499983E0,2.913298974E1
9.230302240E0,1.163749981E1,-2.702179909E1,-4.456000030E-1,2.942460853E1
9.240302240E0,9.005599976E0,-2.843190002E1,-6.999999750E-3,2.982404766E1
9.250302240E0,6.731699944E0,-2.952589989E1,-1.222999990E-1,3.028381590E1
9.260302240E0,5.221199989E0,-3.030599976E1,-3.434000015E-1,3.075438951E1
9.270302240E0,3.626299858E0,-3.079049873E1,-8.668999672E-1,3.101542162E1
9.280302240E0,1.848099947E0,-3.028229904E1,-1.507599950E0,3.037607556E1
9.290302240E0,6.750999689E-1,-3.005419922E1,-2.069099903E0,3.013290270E1
9.300302240E0,-3.388999999E-1,-3.026009941E1,-2.585799932E0,3.037227076E1
9.310302240E0,-2.409199953E0,-2.990519905E1,-2.870399952E0,3.013908377E1
9.320302240E0,-4.654200077E0,-2.887749863E1,-2.698799849E0,2.937439405E1
9.330311615E0,-5.809899807E0,-2.758699989E1,-1.702499986E0,2.824351262E1
9.340302240E0,-5.267199993E0,-2.621559906E1,1.929999888E-1,2.674019968E1
9.350302240E0,-3.606299877E0,-2.454609871E1,2.354099989E0,2.492103825E1
9.360302240E0,-1.779399991E0,-2.256219864E1,3.890199900E0,2.296416180E1
9.370302240E0,6.929999590E-1,-2.017700005E1,4.401999950E0,2.066323265E1
9.380311615E0,2.643499851E0,-1.776689911E1,4.295700073E0,1.846899658E1
9.390302240E0,3.520099878E0,-1.580819988E1,3.370499849E0,1.654238665E1
9.400302240E0,3.315500021E0,-1.439869976E1,1.841499925E0,1.488980246E1
9.410302240E0,2.413300037E0,-1.355949974E1,6.542999744E-1,1.378811658E1
9.420302240E0,9.494999647E-1,-1.322389984E1,-3.312000036E-1,1.326208018E1
9.430306928E0,-6.915999651E-1,-1.349039936E1,-1.019099951E0,1.354650324E1
9.440302240E0,-1.904399991E0,-1.378979969E1,-1.284099936E0,1.397977924E1
9.450302240E0,-2.445799828E0,-1.385529995E1,-1.246500015E0,1.412462516E1
9.460302240E0,-2.232399940E0,-1.397889996E1,-1.348299980E0,1.422009727E1
9.470302240E0,-1.606999993E0,-1.409039974E1,-1.334699988E0,1.424441076E1
9.480313178E0,-9.963999987E-1,-1.388479996E1,-1.315199971E0,1.398249741E1
9.490302240E0,-4.914999902E-1,-1.336240005E1,-1.402099967E0,1.344474588E1
9.500302240E0,-4.052999914E-1,-1.297659969E1,-1.428599954E0,1.306129035E1
9.510302240E0,-1.600999981E-1,-1.290679932E1,-1.688899994E0,1.301781409E1
9.520302240E0,-9.600000083E-2,-1.266469955E1,-1.712599993E0,1.278032979E1
9.530305365E0,-5.435000062E-1,-1.239960003E1,-1.604299903E0,1.251476134E1
9.540302240E0,-1.160099983E0,-1.233199978E1,-1.506500006E0,1.247772386E1
9.550302240E0,-1.791700006E0,-1.247029972E1,-1.520200014E0,1.268974279E1
9.560302240E0,-2.411000013E0,-1.241409969E1,-1.174799919E0,1.270050972E1
9.570302240E0,-2.755699873E0,-1.233019924E1,-2.665999830E-1,1.263719790E1
9.580314740E0,-1.682299972E0,-1.156320000E1,8.104999661E-1,1.171301146E1
9.590302240E0,1.542899966E0,-1.025080013E1,1.439399958E0,1.046572099E1
9.600302240E0,5.998300076E0,-9.278599739E0,1.431499958E0,1.114096984E1
9.610302240E0,9.087599754E0,-8.758600235E0,3.350000083E-2,1.262135768E1
9.620302240E0,1.033979988E1,-8.149499893E0,-2.314899921E0,1.336729485E1
9.630308490E0,1.117500019E1,-7.119599819E0,-4.001800060E0,1.384137763E1
9.640302240E0,1.360499954E1,-4.335700035E0,-2.027199984E0,1.442233848E1
9.650302240E0,1.996279907E1,7.367999554E-1,3.509899855E0,2.028239675E1
9.660302240E0,3.064900017E1,6.940899849E0,9.976900101E0,3.297083314E1
9.670302240E0,4.343409729E1,1.333129978E1,1.336919975E1,4.736010835E1
9.680308490E0,5.092490005E1,1.900379944E1,1.238219929E1,5.574772370E1
9.690302240E0,4.969279861E1,2.170829964E1,9.050600052E0,5.497761243E1
9.700302240E0,3.999639893E1,1.994219971E1,6.078399658E0,4.510377145E1
9.710302240E0,2.826669884E1,1.579079914E1,3.954299927E0,3.261889159E1
9.720302240E0,1.868610001E1,1.173009968E1,2.327899933E0,2.218523586E1
9.730311615E0,1.283419991E1,8.634799957E0,1.016799927E0,1.550194632E1
9.740302240E0,8.817999840E0,6.275799751E0,4.470999837E-1,1.083248273E1
9.750302240E0,5.981699944E0,4.566999912E0,7.910999656E-1,7.567302133E0
9.760302240E0,3.760200024E0,2.995299816E0,1.491799951E0,5.033526825E0
9.770302240E0,2.646999836E0,1.999899983E0,2.136499882E0,3.945990347E0
9.780308490E0,2.606299877E0,1.882999897E0,2.569099903E0,4.115672724E0
9.790302240E0,3.524499893E0,2.616299868E0,2.460399866E0,5.031967011E0
9.800302240E0,4.112599850E0,3.404099941E0,1.700399995E0,5.602921923E0
9.810302240E0,3.628499985E0,4.272200108E0,-2.128999978E-1,5.609191770E0
9.820302240E0,1.825999975E0,5.388999939E0,-2.709599972E0,6.302184404E0
9.830305365E0,1.235999987E-1,6.650399685E0,-4.848999977E0,8.231396826E0
9.840302240E0,-5.206999779E-1,7.575199604E0,-5.533899784E0,9.395681153E0
9.850302240E0,-4.019999802E-1,8.047900200E0,-3.896099806E0,8.950413136E0
9.860302240E0,-7.171999812E-1,8.112599373E0,-1.196399927E0,8.231647295E0
9.870302240E0,-1.988699913E0,7.739699841E0,1.551299930E0,8.140295599E0
9.880305365E0,-3.945400000E0,7.191999912E0,3.613899946E0,8.963889598E0
9.890302240E0,-6.158199787E0,6.491299629E0,4.877399921E0,1.019065383E1
9.900302240E0,-7.862899780E0,5.717000008E0,5.279799938E0,1.106280116E1
9.910302240E0,-8.833499908E0,5.134399891E0,5.185999870E0,1.145807041E1
9.920302240E0,-9.510199547E0,4.674299717E0,4.956399918E0,1.169866973E1
9.930302240E0,-1.028459930E1,4.065899849E0,4.874499798E0,1.208574668E1
9.940302240E0,-1.111670017E1,3.440500021E0,5.038799763E0,1.268099232E1
9.950302240E0,-1.163350010E1,3.039999962E0,5.107599735E0,1.306397717E1
9.960302240E0,-1.163859940E1,2.773000002E0,4.972199917E0,1.295643843E1
9.970302240E0,-1.098509979E1,2.683399916E0,4.547699928E0,1.218829878E1
9.980302240E0,-9.762599945E0,3.072899818E0,3.709100008E0,1.088616066E1
9.990302240E0,-8.393799782E0,3.763199806E0,2.706499815E0,9.588675029E0
1.000030224E1,-7.055799961E0,4.523499966E0,2.229099989E0,8.672672702E0
1.001030224E1,-5.806900024E0,5.234299660E0,2.115999937E0,8.099100972E0
1.002030224E1,-4.842299938E0,5.579599857E0,1.870700002E0,7.620979055E0
1.003030224E1,-4.474400043E0,5.343999863E0,1.480899930E0,7.125423137E0
1.004030224E1,-5.598700047E0,4.932399750E0,8.844999671E-1,7.513744053E0
1.005030224E1,-7.022399902E0,5.244800091E0,3.671000004E-1,8.772501969E0
1.006030224E1,-7.389999866E0,5.367099762E0,-4.138999879E-1,9.142711364E0
1.007030224E1,-4.453299999E0,5.473399639E0,-1.784899950E0,7.278451231E0
1.008030224E1,-6.943999529E-1,6.355799675E0,-1.970999956E0,6.690532238E0
1.009030224E1,3.006000042E0,8.277500153E0,-2.811999917E-1,8.810909060E0
1.010030224E1,7.637099743E0,1.214059925E1,1.791700006E0,1.445439835E1
1.011030224E1,1.610560036E1,1.778629875E1,3.095599890E0,2.419350171E1
1.012030849E1,2.890119934E1,2.388449860E1,5.062200069E0,3.783350983E1
1.013030224E1,4.264719772E1,2.827849960E1,5.851899624E0,5.150438566E1
1.014030224E1,4.998579788E1,3.022039986E1,5.835499763E0,5.870183655E1
1.015030224E1,4.975370026E1,2.882499886E1,5.526400089E0,5.776549443E1
1.016030224E1,4.618809891E1,2.576409912E1,5.896100044E0,5.321553608E1
1.017031787E1,4.414690018E1,2.361680031E1,4.900399685E0,5.030622197E1
1.018030224E1,4.469939804E1,2.268190002E1,2.030799866E0,5.016601361E1
1.019030224E1,4.663349915E1,2.098979950E1,-2.035399914E0,5.118005254E1
1.020030224E1,4.784939957E1,1.749799919E1,-4.905600071E0,5.118407884E1
1.021030224E1,4.499049759E1,1.180149937E1,-5.872099876E0,4.688178556E1
1.022031162E1,3.841289902E1,4.993000031E0,-4.706199646E0,3.902088127E1
1.023030224E1,3.148600006E1,-1.606299996E0,-1.801999927E0,3.157840406E1
1.024030224E1,2.476409912E1,-8.802800179E0,1.492399931E0,2.632445923E1
1.025030224E1,1.907579994E1,-1.595099926E1,3.747900009E0,2.514691383E1
1.026030224E1,1.428239918E1,-2.196759987E1,5.611299992E0,2.679643741E1
1.027031630E1,1.091419983E1,-2.521019936E1,7.699899673E0,2.853002567E1
1.028030224E1,9.144999504E0,-2.601819992E1,8.996899605E0,2.900899767E1
1.029030224E1,9.207699776E0,-2.603769875E1,8.686599731E0,2.895169263E1
1.030030224E1,1.034689999E1,-2.562159920E1,6.565000057E0,2.840112516E1
1.031030224E1,1.162199974E1,-2.500379944E1,4.341000080E0,2.791245503E1
1.032030849E1,1.199800014E1,-2.516799927E1,3.036700010E0,2.804642119E1
1.033030224E1,1.115639973E1,-2.639649963E1,2.059399843E0,2.873119516E1
1.034030224E1,8.541299820E0,-2.842779922E1,8.932999969E-1,2.969665901E1
1.035030224E1,4.043200016E0,-3.030919838E1,-1.049399972E0,3.059568945E1
1.036030224E1,-1.227699995E0,-3.153889847E1,-3.081799984E0,3.171288153E1
1.037030536E1,-5.326900005E0,-3.212239838E1,-4.146599770E0,3.282405567E1
1.038030224E1,-8.093799591E0,-3.178779984E1,-3.901999950E0,3.303330764E1
1.039030224E1,-8.943499565E0,-3.050009918E1,-2.701200008E0,3.189888268E1
1.040030224E1,-8.185299873E0,-2.857179832E1,-1.186999917E0,2.974484430E1
1.041030224E1,-6.581799984E0,-2.642739868E1,3.163999915E-1,2.723651228E1
1.042031162E1,-4.012799740E0,-2.403509903E1,1.948199987E0,2.444553191E1
1.043030224E1,-8.157999516E-1,-2.171269989E1,3.046000004E0,2.194048728E1
1.044030224E1,1.797599912E0,-1.964850044E1,3.515599966E0,2.004131678E1
1.045030224E1,3.345499992E0,-1.783639908E1,3.474900007E0,1.847713269E1
1.046030224E1,3.558300018E0,-1.662599945E1,2.928999901E0,1.725295329E1
1.047030849E1,2.391499996E0,-1.586039925E1,2.003599882E0,1.616434190E1
1.048030224E1,4.117999971E-1,-1.556219959E1,1.149600029E0,1.561003573E1
1.049030224E1,-1.738600016E0,-1.565679932E1,5.684999824E-1,1.576328922E1
1.050030224E1,-3.238399982E0,-1.582319927E1,1.993999928E-1,1.615241870E1
1.051030224E1,-4.211899757E0,-1.621929932E1,-1.344999969E-1,1.675779998E1
1.052031005E1,-4.462800026E0,-1.679430008E1,-1.456999928E-1,1.737775382E1
1.053030224E1,-3.622599840E0,-1.701490021E1,4.296000004E-1,1.740156932E1
1.054030224E1,-2.628299952E0,-1.684459877E1,1.339800000E0,1.710098045E1
1.055030224E1,-1.499799967E0,-1.670120049E1,2.320799828E0,1.692824886E1
1.056030224E1,-5.056999922E-1,-1.626269913E1,2.904399872E0,1.652775405E1
1.057030693E1,2.045999914E-1,-1.568610001E1,2.976899862E0,1.596738950E1
1.058030224E1,3.700000048E-1,-1.527779961E1,2.858000040E0,1.554722564E1
1.059030224E1,2.310999930E-1,-1.512839985E1,2.585999966E0,1.534956954E1
1.060030224E1,1.291999966E-1,-1.521969986E1,2.041699886E0,1.535657823E1
1.061030224E1,3.242000043E-1,-1.517879963E1,1.373399973E0,1.524425437E1
1.062030380E1,1.106699944E0,-1.489699936E1,5.898999572E-1,1.494969420E1
1.063030224E1,2.554399967E0,-1.392369938E1,-2.575999796E-1,1.415841521E1
1.064030224E1,3.583499908E0,-1.284939957E1,-5.899999738E-1,1.335277652E1
1.065030224E1,4.546299934E0,-1.171809959E1,-9.287999868E-1,1.260338727E1
1.066030224E1,5.539899826E0,-1.064400005E1,-1.844299912E0,1.214029116E1
1.067031474E1,7.169099808E0,-9.437699318E0,-2.764499903E0,1.216998850E1
1.068030224E1,9.085700035E0,-7.207299709E0,-2.459800005E0,1.185519845E1
1.069030224E1,1.334809971E1,-2.274699926E0,-1.854599953E0,1.366695162E1
1.070030224E1,1.781889915E1,6.588599682E0,-2.779500008E0,1.920021961E1
1.071030224E1,2.026709938E1,1.558039951E1,-4.581399918E0,2.597101060E1
1.072030693E1,2.424510002E1,2.165549850E1,-3.885399818E0,3.273960632E1
1.073030224E1,2.741829872E1,2.460190010E1,1.017300010E0,3.685175020E1
1.074030224E1,2.914639854E1,2.560249901E1,7.175899982E0,3.945242761E1
1.075030224E1,3.068699837E1,2.396119881E1,9.932000160E0,4.018053688E1
1.076030224E1,3.156759834E1,2.168000031E1,7.715299606E0,3.906483747E1
1.077031005E1,3.059639931E1,2.008559990E1,3.565899849E0,3.677344987E1
1.078030224E1,2.890129852E1,1.809370041E1,9.240999818E-1,3.411042380E1
1.079030224E1,2.756519890E1,1.589190006E1,1.873299956E0,3.187321651E1
1.080030224E1,2.463129997E1,1.325799942E1,5.067399979E0,2.842805005E1
1.081030224E1,1.991189957E1,9.899999619E0,7.739299774E0,2.354549846E1
1.082030224E1,1.481489944E1,6.814799786E0,8.381899834E0,1.833518439E1
1.083030224E1,9.677599907E0,4.030099869E0,6.914899826E0,1.255840294E1
1.084030224E1,5.218899727E0,1.569999933E0,4.259099960E0,6.916772847E0
1.085030224E1,2.516499996E0,-1.344999969E-1,1.399399996E0,2.882565321E0
1.086030224E1,7.340999842E-1,-9.271999598E-1,-5.667999983E-1,1.311436156E0
1.087030224E1,-7.414999604E-1,-1.192899942E0,-1.474599957E0,2.036486557E0
1.088030224E1,-2.383499861E0,-1.255800009E0,-1.581099987E0,3.123776947E0
1.089030224E1,-4.106999874E0,-1.227199912E0,-1.026499987E0,4.407626324E0
1.090030224E1,-5.801899910E0,-1.105999947E0,1.156999990E-1,5.907509199E0
1.091030224E1,-7.507899761E0,-9.449999928E-1,1.607299924E0,7.735954812E0
1.092030224E1,-9.216599464E0,-7.439999580E-1,3.078299999E0,9.745520638E0
1.093030224E1,-1.062430000E1,-6.902999878E-1,4.004899979E0,1.137503795E1
1.094030224E1,-1.185879993E1,-6.757999659E-1,4.219299793E0,1.260517085E1
1.095030224E1,-1.276389980E1,-6.499999762E-1,3.976099968E0,1.338465573E1
1.096031162E1,-1.332109928E1,-5.690000057E-1,3.599099874E0,1.381046585E1
1.097030224E1,-1.318830013E1,-3.881999850E-1,2.940699816E0,1.351775407E1
1.098030224E1,-1.190530014E1,2.678999901E-1,2.139499903E0,1.209898350E1
1.099030224E1,-1.069689941E1,1.238600016E0,1.543799996E0,1.087846981E1
1.100030224E1,-9.993399620E0,2.044199944E0,1.047899961E0,1.025401793E1
1.101030536E1,-9.745599747E0,2.550600052E0,6.236999631E-1,1.009313017E1
1.102030224E1,-9.345899582E0,3.019899845E0,5.041999817E-1,9.834625142E0
1.103030224E1,-9.295499802E0,3.384699821E0,5.715999603E-1,9.909048186E0
1.104030224E1,-9.649600029E0,3.590600014E0,6.620999575E-1,1.031724602E1
1.105030224E1,-9.892000198E0,3.646600008E0,9.378999472E-1,1.058437603E1
1.106031786E1,-9.998899460E0,3.601999998E0,1.310599923E0,1.070841102E1
1.107030224E1,-9.661499977E0,3.497799873E0,1.475199938E0,1.038052988E1
1.108030224E1,-9.282299995E0,3.452199936E0,1.945999980E0,1.009285359E1
1.109030224E1,-8.793700218E0,3.525699854E0,2.240399837E0,9.735456559E0
1.110030224E1,-7.275199890E0,3.895599842E0,2.141099930E0,8.525757473E0
1.111031474E1,-5.707099915E0,4.724400043E0,2.098899841E0,7.700410752E0
1.112030224E1,-4.785399914E0,5.523699760E0,1.945899963E0,7.562925231E0
1.113030224E1,-3.960500002E0,6.217000008E0,2.476599932E0,7.776258521E0
1.114030224E1,-3.554999828E0,6.867499828E0,3.556399822E0,8.511671832E0
1.115030224E1,-3.107899904E0,7.309199810E0,4.388000011E0,9.074028200E0
1.116031162E1,-1.569599986E0,7.777999878E0,4.914899826E0,9.333657724E0
1.117030224E1,2.773000002E-1,8.182499886E0,5.740399837E0,9.999119459E0
1.118030224E1,1.837999940E0,7.775499821E0,5.466300011E0,9.680758082E0
1.119030224E1,1.988099933E0,7.123600006E0,5.105099678E0,8.986671303E0
1.120030224E1,4.297699928E0,6.990599632E0,5.059199810E0,9.640239137E0
1.121030849E1,8.637599945E0,9.050700188E0,6.630599976E0,1.415938426E1
1.122030224E1,1.201799965E1,1.335809994E1,8.059100151E0,1.969315223E1
1.123030224E1,1.557859993E1,1.889690018E1,7.797999859E0,2.570203132E1
1.124030224E1,2.047139931E1,2.595419884E1,7.030499935E0,3.379536294E1
1.125030224E1,2.985319901E1,3.249689865E1,7.756899834E0,4.480436818E1
1.126031318E1,4.383200073E1,3.618449783E1,8.513999939E0,5.747217037E1
1.127030224E1,5.360109711E1,3.602239990E1,8.394100189E0,6.512412628E1
1.128030224E1,5.436989975E1,3.351079941E1,9.250699997E0,6.453398427E1
1.129030224E1,5.029479980E1,2.815089989E1,1.098199940E1,5.867405187E1
1.130030224E1,4.629169846E1,2.127470016E1,1.217189980E1,5.238023824E1
1.131030537E1,4.227299881E1,1.315829945E1,1.183360004E1,4.582773574E1
1.132030224E1,3.763819885E1,4.874499798E0,9.710399628E0,3.917507654E1
1.133030224E1,3.119629860E1,-3.429399967E0,6.241799831E0,3.199890460E1
1.134030380E1,2.404010010E1,-1.079409981E1,1.998799920E0,2.642790579E1
1.135030224E1,1.761079979E1,-1.626689911E1,-2.169199944E0,2.407192772E1
1.136030849E1,1.171840000E1,-1.868759918E1,-5.534499645E0,2.274154674E1
1.137030224E1,6.862699986E0,-1.910070038E1,-6.878399849E0,2.143002078E1
1.138030224E1,3.568399906E0,-1.949790001E1,-6.522199631E0,2.086721521E1
1.139030224E1,2.320499897E0,-2.017070007E1,-4.891200066E0,2.088458042E1
1.140030224E1,1.840499997E0,-2.045590019E1,-2.278699875E0,2.066455337E1
1.141030380E1,1.585299969E0,-2.051389885E1,8.138999939E-1,2.059115478E1
1.142030224E1,1.791000009E0,-2.073670006E1,4.007800102E0,2.119624665E1
1.143030224E1,2.082299948E0,-2.166729927E1,6.029200077E0,2.258670149E1
1.144030224E1,1.995199919E0,-2.342499924E1,6.944799900E0,2.451411140E1
1.145030224E1,1.429799914E0,-2.512769890E1,6.491799831E0,2.599209581E1
1.146030849E1,-3.860999942E-1,-2.644239998E1,4.878099918E0,2.689136383E1
1.147030224E1,-3.669499874E0,-2.742679977E1,2.159600019E0,2.775533187E1
1.148030224E1,-7.439999580E0,-2.747179985E1,-4.878999889E-1,2.846561833E1
1.149030224E1,-1.059659958E1,-2.657189941E1,-1.894999981E0,2.866957945E1
1.150030224E1,-1.177929974E1,-2.513929939E1,-1.519199967E0,2.780367322E1
1.151030380E1,-1.088329983E1,-2.361590004E1,4.583999813E-1,2.600705828E1
1.152030224E1,-8.590199471E0,-2.223119926E1,2.912199974E0,2.401038643E1
1.153030224E1,-6.306799889E0,-2.106209946E1,5.347899914E0,2.262714723E1
1.154030224E1,-4.628200054E0,-2.000309944E1,7.248499870E0,2.177349245E1
1.155030224E1,-3.603899956E0,-1.911240005E1,8.601499557E0,2.126635195E1
1.156030849E1,-3.257099867E0,-1.850790024E1,9.168499947E0,2.090962606E1
1.157030224E1,-3.743599892E0,-1.828599930E1,8.561999321E0,2.053533888E1
1.158030224E1,-4.873099804E0,-1.820019913E1,7.239199638E0,2.018416115E1
1.159030224E1,-5.865999699E0,-1.805309868E1,5.610799789E0,1.979407484E1
1.160030224E1,-6.564699650E0,-1.799009895E1,3.894699812E0,1.954245707E1
1.161030380E1,-6.711999893E0,-1.793120003E1,2.201699972E0,1.927242485E1
1.162030224E1,-6.114299774E0,-1.750239944E1,6.789000034E-1,1.855207679E1
1.163030224E1,-5.119100094E0,-1.686149979E1,-4.314999878E-1,1.762672837E1
1.164030224E1,-4.093299866E0,-1.624510002E1,-8.878999949E-1,1.677637461E1
1.165030224E1,-3.068399906E0,-1.575339985E1,-9.865999818E-1,1.607974080E1
1.166031005E1,-2.293200016E0,-1.500629997E1,-7.859999537E-1,1.520084212E1
1.167030224E1,-1.711499929E0,-1.430019951E1,-6.401999593E-1,1.441647648E1
1.168030224E1,-1.441699982E0,-1.410939980E1,-9.964999557E-1,1.421782943E1
1.169030224E1,-1.458199978E0,-1.420149994E1,-1.642399907E0,1.437033142E1
1.170030224E1,-1.643299937E0,-1.411619949E1,-2.259299994E0,1.438999511E1
1.171030224E1,-1.513799906E0,-1.402659988E1,-3.041100025E0,1.443209561E1
1.172030224E1,-1.174600005E0,-1.379080009E1,-3.041399956E0,1.417095502E1
1.173030224E1,-2.465000004E-1,-1.344539928E1,-2.924000025E0,1.376187852E1
1.174030224E1,1.165199995E0,-1.342329979E1,-2.611399889E0,1.372450646E1
1.175030224E1,2.073899984E0,-1.404059982E1,-2.151999950E0,1.435515964E1
1.176030224E1,3.493199825E0,-1.556549931E1,-2.966799974E0,1.622618611E1
1.177030224E1,5.419600010E0,-1.671119881E1,-4.496799946E0,1.813442692E1
1.178030224E1,7.445299625E0,-1.657200050E1,-6.619999886E0,1.933618591E1
1.179030224E1,1.198250008E1,-1.315450001E1,-9.140699387E0,2.000433862E1
1.180030224E1,2.171389961E1,-3.564499855E0,-8.267099380E0,2.350625508E1
1.181030380E1,3.669630051E1,9.998999596E0,-3.586299896E0,3.820287961E1
1.182030224E1,5.683649826E1,1.817959976E1,5.557000041E-1,5.967574201E1
1.183030224E1,6.913779449E1,2.385700035E1,5.478099823E0,7.334303424E1
1.184030224E1,6.915480042E1,2.608779907E1,9.497599602E0,7.451955501E1
1.185030224E1,6.020689774E1,2.260359955E1,1.313350010E1,6.563750507E1
1.186030224E1,4.265399933E1,1.706669998E1,1.630329895E1,4.874867653E1
1.187030224E1,2.768569946E1,1.325179958E1,1.835000038E1,3.576074190E1
1.188030224E1,1.714229965E1,1.105350018E1,1.779279900E1,2.706699096E1
1.189030224E1,1.258769989E1,9.522500038E0,1.432219982E1,2.131322602E1
1.190030224E1,1.040639973E1,8.437600136E0,1.013159943E1,1.679689133E1
1.191030380E1,8.015299797E0,7.240499973E0,6.621199608E0,1.266926024E1
1.192030224E1,4.200099945E0,5.632899761E0,4.117199898E0,8.143815707E0
1.193030224E1,2.974999845E-1,3.892899990E0,2.662600040E0,4.725739683E0
1.194030224E1,-2.763000011E0,2.525099993E0,2.300299883E0,4.393367568E0
1.195030224E1,-4.788499832E0,1.699399948E0,2.690599918E0,5.749523350E0
1.196030224E1,-6.525099754E0,1.254199982E0,3.421899796E0,7.473910797E0
1.197030224E1,-8.442399979E0,6.595000029E-1,3.915199995E0,9.329407733E0
1.198030224E1,-1.065769958E1,-1.488000005E-1,4.275399685E0,1.148423895E1
1.199030224E1,-1.267280006E1,-7.724999785E-1,4.230299950E0,1.338252799E1
1.200030380E1,-1.408759975E1,-1.477699995E0,3.548499823E0,1.460259960E1
1.201030224E1,-1.503079987E1,-2.452100039E0,2.392299891E0,1.541625240E1
1.202030224E1,-1.572949982E1,-3.362399817E0,1.150900006E0,1.612598734E1
1.203030224E1,-1.617560005E1,-3.972999811E0,-1.674999893E-1,1.665721528E1
1.204030224E1,-1.610169983E1,-4.054199696E0,-1.530900002E0,1.667467923E1
1.205031474E1,-1.547969913E1,-3.793599844E0,-2.588999987E0,1.614668406E1
1.206030224E1,-1.435099983E1,-3.069799900E0,-3.184399843E0,1.501716584E1
1.207030224E1,-1.295029926E1,-2.131899834E0,-3.271899939E0,1.352629207E1
1.208030224E1,-1.138280010E1,-1.252499938E0,-2.853499889E0,1.180166750E1
1.209030224E1,-9.783599854E0,-6.013000011E-1,-1.944399953E0,9.993051534E0
1.210030849E1,-8.583600044E0,1.211999953E-1,-6.660999656E-1,8.610259481E0
1.211030224E1,-8.106999397E0,6.917999983E-1,3.883000016E-1,8.145723010E0
1.212030224E1,-8.492300034E0,9.760999680E-1,1.182799935E0,8.629655074E0
1.213030224E1,-9.337599754E0,1.126500010E0,1.943199992E0,9.603946983E0
1.214030224E1,-1.011320019E1,1.071699977E0,2.351099968E0,1.043805681E1
1.215031786E1,-1.061289978E1,8.455999494E-1,2.577899933E0,1.095418865E1
1.216030693E1,-1.037500000E1,4.499000013E-1,2.705499887E0,1.073139155E1
1.217030224E1,-9.507199287E0,4.118999839E-1,3.260399818E0,1.005916035E1
1.218030224E1,-8.774199486E0,6.060000062E-1,3.880599976E0,9.613161228E0
1.219030224E1,-8.244999886E0,9.206999540E-1,4.326900005E0,9.356803684E0
1.220031630E1,-7.850800037E0,1.301399946E0,4.568699837E0,9.176149587E0
1.221030224E1,-7.278800011E0,1.417899966E0,4.335000038E0,8.589737786E0
1.222030224E1,-6.382899761E0,1.711699963E0,3.647399902E0,7.548168796E0
1.223030224E1,-4.899199963E0,2.156399965E0,2.449100018E0,5.886451561E0
1.224030224E1,-3.475799799E0,2.759599924E0,1.089699984E0,4.569903942E0
1.225030693E1,-1.711099982E0,3.087999821E0,-5.302000046E-1,3.569974522E0
1.226030224E1,-1.943999976E-1,3.228399992E0,-1.125699997E0,3.424552285E0
1.227030224E1,4.676999748E-1,3.678200006E0,-1.474999934E-1,3.710748550E0
1.228030224E1,2.609999895E0,4.133100033E0,4.402000010E-1,4.907992601E0
1.229030224E1,7.801999569E0,5.174999714E0,1.922999918E-1,9.364229739E0
1.230031162E1,1.466209984E1,7.425499916E0,-1.410999894E-1,1.643578808E1
1.231030224E1,2.291670036E1,9.223099709E0,-2.182999998E-1,2.470401544E1
1.232030224E1,3.366510010E1,1.118319988E1,-1.381999999E-1,3.547424451E1
1.233030224E1,4.612109756E1,1.421070004E1,2.048799992E0,4.830421532E1
1.234030224E1,5.526759720E1,1.585039997E1,6.300499916E0,5.783976814E1
1.235030536E1,5.696089935E1,1.354459953E1,1.077759933E1,5.953282186E1
1.236030224E1,5.211879730E1,9.838999748E0,1.432389927E1,5.493950344E1
1.237030224E1,4.522079849E1,7.149099827E0,1.605839920E1,4.851703237E1
1.238030224E1,4.103680038E1,6.297299862E0,1.646549988E1,4.466304577E1
1.239030224E1,4.184779739E1,7.547799587E0,1.590549946E1,4.540035615E1
1.240031474E1,4.575049973E1,9.656899452E0,1.404329967E1,4.882190285E1
1.241030224E1,4.781719971E1,9.972199440E0,9.579099655E0,4.977638496E1
1.242030224E1,4.400099945E1,6.540999889E0,5.268300056E0,4.479539728E1
1.243030224E1,3.517070007E1,2.360000014E-1,1.684099913E0,3.521178826E1
1.244030224E1,2.446899986E1,-7.039999962E0,-1.403999925E0,2.550028960E1
1.245031162E1,1.449289989E1,-1.408979988E1,-4.935800076E0,2.080693948E1
1.246030224E1,6.217700005E0,-1.891390038E1,-6.933599949E0,2.108246259E1
1.247030224E1,-6.074999571E-1,-2.083619881E1,-6.015500069E0,2.169567879E1
1.248030224E1,-4.910399914E0,-2.135820007E1,-2.867399931E0,2.210218813E1
1.249030224E1,-6.592899799E0,-2.231499863E1,-3.729999810E-2,2.326858145E1
1.250031474E1,-6.488100052E0,-2.257209969E1,2.325299978E0,2.360089292E1
1.251030224E1,-5.514599800E0,-2.230859947E1,3.937399864E0,2.331496384E1
1.252030224E1,-4.032799721E0,-2.210770035E1,4.294199944E0,2.287911802E1
1.253030224E1,-2.787199974E0,-2.216090012E1,4.532399654E0,2.279071355E1
1.254030224E1,-2.239699841E0,-2.288939857E1,4.561800003E0,2.344676613E1
1.255031318E1,-2.894099951E0,-2.357320023E1,3.931399822E0,2.407337716E1
1.256030224E1,-4.167299747E0,-2.413969994E1,3.018499851E0,2.468203479E1
1.257030224E1,-5.944200039E0,-2.427509880E1,2.258499861E0,2.509411799E1
1.258030224E1,-8.249699593E0,-2.403489876E1,1.780499935E0,2.547359577E1
1.259030224E1,-1.028149986E1,-2.327190018E1,2.007699966E0,2.552099991E1
1.260030849E1,-1.136299992E1,-2.241989899E1,2.738600016E0,2.528378072E1
1.261030224E1,-1.107699966E1,-2.150160027E1,3.528199911E0,2.444313667E1
1.262030224E1,-9.744099617E0,-2.077689934E1,4.090600014E0,2.331008434E1
1.263030224E1,-8.102299690E0,-2.014309883E1,4.331299782E0,2.213937327E1
1.264030224E1,-6.727999687E0,-1.947869873E1,4.357399940E0,2.106353765E1
1.265030537E1,-5.688699722E0,-1.874959946E1,4.528899670E0,2.011018937E1
1.266030224E1,-5.108799934E0,-1.825419998E1,4.640599728E0,1.951539955E1
1.267030224E1,-4.746900082E0,-1.822249985E1,4.598700047E0,1.938402959E1
1.268030224E1,-5.139800072E0,-1.879649925E1,4.109899998E0,1.991525061E1
1.269030224E1,-6.005599976E0,-1.946899986E1,3.548599958E0,2.068095134E1
1.270030380E1,-7.166800022E0,-2.012240028E1,3.182999849E0,2.159642340E1
1.271030224E1,-8.605400085E0,-2.052939987E1,2.704200029E0,2.242368987E1
1.272030224E1,-9.862299919E0,-2.057929993E1,2.422600031E0,2.294867177E1
1.273030224E1,-1.037029934E1,-2.045299911E1,2.643399954E0,2.308367052E1
1.274030224E1,-1.027209949E1,-2.018470001E1,3.173399925E0,2.286938149E1
1.275030537E1,-9.656499863E0,-1.970960045E1,3.657699823E0,2.225073274E1
1.276030224E1,-8.696100235E0,-1.911179924E1,3.907899857E0,2.135777869E1
1.277030224E1,-7.404399872E0,-1.864279938E1,3.941299915E0,2.044291934E1
1.278030224E1,-5.953099728E0,-1.821249962E1,3.583799839E0,1.949302850E1
1.279030224E1,-4.327899933E0,-1.744799995E1,2.892299891E0,1.820793286E1
1.280030224E1,-3.224699974E0,-1.665679932E1,1.441299915E0,1.702718411E1
1.281030224E1,-2.952699900E0,-1.614959908E1,-4.075999856E-1,1.642236660E1
1.282030224E1,-3.235599995E0,-1.612870026E1,-1.995499969E0,1.657063968E1
1.283030224E1,-3.162499905E0,-1.604150009E1,-2.839599848E0,1.659501305E1
1.284030224E1,-2.591500044E0,-1.542879963E1,-3.219799995E0,1.597281573E1
1.285030224E1,-2.180399895E0,-1.431599998E1,-3.748600006E0,1.495840905E1
1.286030224E1,-1.911499977E0,-1.336539936E1,-4.239399910E0,1.415133364E1
1.287030224E1,-1.595899940E0,-1.325899982E1,-4.263000011E0,1.401859986E1
1.288030224E1,-6.513999701E-1,-1.385199928E1,-3.808099985E0,1.438067563E1
1.289030224E1,3.102499962E0,-1.199499989E1,-1.485299945E0,1.247844719E1
1.290030224E1,1.166449928E1,-6.497099876E0,1.375999928E0,1.342260132E1
1.291030224E1,2.464649963E1,1.401099920E0,2.232399940E0,2.478702553E1
1.292030224E1,4.094770050E1,7.711999893E0,1.513700008E0,4.169508852E1
1.293030224E1,5.868519974E1,1.105049992E1,2.494400024E0,5.976862261E1
1.294030224E1,6.475579834E1,1.134480000E1,4.692899704E0,6.590934086E1
1.295030224E1,5.712989807E1,1.071029949E1,6.803999901E0,5.852204870E1
1.296030224E1,4.628989792E1,1.017889977E1,9.092100143E0,4.826003455E1
1.297030224E1,3.743759918E1,9.225500107E0,1.187290001E1,4.034413761E1
1.298030224E1,3.307059860E1,7.859099865E0,1.351659966E1,3.658043752E1
1.299030224E1,2.871719933E1,7.212399960E0,1.430259991E1,3.288252749E1
1.300030224E1,2.222369957E1,6.895499706E0,1.310359955E1,2.670477598E1
1.301030224E1,1.580949974E1,6.299099922E0,9.372599602E0,1.942844732E1
1.302030224E1,1.051060009E1,5.882699966E0,4.859099865E0,1.298806085E1
1.303030224E1,6.803099632E0,5.645099640E0,9.736999869E-1,8.893672257E0
1.304031474E1,4.358799934E0,5.836400032E0,-1.934499979E0,7.536908675E0
1.305030224E1,3.057799816E0,6.059899807E0,-3.808699846E0,7.783233255E0
1.306030224E1,1.469599962E0,6.598299980E0,-4.934799671E0,8.369559993E0
1.307030224E1,-4.825999737E-1,7.025899887E0,-5.478600025E0,8.922512549E0
1.308030224E1,-2.575399876E0,6.975199699E0,-5.453700066E0,9.221113803E0
1.309031005E1,-4.192899704E0,6.804800034E0,-4.479000092E0,9.162267909E0
1.310030224E1,-5.307099819E0,6.288799763E0,-3.133399963E0,8.805254470E0
1.311030224E1,-6.262399673E0,5.617599964E0,-1.532199979E0,8.551182129E0
1.312030224E1,-7.227200031E0,5.186100006E0,-3.480000049E-2,8.895463147E0
1.313030380E1,-8.035599709E0,4.750400066E0,9.113000035E-1,9.379106096E0
1.314031630E1,-8.629499435E0,4.166399956E0,1.299000025E0,9.670292145E0
1.315030224E1,-9.115900040E0,3.706300020E0,1.429899931E0,9.943887931E0
1.316030224E1,-9.208899498E0,3.526000023E0,9.848999977E-1,9.909920995E0
1.317030224E1,-9.005099297E0,3.482999802E0,-2.259999886E-2,9.655237528E0
1.318030224E1,-8.386499405E0,3.588199854E0,-6.304999590E-1,9.143636074E0
1.319030849E1,-7.784599781E0,3.888099909E0,-5.194999576E-1,8.717063431E0
1.320030224E1,-7.356999874E0,4.259399891E0,1.127000004E-1,8.501801919E0
1.321030224E1,-6.977599621E0,4.652699947E0,8.955999613E-1,8.434252341E0
1.322030224E1,-6.786200047E0,4.939399719E0,1.418200016E0,8.512430437E0
1.323030224E1,-7.168299675E0,4.813799858E0,1.591399908E0,8.780076479E0
1.324030537E1,-7.831899643E0,4.486799717E0,1.378899932E0,9.130793434E0
1.325030224E1,-9.012100220E0,4.088299751E0,9.339999557E-1,9.940045329E0
1.326030224E1,-1.004979992E1,3.804699898E0,2.189999968E-1,1.074812452E1
1.327030224E1,-1.090289974E1,3.637699842E0,-4.029999971E-1,1.150080397E1
1.328030224E1,-1.149090004E1,3.293299913E0,-8.349999785E-1,1.198264716E1
1.329030536E1,-1.160559940E1,2.859499931E0,-1.021899939E0,1.199628930E1
1.330030224E1,-1.102009964E1,2.951799870E0,-5.638999939E-1,1.142250856E1
1.331030224E1,-1.044059944E1,3.424000025E0,3.099999856E-3,1.098771598E1
1.332030224E1,-1.000640011E1,3.778100014E0,7.296999693E-1,1.072075300E1
1.333030224E1,-9.584099770E0,3.864199877E0,1.925799966E0,1.051169418E1
1.334031630E1,-9.490399361E0,3.573099852E0,3.424700022E0,1.070342435E1
1.335030224E1,-8.912199974E0,2.534899950E0,4.032199860E0,1.010503151E1
1.336030224E1,-7.877599716E0,1.633999944E0,4.219299793E0,9.084548632E0
1.337030224E1,-7.042099953E0,2.593999803E-1,4.107100010E0,8.156392008E0
1.338030224E1,-4.076900005E0,-4.954999983E-1,3.324399948E0,5.283774117E0
1.339030380E1,7.762999535E-1,-6.067999601E-1,1.832599998E0,2.080689924E0
1.340030224E1,9.696299553E0,2.229999937E-2,5.532000065E-1,9.712093109E0
1.341030224E1,2.177190018E1,3.247900009E0,8.072999716E-1,2.202762413E1
1.342030224E1,3.455049896E1,8.531700134E0,4.745999813E0,3.590336196E1
1.343030224E1,4.894429779E1,1.576639938E1,1.193900013E1,5.278885640E1
1.344030849E1,6.098069763E1,2.172939873E1,1.766950035E1,6.710457134E1
1.345030224E1,6.664900208E1,2.131620026E1,1.971399879E1,7.269877316E1
1.346030224E1,6.501689911E1,1.581329918E1,1.771360016E1,6.921726108E1
1.347030224E1,5.964419937E1,1.224310017E1,1.270779991E1,6.219977652E1
1.348030224E1,5.483839798E1,1.108629990E1,7.691899776E0,5.647407600E1
1.349030693E1,5.353189850E1,9.707799911E0,6.584799767E0,5.480205401E1
1.350030224E1,5.324639893E1,5.782799721E0,7.709099770E0,5.411145896E1
1.351030224E1,4.921959686E1,-4.219999909E-2,7.752899647E0,4.982647839E1
1.352030224E1,4.051670074E1,-7.240399837E0,6.547599792E0,4.167610217E1
1.353030224E1,2.914469910E1,-1.465909958E1,4.372699738E0,3.291539441E1
1.354030380E1,1.773530006E1,-2.053349876E1,2.444200039E0,2.724223841E1
1.355030224E1,8.523699760E0,-2.242560005E1,2.000999928E0,2.407415618E1
1.356030224E1,2.232899904E0,-2.408599854E1,2.613999844E0,2.433010815E1
1.357030224E1,-1.784099936E0,-2.587979889E1,3.501399994E0,2.617645517E1
1.358030224E1,-4.700500011E0,-2.671069908E1,4.644400120E0,2.751593353E1
1.359031318E1,-6.738599777E0,-2.684249878E1,6.543900013E0,2.843854945E1
1.360030224E1,-6.906899929E0,-2.666529846E1,8.122799873E0,2.871799586E1
1.361030224E1,-4.695499897E0,-2.590059853E1,8.998799324E0,2.781846711E1
1.362030224E1,-2.301100016E0,-2.486009979E1,8.232799530E0,2.628875446E1
1.363030224E1,-1.250499964E0,-2.416279984E1,5.057499886E0,2.471806932E1
1.364030380E1,-1.296899915E0,-2.338500023E1,1.150200009E0,2.344916086E1
1.365030224E1,-1.600999951E0,-2.233609962E1,-3.198400021E0,2.262066113E1
1.366030224E1,-1.763299942E0,-2.099269867E1,-6.246699810E0,2.197325380E1
1.367030224E1,-2.193899870E0,-1.978240013E1,-7.941799641E0,2.142962279E1
1.368030224E1,-2.968400002E0,-1.867840004E1,-7.754699707E0,2.044087557E1
1.369030536E1,-3.708400011E0,-1.786599922E1,-5.997699738E0,1.920725282E1
1.370030224E1,-4.019799709E0,-1.738809967E1,-3.702799797E0,1.822678047E1
1.371030224E1,-4.115200043E0,-1.690989876E1,-1.471499920E0,1.746553347E1
1.372030224E1,-4.201099873E0,-1.650749969E1,3.278000057E-1,1.703684945E1
1.373030224E1,-4.284999847E0,-1.616829872E1,1.984799981E0,1.684382790E1
1.374030224E1,-4.363399982E0,-1.589919949E1,3.702899933E0,1.689778896E1
1.375030224E1,-4.276499748E0,-1.589330006E1,4.831299782E0,1.715304330E1
1.376030224E1,-4.188799858E0,-1.626669884E1,5.072700024E0,1.754661850E1
1.377030224E1,-4.469999790E0,-1.692160034E1,4.388499737E0,1.804384621E1
1.378030224E1,-5.227699757E0,-1.752509880E1,3.174700022E0,1.856169855E1
1.379030224E1,-6.271199703E0,-1.827350044E1,1.780499935E0,1.940151912E1
1.380030224E1,-7.335700035E0,-1.883460045E1,5.900999904E-1,2.022134731E1
1.381030224E1,-8.008399963E0,-1.894579887E1,-3.445000052E-1,2.057173899E1
1.382030224E1,-8.000599861E0,-1.875799942E1,-7.831000090E-1,2.040797359E1
1.383031318E1,-7.283099651E0,-1.845100021E1,-6.261000037E-1,1.984628304E1
1.384030224E1,-6.303499699E0,-1.824409866E1,1.112999991E-1,1.930268458E1
1.385030224E1,-5.261300087E0,-1.816889954E1,1.114199996E0,1.894813000E1
1.386030224E1,-4.436299801E0,-1.823589897E1,1.863699913E0,1.886006746E1
1.387030224E1,-4.061999798E0,-1.825899887E1,2.239799976E0,1.883899111E1
1.388031162E1,-4.068999767E0,-1.828649902E1,2.447599888E0,1.889294977E1
1.389030224E1,-4.514800072E0,-1.842319870E1,2.707700014E0,1.916061871E1
1.390030224E1,-5.066400051E0,-1.835929871E1,2.904999971E0,1.926580606E1
1.391030224E1,-5.187299728E0,-1.807819939E1,3.005899906E0,1.904638564E1
1.392030224E1,-4.456999779E0,-1.792669868E1,3.302999973E0,1.876542516E1
1.393030849E1,-3.178599834E0,-1.793999863E1,3.546000004E0,1.856128130E1
1.394030224E1,-2.307899952E0,-1.798169899E1,2.924199820E0,1.836351942E1
1.395030224E1,-1.865700006E0,-1.816390038E1,1.480000019E0,1.831934806E1
1.396030224E1,-1.591799974E0,-1.871579933E1,3.029999882E-2,1.878339399E1
1.397030224E1,-1.458499908E0,-1.979509926E1,-1.545499921E0,1.990883589E1
1.398031630E1,-1.895999908E0,-2.176259995E1,-2.572299957E0,2.199596097E1
1.399030224E1,-8.895999789E-1,-2.253329849E1,-1.706499934E0,2.261532823E1
1.400030224E1,4.483599663E0,-1.950189972E1,1.919499993E0,2.010251822E1
1.401030224E1,1.563719940E1,-1.311059952E1,5.671099663E0,2.117949943E1
1.402030224E1,3.345549774E1,-4.467000008E0,5.436299801E0,3.418739203E1
1.403030380E1,5.216699982E1,6.291800022E0,1.565799952E0,5.256837782E1
1.404030224E1,6.181900024E1,1.792009926E1,-1.381199956E0,6.437877338E1
1.405030224E1,6.024779892E1,2.216429901E1,-2.034399986E0,6.422765922E1
1.406030224E1,5.523649979E1,2.128050041E1,3.746999979E0,5.931248279E1
1.407030224E1,4.743930054E1,1.966349983E1,1.258819962E1,5.287346433E1
1.408031162E1,3.754369736E1,1.813379860E1,1.703389931E1,4.503906736E1
1.409030224E1,2.902209854E1,1.669439888E1,1.685599899E1,3.748479505E1
1.410030224E1,2.344839859E1,1.513259983E1,1.304010010E1,3.080368784E1
1.411030224E1,1.959869957E1,1.348649979E1,6.919799805E0,2.477656818E1
1.412030224E1,1.574909973E1,1.203509998E1,1.091199994E0,1.985115844E1
1.413030849E1,1.171879959E1,1.060809994E1,-3.820699930E0,1.626221990E1
1.414030224E1,7.951699734E0,9.566699982E0,-6.850699902E0,1.420152690E1
1.415030224E1,4.878200054E0,8.953199387E0,-7.840199947E0,1.286177866E1
1.416030224E1,1.593599916E0,7.948899746E0,-6.767399788E0,1.056041040E1
1.417030224E1,-1.718199968E0,6.363499641E0,-4.018099785E0,7.719550809E0
1.418031005E1,-4.786200047E0,4.958799839E0,-8.190000057E-2,6.892322855E0
1.419030224E1,-7.368199825E0,3.903100014E0,4.044499874E0,9.267283184E0
1.420030224E1,-9.731399536E0,3.041999817E0,7.795499802E0,1.283447377E1
1.421030224E1,-1.107289982E1,2.424199820E0,1.013439941E1,1.520499611E1
1.422030224E1,-1.156019974E1,1.791999936E0,1.045819950E1,1.569150785E1
1.423030693E1,-1.185009956E1,1.067299962E0,8.471799850E0,1.460600498E1
1.424030224E1,-1.219759941E1,6.592000127E-1,5.688799858E0,1.347510371E1
1.425030224E1,-1.214199924E1,5.286999941E-1,2.428699970E0,1.239379897E1
1.426030224E1,-1.146780014E1,6.104999781E-1,-3.328000009E-1,1.148886009E1
1.427030224E1,-1.036110020E1,9.339999557E-1,-2.506999969E0,1.070092529E1
1.428031005E1,-9.468699455E0,1.355299950E0,-4.007100105E0,1.037062961E1
1.429030224E1,-8.839699745E0,1.631399989E0,-4.972499847E0,1.027265848E1
1.430030224E1,-8.464399338E0,1.974199891E0,-5.093899727E0,1.007429083E1
1.431030224E1,-8.362400055E0,2.305199862E0,-4.474899769E0,9.760553725E0
1.432030224E1,-8.327899933E0,2.528300047E0,-3.249099970E0,9.289933748E0
1.433030380E1,-8.419599533E0,2.637399912E0,-1.797799945E0,9.004311147E0
1.434030224E1,-8.088399887E0,2.879599810E0,-6.258999705E-1,8.608487589E0
1.435030224E1,-7.834799767E0,3.144999981E0,6.599999964E-2,8.442716877E0
1.436030224E1,-7.600800037E0,3.330799818E0,3.407000005E-1,8.305568321E0
1.437030224E1,-6.994799614E0,3.600799799E0,2.168999910E-1,7.870198628E0
1.438031318E1,-6.635299683E0,3.972299814E0,1.674000025E-1,7.735269255E0
1.439030224E1,-6.572099686E0,4.158299923E0,3.480000049E-2,7.777220813E0
1.440030224E1,-6.746500015E0,4.387199879E0,2.210000008E-1,8.050566827E0
1.441030224E1,-7.010999680E0,4.508500099E0,1.355000019E0,8.444922421E0
1.442030224E1,-7.139199734E0,4.596899986E0,2.471299887E0,8.843471346E0
1.443030380E1,-6.718400002E0,4.822099686E0,2.969099998E0,8.786643202E0
1.444030224E1,-4.895400047E0,5.025000095E0,2.343799829E0,7.396550900E0
1.445030224E1,-2.346699953E0,6.195399761E0,1.691699982E0,6.837530819E0
1.446030224E1,5.442000031E-1,7.333600044E0,5.162999630E-1,7.371866039E0
1.447030224E1,3.078699827E0,7.897899628E0,-1.009999961E-2,8.476751333E0
1.448030380E1,3.950500011E0,7.527899742E0,1.043499947E0,8.565314764E0
1.449030224E1,4.818200111E0,6.407000065E0,2.750000000E0,8.475093046E0
1.450030224E1,8.068900108E0,4.577300072E0,4.513299942E0,1.031642871E1
1.451030224E1,1.260899925E1,3.846999884E0,6.256000042E0,1.459190895E1
1.452030224E1,1.975639915E1,4.774300098E0,5.787199974E0,2.113293478E1
1.453031005E1,3.079869843E1,7.756199837E0,2.116899967E0,3.183079839E1
1.454030224E1,4.139979935E1,1.164219952E1,-3.117699862E0,4.311849079E1
1.455030224E1,4.928059769E1,1.384859943E1,-8.321199417E0,5.186138616E1
1.456030224E1,5.551020050E1,1.443680000E1,-9.884499550E0,5.820229278E1
1.457030224E1,5.696679688E1,1.087609959E1,-7.174399853E0,5.843780884E1
1.458030537E1,5.345940018E1,4.926099777E0,-1.833699942E0,5.371718889E1
1.459030224E1,4.619540024E1,5.838999748E-1,4.189799786E0,4.638868789E1
1.460030224E1,3.820940018E1,-1.276499987E0,6.934199810E0,3.885448290E1
1.461030224E1,3.226309967E1,-1.086099982E0,6.623299599E0,3.295383606E1
1.462030224E1,2.888979912E1,-1.452600002E0,4.131799698E0,2.921989577E1
1.463030224E1,2.503819847E1,-3.162899971E0,1.992399931E0,2.531570612E1
1.464030224E1,1.961330032E1,-5.688299656E0,4.074999988E-1,2.042558099E1
1.465030224E1,1.373369980E1,-7.815999985E0,-9.138999581E-1,1.582844209E1
1.466030224E1,7.715999603E0,-9.738200188E0,-2.230799913E0,1.262321912E1
1.467030224E1,3.028800011E0,-1.124499989E1,-2.178699970E0,1.184780087E1
1.468031630E1,3.467999995E-1,-1.248569965E1,-1.250499964E0,1.255295647E1
1.469030224E1,-7.209999561E-1,-1.376999950E1,-2.699999809E-1,1.379150562E1
1.470030224E1,-1.557500005E0,-1.543470001E1,4.763999879E-1,1.552039715E1
1.471030224E1,-2.746599913E0,-1.711240005E1,1.432099938E0,1.739048467E1
1.472030224E1,-3.671599865E0,-1.856519890E1,3.073299885E0,1.917270007E1
1.473030224E1,-3.845399857E0,-2.048620033E1,4.627299786E0,2.135142636E1
1.474030224E1,-4.187599659E0,-2.226910019E1,5.494400024E0,2.331602980E1
1.475030224E1,-6.047299862E0,-2.398390007E1,5.604399681E0,2.536151797E1
1.476030224E1,-9.165399551E0,-2.525119972E1,4.913399696E0,2.730877392E1
1.477031162E1,-1.198250008E1,-2.531270027E1,4.447199821E0,2.835649290E1
1.478030224E1,-1.292280006E1,-2.498119926E1,4.127099991E0,2.842695961E1
1.479030224E1,-1.262829971E1,-2.488749886E1,3.257200003E0,2.809752489E1
1.480030224E1,-1.236769962E1,-2.463239861E1,2.043999910E0,2.763861412E1
1.481030224E1,-1.211439991E1,-2.355270004E1,1.218999982E0,2.651366300E1
1.482030224E1,-1.132739925E1,-2.232849884E1,6.757999659E-1,2.504652750E1
1.483030224E1,-1.037949944E1,-2.119999886E1,8.407999873E-1,2.361950263E1
1.484030224E1,-9.375999451E0,-2.008079910E1,1.843799949E0,2.223842298E1
1.485030224E1,-8.342800140E0,-1.909249878E1,3.171299934E0,2.107564868E1
1.486030224E1,-7.655900002E0,-1.820400047E1,4.171099663E0,2.018406576E1
1.487031474E1,-7.211199760E0,-1.733409882E1,4.777400017E0,1.937255622E1
1.488030224E1,-6.857399940E0,-1.643980026E1,5.246799946E0,1.856932622E1
1.489030224E1,-6.494199753E0,-1.578199959E1,5.509599686E0,1.793326044E1
1.490030224E1,-6.090300083E0,-1.520109940E1,5.758199692E0,1.735863018E1
1.491030224E1,-5.622900009E0,-1.468499947E1,6.077499866E0,1.685829821E1
1.492030380E1,-5.257499695E0,-1.422219944E1,6.578999996E0,1.652862671E1
1.493030224E1,-4.690899849E0,-1.371319962E1,7.155999660E0,1.616368511E1
1.494030224E1,-4.088799953E0,-1.325519943E1,7.692299843E0,1.586159115E1
1.495030224E1,-3.624899864E0,-1.290769958E1,8.031000137E0,1.562835791E1
1.496030224E1,-3.543699980E0,-1.280859947E1,7.630099773E0,1.532437446E1
1.497031318E1,-3.668699980E0,-1.285199928E1,6.806200027E0,1.499858673E1
1.498030224E1,-4.108299732E0,-1.323579979E1,5.746699810E0,1.500296909E1
1.499030224E1,-4.500299931E0,-1.385219955E1,5.004600048E0,1.540071926E1
1.500030224E1,-4.502199650E0,-1.441259956E1,4.427799702E0,1.573525462E1
1.501030224E1,-4.583399773E0,-1.480359936E1,4.215899944E0,1.606013449E1
1.502030849E1,-4.630399704E0,-1.545419979E1,3.738199949E0,1.656040553E1
1.503030224E1,-5.419300079E0,-1.730699921E1,2.420899868E0,1.829649669E1
1.504030224E1,-7.687599659E0,-2.000819969E1,1.398199916E0,2.147980927E1
1.505030224E1,-1.007310009E1,-2.318659973E1,1.183699965E0,2.530784262E1
1.506030224E1,-1.042239952E1,-2.595539856E1,-3.269999847E-2,2.796980864E1
1.507030380E1,-6.884500027E0,-2.645079994E1,-1.716699958E0,2.738591275E1
1.508030224E1,1.513700008E0,-2.306959915E1,-3.998299837E0,2.346239745E1
1.509030224E1,1.318799973E1,-1.717309952E1,-7.295799732E0,2.284879379E1
1.510030224E1,2.825479889E1,-9.381699562E0,-9.841799736E0,3.135619507E1
1.511030224E1,5.125439835E1,1.309599996E0,-9.590999603E0,5.216048001E1
1.512031318E1,6.848909760E1,1.267519951E1,-6.426699638E0,6.994797810E1
1.513030224E1,6.916199493E1,1.939620018E1,-4.320600033E0,7.196013973E1
1.514030224E1,6.404309845E1,1.744949913E1,-8.208999634E-1,6.638280919E1
1.515030224E1,4.776419830E1,1.203329945E1,4.990999699E0,4.950887812E1
1.516030224E1,3.230450058E1,8.849599838E0,1.225999928E1,3.566796542E1
1.517031474E1,2.393339920E1,7.596699715E0,1.554889965E1,2.953448365E1
1.518030224E1,2.214469910E1,6.385499954E0,1.117439938E1,2.561307301E1
1.519030224E1,2.038739967E1,6.724499702E0,4.993000031E0,2.204075795E1
1.520030224E1,1.612459946E1,7.027899742E0,-6.660999656E-1,1.760220928E1
1.521030224E1,9.977799416E0,5.793900013E0,-4.604300022E0,1.242277494E1
1.522030849E1,2.864300013E0,3.806699991E0,-5.415100098E0,7.212384381E0
1.523030224E1,-2.635200024E0,2.073099852E0,-2.819700003E0,4.380950840E0
1.524030224E1,-4.779599667E0,1.338500023E0,1.530099988E0,5.193973552E0
1.525030224E1,-5.144999981E0,1.531499982E0,6.378399849E0,8.336696086E0
1.526030224E1,-5.021199703E0,2.361599922E0,1.019689941E1,1.160889135E1
1.527031005E1,-4.836899757E0,3.341699839E0,1.226039982E1,1.359705706E1
1.528030224E1,-4.454499722E0,4.341700077E0,1.263939953E1,1.408713412E1
1.529030224E1,-3.218299866E0,5.675499916E0,1.082839966E1,1.264211187E1
1.530030224E1,-2.651700020E0,6.785399914E0,7.730899811E0,1.062261629E1
1.531030224E1,-3.604399920E0,6.796499729E0,4.073100090E0,8.704840705E0
1.532031318E1,-5.258199692E0,6.289299965E0,5.268999934E-1,8.214717381E0
1.533030224E1,-6.681799889E0,5.992699623E0,-1.858099937E0,9.165775139E0
1.534030224E1,-7.480999947E0,5.836400032E0,-3.206799984E0,1.001561240E1
1.535030224E1,-7.673299789E0,5.734999657E0,-3.661899805E0,1.025569407E1
1.536030224E1,-7.749300003E0,5.277599812E0,-3.781799793E0,1.010973392E1
1.537030380E1,-7.856599808E0,4.807199955E0,-3.567299843E0,9.877295182E0
1.538030224E1,-7.807499886E0,4.517099857E0,-3.113699913E0,9.542346291E0
1.539030224E1,-7.619599819E0,4.542699814E0,-2.356899977E0,9.178747219E0
1.540030224E1,-7.214099884E0,4.759999752E0,-1.279799938E0,8.737203366E0
1.541030224E1,-6.797800064E0,5.107299805E0,-7.440000027E-2,8.502948451E0
1.542031318E1,-6.499899864E0,5.411699772E0,8.152999878E-1,8.497052826E0
1.543030224E1,-5.998499870E0,5.746699810E0,1.472999930E0,8.436604068E0
1.544030224E1,-5.579599857E0,6.028199673E0,1.933799982E0,8.438643744E0
1.545030224E1,-5.450999737E0,6.054899693E0,1.937199950E0,8.374243373E0
1.546030224E1,-5.525599957E0,5.892399788E0,1.587000012E0,8.232326474E0
1.547030224E1,-6.028199673E0,5.748699665E0,1.185899973E0,8.413863434E0
1.548030224E1,-6.309399605E0,5.630899906E0,9.000999928E-1,8.504453958E0
1.549030224E1,-4.875499725E0,6.294300079E0,1.275599957E0,8.063241675E0
1.550030224E1,-2.648099899E0,7.092199802E0,2.318399906E0,7.917493874E0
1.551030224E1,-6.304999590E-1,7.710399628E0,3.562899828E0,8.517161957E0
1.552030536E1,2.037499905E0,8.433400154E0,4.358799934E0,9.709417124E0
1.553030224E1,4.107800007E0,8.376099586E0,4.601200104E0,1.040212034E1
1.554030224E1,6.448099613E0,7.303299904E0,4.295000076E0,1.064721578E1
1.555030224E1,9.108399391E0,5.847099781E0,3.046999931E0,1.124436409E1
1.556030224E1,1.281680012E1,4.514400005E0,9.560999870E-1,1.362219879E1
1.557030224E1,1.859779930E1,3.899599791E0,-1.326599956E0,1.904848773E1
1.558030224E1,2.563920021E1,4.458799839E0,-3.550699949E0,2.626512809E1
1.559030224E1,3.391619873E1,6.210099697E0,-4.995800018E0,3.484009030E1
1.560030224E1,3.867689896E1,8.000100136E0,-4.553999901E0,3.975730160E1
1.561030224E1,3.816139984E1,7.134199619E0,-4.386399746E0,3.906955010E1
1.562030224E1,3.397269821E1,5.875899792E0,-7.044000030E-1,3.448429500E1
1.563030224E1,3.099349976E1,7.230599880E0,6.014199734E0,3.238902901E1
1.564030224E1,3.255189896E1,1.058370018E1,1.088289928E1,3.591766045E1
1.565030224E1,3.591659927E1,1.398279953E1,1.306309986E1,4.069601165E1
1.566031474E1,3.890530014E1,1.657309914E1,1.539929962E1,4.500476000E1
1.567030224E1,4.196579742E1,1.635490036E1,1.708629990E1,4.817211396E1
1.568030224E1,4.230259705E1,1.236229992E1,1.540199947E1,4.668573405E1
1.569030224E1,3.804980087E1,5.998499870E0,1.093029976E1,4.004048951E1
1.570030224E1,2.990810013E1,-1.400299907E0,4.811399937E0,3.032498743E1
1.571031005E1,2.110779953E1,-7.307699680E0,-4.522999823E-1,2.234158121E1
1.572030224E1,1.450489998E1,-1.145559978E1,-3.343899965E0,1.878309231E1
1.573030224E1,9.777099609E0,-1.446539974E1,-3.580499887E0,1.782300328E1
1.574030224E1,5.718999863E0,-1.695870018E1,-2.005599976E0,1.800907834E1
1.575030224E1,3.076499939E0,-1.869169998E1,-7.599999756E-2,1.894334385E1
1.576031162E1,2.445400000E0,-1.927339935E1,2.165999889E0,1.954828533E1
1.577030224E1,3.276299953E0,-2.000129890E1,5.212500095E0,2.092740444E1
1.578030224E1,4.917200089E0,-2.076989937E1,8.026399612E0,2.280330387E1
1.579030224E1,5.784299850E0,-2.206320000E1,9.550199509E0,2.472749946E1
1.580030224E1,4.498799801E0,-2.432919884E1,8.419799805E0,2.613507498E1
1.581030849E1,1.447499990E0,-2.595739937E1,5.902400017E0,2.665933540E1
1.582030224E1,-2.121299982E0,-2.669069862E1,3.614699841E0,2.701776011E1
1.583030224E1,-4.316499710E0,-2.671589851E1,1.854799986E0,2.712584904E1
1.584030224E1,-5.014699936E0,-2.546609879E1,1.206599951E0,2.598317314E1
1.585030224E1,-3.849599838E0,-2.396139908E1,1.532400012E0,2.431699641E1
1.586030849E1,-1.895999908E0,-2.289309883E1,2.425999880E0,2.309922651E1
1.587030224E1,-4.323000014E-1,-2.192059898E1,3.524099827E0,2.220627890E1
1.588030224E1,1.399999950E-3,-2.159819984E1,4.432399750E0,2.204831980E1
1.589030224E1,-5.817999840E-1,-2.185729980E1,5.131700039E0,2.245917165E1
1.590030224E1,-1.624099970E0,-2.240149879E1,5.644499779E0,2.315869657E1
1.591030849E1,-2.899499893E0,-2.291449928E1,5.656399727E0,2.377974421E1
1.592030224E1,-4.321000099E0,-2.322779846E1,5.038499832E0,2.415756908E1
1.593030224E1,-6.181999683E0,-2.352799988E1,3.578399897E0,2.458838840E1
1.594030224E1,-7.699199677E0,-2.325790024E1,2.095599890E0,2.458859772E1
1.595030224E1,-8.063400269E0,-2.257799911E1,1.327099919E0,2.401136527E1
1.596031474E1,-7.440099716E0,-2.219789886E1,8.716999888E-1,2.342779671E1
1.597030224E1,-6.291399956E0,-2.190539932E1,7.098999619E-1,2.280202164E1
1.598030224E1,-5.185599804E0,-2.161540031E1,5.105000138E-1,2.223458087E1
1.599030224E1,-4.720099926E0,-2.160509872E1,1.887999922E-1,2.211549863E1
1.600030224E1,-5.152400017E0,-2.165069962E1,-5.200000014E-3,2.225533749E1
1.601031162E1,-5.866999626E0,-2.160659981E1,-5.769999698E-2,2.238906361E1
1.602030224E1,-5.999499798E0,-2.178619957E1,3.705999851E-1,2.260021756E1
1.603030224E1,-5.488999844E0,-2.206939888E1,1.288699985E0,2.277824036E1
1.604030224E1,-4.807600021E0,-2.284669876E1,1.688699961E0,2.340804071E1
1.605030224E1,-3.976599932E0,-2.365419960E1,1.906999946E0,2.406181944E1
1.606031005E1,-2.697000027E0,-2.416319847E1,2.266700029E0,2.441867930E1
1.607030224E1,-5.842999816E-1,-2.432390022E1,3.473799944E0,2.457764868E1
1.608030224E1,1.632200003E0,-2.384469986E1,4.993700027E0,2.441660968E1
1.609030224E1,3.364199877E0,-2.295649910E1,6.372599602E0,2.406093758E1
1.610030224E1,4.333499908E0,-2.232339859E1,6.602699757E0,2.367929454E1
1.611031162E1,4.318900108E0,-2.211120033E1,5.787799835E0,2.326062564E1
1.612030224E1,4.478300095E0,-2.031320000E1,5.108200073E0,2.141903298E1
1.613030224E1,6.375599861E0,-1.656900024E1,4.246099949E0,1.825402442E1
1.614030224E1,1.349309921E1,-1.068439960E1,2.568599939E0,1.740166161E1
1.615030224E1,2.509429932E1,-3.374099970E0,5.080000162E-1,2.532521417E1
1.616031162E1,3.966040039E1,4.124899864E0,-1.969899893E0,3.992295910E1
1.617030224E1,4.842029953E1,1.137370014E1,-2.303999901E0,4.979151411E1
1.618030224E1,4.850329971E1,1.779789925E1,1.083599925E0,5.167697253E1
1.619030224E1,4.403159714E1,2.013129997E1,4.715699673E0,4.864451262E1
1.620030224E1,3.936759949E1,1.920789909E1,5.703899860E0,4.417336019E1
1.621030536E1,3.579649734E1,1.865079880E1,3.907799959E0,4.055258831E1
1.622030224E1,3.375379944E1,1.720219994E1,1.763499975E0,3.792551373E1
1.623030224E1,3.162819862E1,1.481419945E1,8.065999746E-1,3.493499760E1
1.624030224E1,2.884119987E1,1.220949936E1,9.433999658E-1,3.133331595E1
1.625030224E1,2.540759850E1,9.926699638E0,1.890399933E0,2.734335457E1
1.626030693E1,2.100939941E1,8.536199570E0,2.921799898E0,2.286478693E1
1.627030224E1,1.475699997E1,6.827499866E0,3.717899799E0,1.667952582E1
1.628030224E1,7.446699619E0,4.772599697E0,4.240099907E0,9.808643653E0
1.629030224E1,8.513999581E-1,2.749599934E0,4.802999973E0,5.599463405E0
1.630030224E1,-4.401999950E0,1.055699944E0,5.485599995E0,7.112236866E0
1.631031162E1,-7.309899807E0,2.680000067E-1,6.320299625E0,9.667090904E0
1.632030224E1,-8.461099625E0,1.870999932E-1,7.209099770E0,1.111738876E1
1.633030224E1,-8.480099678E0,4.314000010E-1,7.518399715E0,1.134127554E1
1.634030224E1,-7.931799889E0,8.614999652E-1,7.197099686E0,1.074494651E1
1.635030224E1,-6.734699726E0,1.573699951E0,6.357800007E0,9.394377726E0
1.636030224E1,-4.131899834E0,2.899999857E0,4.702300072E0,6.898856526E0
1.637030224E1,-2.310699940E0,4.398200035E0,3.028699875E0,5.818635638E0
1.638030224E1,-2.216500044E0,5.109600067E0,1.367699981E0,5.735110158E0
1.639030224E1,-3.482999802E0,5.133599758E0,-4.360000044E-2,6.203791990E0
1.640030224E1,-5.338999748E0,4.917500019E0,-7.141999602E-1,7.293614079E0
1.641030224E1,-7.146999836E0,4.639299870E0,-9.633999467E-1,8.575013084E0
1.642030224E1,-8.434700012E0,4.534199715E0,-1.393100023E0,9.676975717E0
1.643030224E1,-9.357600212E0,4.732399940E0,-1.763999939E0,1.063353124E1
1.644030224E1,-9.590600014E0,5.201600075E0,-2.127899885E0,1.111594395E1
1.645030224E1,-8.877599716E0,6.112699986E0,-2.643800020E0,1.109804291E1
1.646030224E1,-7.120100021E0,7.160599709E0,-3.003599882E0,1.053525627E1
1.647030224E1,-4.858900070E0,8.512499809E0,-2.035199881E0,1.001067438E1
1.648030224E1,-3.020599842E0,9.571299553E0,-2.707000077E-1,1.004027276E1
1.649030224E1,-2.279700041E0,9.706799507E0,1.150499940E0,1.003706327E1
1.650030224E1,-3.073199987E0,9.142199516E0,1.935799956E0,9.837260372E0
1.651030224E1,-4.382100105E0,8.545999527E0,1.680199981E0,9.749870831E0
1.652030224E1,-5.917399883E0,8.043799400E0,5.324000120E-1,1.000008900E1
1.653030224E1,-6.438399792E0,7.897199631E0,-8.254999518E-1,1.022253413E1
1.654030224E1,-5.652199745E0,8.326899529E0,-2.363899946E0,1.033792245E1
1.655030224E1,-3.532500029E0,9.426300049E0,-2.177999973E0,1.029938702E1
1.656030224E1,-2.156800032E0,1.078649998E1,1.860000007E-2,1.100003246E1
1.657030224E1,-1.230099916E0,1.118069935E1,2.259599924E0,1.147288000E1
1.658030224E1,-8.922999501E-1,1.089799976E1,3.296499968E0,1.142057398E1
1.659030224E1,-9.266999960E-1,9.757699966E0,3.733599901E0,1.048862478E1
1.660030224E1,2.004999965E-1,9.035499573E0,4.036799908E0,9.898293099E0
1.661030537E1,1.826900005E0,7.786899567E0,5.213200092E0,9.547294051E0
1.662030224E1,4.760200024E0,7.285999775E0,8.029899597E0,1.184164619E1
1.663030224E1,9.750599861E0,9.158999443E0,1.071969986E1,1.714273705E1
1.664030224E1,1.905659866E1,1.414419937E1,1.166650009E1,2.644465074E1
1.665030224E1,3.169679832E1,2.065869904E1,1.185509968E1,3.964860979E1
1.666030224E1,4.764749908E1,2.758529854E1,1.134599972E1,5.621356219E1
1.667030224E1,6.111899948E1,2.898489952E1,1.065199947E1,6.847716109E1
1.668030224E1,6.689009857E1,2.347439957E1,1.121449947E1,7.177114824E1
1.669030224E1,6.405429840E1,1.691300011E1,1.293260002E1,6.750003600E1
1.670030224E1,5.856049728E1,1.286789989E1,1.440359974E1,6.166342818E1
1.671030224E1,5.574499893E1,1.038569927E1,1.474739933E1,5.859055762E1
