"Time (s)","Linear Acceleration x (m/s^2)","Linear Acceleration y (m/s^2)","Linear Acceleration z (m/s^2)","Absolute acceleration (m/s^2)"
3.713448000E-3,7.634999752E-1,5.289499760E0,7.808199883E0,9.462014866E0
1.371344800E-2,1.260000020E-1,6.042999625E-1,3.155999780E-1,6.932948805E-1
2.371188600E-2,-9.774999619E-1,1.193799973E0,1.880800009E0,2.432709030E0
3.372282300E-2,-2.303400040E0,3.131999969E-1,2.332200050E0,3.292856367E0
4.371344800E-2,-3.432099819E0,-1.626399994E0,2.246199846E0,4.412470947E0
5.371188600E-2,-3.869699955E0,-3.992599964E0,4.927499771E0,7.429379934E0
6.371188600E-2,-4.397699833E0,-6.335799694E0,8.200499535E0,1.125745594E1
7.371344800E-2,-5.665999889E0,-6.619199753E0,8.781499863E0,1.237061437E1
8.371344800E-2,-6.213999748E0,-4.286699772E0,6.111399651E0,9.712815941E0
9.371188600E-2,-6.317999840E0,-1.300099969E0,2.584499836E0,6.948886336E0
1.037118860E-1,-6.276700020E0,2.561499834E0,-1.602399945E0,6.966055564E0
1.137181360E-1,-6.162399769E0,5.381000042E0,-3.779799938E0,9.012059694E0
1.237134480E-1,-4.565000057E0,6.467599869E0,1.157799959E0,8.000598373E0
1.337134480E-1,-3.224299908E0,5.186899662E0,9.629699707E0,1.140312038E1
1.437134480E-1,-2.642999887E0,2.995299816E0,1.431559944E1,1.486249161E1
1.537134480E-1,-4.669999704E-2,2.129499912E0,1.271070004E1,1.288793413E1
1.637165730E-1,1.163599968E0,1.024699926E0,1.019679928E1,1.031400457E1
1.737134480E-1,9.490000010E-1,-7.531999946E-1,7.932399750E0,8.024392626E0
1.837134480E-1,6.313999891E-1,-2.335700035E0,6.008699894E0,6.477548534E0
1.937134480E-1,9.231999516E-1,-3.918200016E0,3.438599825E0,5.294200437E0
2.037134480E-1,1.989999890E0,-4.820699692E0,9.436999559E-1,5.299982518E0
2.137212610E-1,3.703799963E0,-4.752999783E0,-5.464999676E-1,6.050438274E0
2.237134480E-1,4.324699879E0,-4.244999886E0,-1.078299999E0,6.155142887E0
2.337134480E-1,4.587199688E0,-3.703899860E0,-1.256699920E0,6.028314013E0
2.437228230E-1,5.573999882E0,-2.681900024E0,-1.523299932E0,6.370439946E0
2.537134480E-1,6.284899712E0,-1.520299911E0,-1.369400024E0,6.609578854E0
2.637134480E-1,7.063599586E0,-1.018700004E0,-1.233199954E0,7.242442333E0
2.737134480E-1,7.316099644E0,-1.232399940E0,-1.642199993E0,7.598746240E0
2.837134480E-1,7.004299641E0,-1.727800012E0,-2.251299858E0,7.557371063E0
2.937134480E-1,7.418599606E0,-2.676699877E0,1.898499966E0,8.112006192E0
3.037134480E-1,8.003999710E0,-3.711999893E0,-2.552000046E0,9.184533674E0
3.137134480E-1,8.666899681E0,-4.373600006E0,-6.704199791E0,1.179787362E1
3.237134480E-1,8.736899376E0,-4.164899826E0,-9.353799820E0,1.346006584E1
3.337134480E-1,7.940899849E0,-3.661000013E0,-1.073829937E1,1.384817262E1
3.437134480E-1,6.655399799E0,-3.349399805E0,-9.988900185E0,1.246157905E1
3.537134480E-1,5.850299835E0,-2.255199909E0,-8.325399399E0,1.042229389E1
3.637134480E-1,5.556900024E0,-1.397400022E0,-6.954099655E0,9.010625212E0
3.737134480E-1,4.998300076E0,-1.057099938E0,-6.012399673E0,7.889829767E0
3.837134480E-1,4.284199715E0,-1.089200020E0,-5.434400082E0,7.005242903E0
3.937134480E-1,3.954799891E0,-1.150699973E0,-4.829199791E0,6.347103530E0
4.037196980E-1,3.307999849E0,-1.134099960E0,-3.926699877E0,5.258138230E0
4.137134480E-1,3.575699806E0,-1.153299928E0,-3.122699976E0,4.885384833E0
4.237134480E-1,4.147999763E0,-1.357900023E0,-2.447799921E0,5.004150174E0
4.337134480E-1,4.319600105E0,-1.823699951E0,-1.999499917E0,5.097335235E0
4.437134480E-1,3.976999998E0,-2.155999899E0,-1.712899923E0,4.837239987E0
4.537212610E-1,4.007499695E0,-1.984200001E0,-1.958499908E0,4.881887477E0
4.637134480E-1,4.059700012E0,-2.005300045E0,-2.676199913E0,5.259699462E0
4.737134480E-1,3.955599785E0,-2.314199924E0,-3.645200014E0,5.855747099E0
4.837134480E-1,3.871599913E0,-2.797499895E0,-4.400899887E0,6.494860381E0
4.937134480E-1,3.846999884E0,-3.586399794E0,-4.781499863E0,7.108052653E0
5.037134480E-1,3.869299889E0,-4.693799973E0,-5.009299755E0,7.880122071E0
5.137134480E-1,4.342899799E0,-5.753900051E0,-5.158499718E0,8.864438155E0
5.237134480E-1,4.923999786E0,-6.137599945E0,-4.274300098E0,8.954638369E0
5.337134480E-1,5.019899845E0,-6.063799858E0,-3.331599951E0,8.548018566E0
5.437134480E-1,5.053100109E0,-6.198299885E0,-3.605899811E0,8.772414469E0
5.537134480E-1,5.912899971E0,-5.959199905E0,-3.809199810E0,9.218701252E0
5.637134480E-1,6.723000050E0,-5.910500050E0,-4.238199711E0,9.904295901E0
5.737134480E-1,7.764599800E0,-5.760399818E0,-5.307899952E0,1.102928003E1
5.837134480E-1,8.260999680E0,-5.414899826E0,-6.926099777E0,1.206383496E1
5.937134480E-1,8.434499741E0,-4.889400005E0,-8.211899757E0,1.274685514E1
6.037134480E-1,8.399700165E0,-4.012799740E0,-9.153800011E0,1.305563400E1
6.137134480E-1,7.429999828E0,-2.698400021E0,-9.536600113E0,1.238680757E1
6.237571980E-1,6.300999641E0,-2.023099899E0,-9.970799446E0,1.196713714E1
6.337134480E-1,4.992300034E0,-2.313699961E0,-9.497900009E0,1.097662843E1
6.437134480E-1,3.984599829E0,-2.649099827E0,-8.447199821E0,9.708241371E0
6.537150110E-1,2.419899940E0,-4.203700066E0,-5.325500011E0,7.203329809E0
6.637134480E-1,1.700099945E0,-5.152299881E0,-1.344799995E0,5.589724583E0
6.737134480E-1,1.262699962E0,-6.328399658E0,1.353899956E0,6.593640763E0
6.837134480E-1,1.429999992E-2,-7.574999809E0,2.838399887E0,8.089334986E0
6.937134480E-1,-1.801399946E0,-8.592299461E0,4.014199734E0,9.653312970E0
7.037181360E-1,-4.492899895E0,-9.631599426E0,4.953499794E0,1.172565636E1
7.137134480E-1,-6.336999893E0,-9.357799530E0,5.894599915E0,1.274646178E1
7.237134480E-1,-6.189699650E0,-7.650899887E0,6.735399723E0,1.192536206E1
7.337134480E-1,-5.396999836E0,-6.084699631E0,6.459399700E0,1.038629006E1
7.437134480E-1,-4.584700108E0,-4.369699955E0,4.796099663E0,7.944578324E0
7.537134480E-1,-4.917200089E0,-2.552000046E0,2.885599852E0,6.246458793E0
7.637134480E-1,-4.909800053E0,-6.723999977E-1,7.548999786E-1,5.012796853E0
7.737134480E-1,-4.216000080E0,1.433399916E0,-7.953999639E-1,4.523489040E0
7.837165730E-1,-3.104399920E0,2.965499878E0,-1.506999969E0,4.550004098E0
7.937134480E-1,-2.293799877E0,3.804199934E0,1.939299941E0,4.847095963E0
8.037134480E-1,-1.844499946E0,3.833899975E0,4.100999832E0,5.909244342E0
8.137134480E-1,-1.088099957E0,3.824699879E0,4.253999710E0,5.823126670E0
8.237134480E-1,-1.088199973E0,3.304299831E0,5.761699677E0,6.730509618E0
8.337134480E-1,-1.154299974E0,4.053100109E0,3.737900019E0,5.633109752E0
8.437134480E-1,-5.364999771E-1,4.012099743E0,4.330100060E0,5.927439843E0
8.537134480E-1,6.667000055E-1,4.380300045E0,3.119999886E0,5.419032817E0
8.637134480E-1,1.229099989E0,4.378399849E0,3.518499851E0,5.749862018E0
8.737134480E-1,9.107999802E-1,4.590799809E0,3.638700008E0,5.928333428E0
8.837181360E-1,3.599999845E-2,4.289299965E0,4.581599712E0,6.276180854E0
8.937134480E-1,-5.338999629E-1,4.024499893E0,5.597099781E0,6.914417873E0
9.037134480E-1,-1.657400012E0,4.087199688E0,5.907999992E0,7.372695572E0
9.137134480E-1,-3.030299902E0,4.600299835E0,5.988100052E0,8.136511433E0
9.237134480E-1,-3.353799820E0,5.439199924E0,5.643099785E0,8.525106699E0
9.337243860E-1,-2.831599951E0,6.379799843E0,6.087599754E0,9.261677768E0
9.437134480E-1,-2.202999830E0,7.043799877E0,6.612899780E0,9.909529175E0
9.537134480E-1,-2.389999866E0,7.292500019E0,6.141799927E0,9.829260513E0
9.637134480E-1,-2.447399855E0,7.168099880E0,5.170599937E0,9.170961000E0
9.737134480E-1,-1.567299962E0,7.267899990E0,4.323699951E0,8.600766286E0
9.837181360E-1,-7.392999530E-1,7.031599998E0,3.267199993E0,7.788745647E0
9.937134480E-1,-1.001199961E0,5.888700008E0,1.846699953E0,6.252158817E0
1.003713448E0,-1.245800018E0,3.944999933E0,-5.529999733E-2,4.137402597E0
1.013713448E0,-5.115000010E-1,1.235199928E0,-1.336499929E0,1.890392334E0
1.023713448E0,1.440299988E0,-1.978199959E0,-4.015100002E0,4.701996083E0
1.033713448E0,2.131000042E0,-6.187999725E0,-1.045419979E1,1.233380700E1
1.043713448E0,2.218299866E0,-1.207329941E1,-1.842230034E1,2.213744707E1
1.053713448E0,3.531399965E0,-1.697710037E1,-1.929649925E1,2.594316107E1
1.063713448E0,4.270899773E0,-1.894089890E1,-1.423289967E1,2.407433631E1
1.073713448E0,4.576499939E0,-1.542039967E1,-8.958099365E0,1.841142639E1
1.083713448E0,3.330499887E0,-9.467599869E0,-5.196700096E0,1.130191880E1
1.093713448E0,2.726099968E0,-4.484899998E0,-2.229300022E0,5.702256362E0
1.103713448E0,2.144899845E0,-8.874999881E-1,-4.131000042E-1,2.357732637E0
1.113713448E0,7.274000049E-1,1.878999949E0,-2.884999812E-1,2.035432095E0
1.123713448E0,-6.656000018E-1,3.237499952E0,4.687999785E-1,3.338293385E0
1.133713448E0,-1.653899908E0,2.626799822E0,2.116199970E0,3.756829052E0
1.143713448E0,-2.770599842E0,9.279999882E-2,2.406699896E0,3.671108785E0
1.153713448E0,-2.831599951E0,-3.341899872E0,5.327399731E0,6.896915320E0
1.163713448E0,-3.417299986E0,-6.740299702E0,8.831099510E0,1.162316213E1
1.173718136E0,-5.655600071E0,-7.754399776E0,9.376199722E0,1.341751278E1
1.183713448E0,-6.097099781E0,-5.006499767E0,6.613999844E0,1.029488512E1
1.193713448E0,-6.185899734E0,-1.341099977E0,5.101099968E0,8.129275832E0
1.203713448E0,-6.429499626E0,1.534699917E0,3.109299898E0,7.304896655E0
1.213713448E0,-7.523599625E0,4.495299816E0,-3.134999990E0,9.308087703E0
1.223725948E0,-6.897599697E0,6.811100006E0,-5.228799820E0,1.101400529E1
1.233713448E0,-5.491899967E0,6.223999977E0,4.514499664E0,9.448801415E0
1.243713448E0,-4.906199932E0,4.066999912E0,1.089429951E1,1.262129343E1
1.253713448E0,-4.507100105E0,2.506099939E0,1.141879940E1,1.252930437E1
1.263713448E0,-4.359299660E0,1.628399968E0,1.093589973E1,1.188482574E1
1.273713448E0,-3.525899887E0,4.238999784E-1,9.444399834E0,1.009001236E1
1.283713448E0,-3.201900005E0,-7.093999982E-1,7.230399609E0,7.939401143E0
1.293713448E0,-2.359299898E0,-1.452899933E0,5.312299728E0,5.991472493E0
1.303716573E0,-1.475199938E0,-1.612399936E0,3.743799925E0,4.334984001E0
1.313713448E0,-4.205999970E-1,-1.463199973E0,2.477900028E0,2.908237794E0
1.323713448E0,-5.236999989E-1,-9.745000005E-1,2.255800009E0,2.512477984E0
1.333713448E0,-8.974999785E-1,-3.815999925E-1,2.383199930E0,2.575027509E0
1.343713448E0,-2.300999910E-1,6.760999560E-1,2.287699938E0,2.396586773E0
1.353713448E0,1.084200025E0,1.688899994E0,1.920599937E0,2.777872748E0
1.363713448E0,1.812399983E0,2.189100027E0,1.980199933E0,3.463833772E0
1.373713448E0,2.054399967E0,2.209599972E0,1.819599986E0,3.523327315E0
1.383713448E0,2.090800047E0,9.379999638E-1,1.402099967E0,2.686479683E0
1.393713448E0,2.747099876E0,-1.815000027E-1,1.035300016E0,2.941317070E0
1.403716573E0,3.764899969E0,-9.266999960E-1,-3.877999783E-1,3.896618211E0
1.413713448E0,4.238399982E0,-1.491999984E0,-2.605999947E0,5.194355984E0
1.423713448E0,4.369599819E0,-1.850999951E0,-4.676499844E0,6.662526112E0
1.433713448E0,3.649599791E0,-1.763399959E0,-5.972599983E0,7.218109767E0
1.443713448E0,3.012099981E0,-1.252699971E0,-6.065499783E0,6.887110506E0
1.453721261E0,2.805099964E0,-1.003499985E0,-4.446499825E0,5.352285373E0
1.463713448E0,2.645299911E0,-3.994999826E-1,-2.092900038E0,3.396681090E0
1.473713448E0,2.740299940E0,5.060999990E-1,-4.081999958E-1,2.816382113E0
1.483713448E0,2.913300037E0,9.949999452E-1,1.163999960E-1,3.080728965E0
1.493713448E0,2.492199898E0,8.718000054E-1,-5.929999948E-1,2.706057016E0
1.503718136E0,2.182999849E0,6.658999920E-1,-1.061399937E0,2.517038134E0
1.513713448E0,2.282399893E0,6.219999790E-1,-1.003099918E0,2.569521880E0
1.523713448E0,2.180500031E0,3.185999990E-1,-5.123000145E-1,2.262418539E0
1.533713448E0,2.030999899E0,-1.158999950E-1,-8.509999514E-2,2.036083350E0
1.543713448E0,2.136299849E0,-4.959999919E-1,-2.440999895E-1,2.206666681E0
1.553713448E0,1.854999900E0,-1.105700016E0,-1.090499997E0,2.419253479E0
1.563713448E0,1.774699926E0,-1.826699972E0,-2.318899870E0,3.444370657E0
1.573713448E0,2.045500040E0,-2.597899914E0,-3.709999800E0,4.969633074E0
1.583713448E0,2.329499960E0,-3.629599810E0,-5.040599823E0,6.633868511E0
1.593713448E0,2.544399977E0,-4.727799892E0,-6.322399616E0,8.294504203E0
1.603713448E0,3.184700012E0,-4.987199783E0,-6.599400043E0,8.863777794E0
1.613713448E0,4.066800117E0,-4.812999725E0,-5.290299892E0,8.227460271E0
1.623713448E0,5.713299751E0,-4.815700054E0,-3.861399889E0,8.410895919E0
1.633713448E0,7.488399982E0,-4.712800026E0,-2.869499922E0,9.301647606E0
1.643713448E0,8.255899429E0,-4.688899994E0,-2.686899900E0,9.867375011E0
1.653713448E0,8.256999969E0,-4.947400093E0,-3.296999931E0,1.017472480E1
1.663713448E0,8.039899826E0,-5.456699848E0,-4.096899986E0,1.054514827E1
1.673713448E0,6.702299595E0,-4.931499958E0,-4.914599895E0,9.664046969E0
1.683713448E0,5.665199757E0,-3.376399994E0,-6.380199909E0,9.176138408E0
1.693713448E0,4.710499763E0,-1.874899983E0,-8.230699539E0,9.666875031E0
1.703713448E0,3.295799971E0,-9.091999531E-1,-9.302700043E0,9.911063015E0
1.713713448E0,2.407699823E0,-8.567000031E-1,-8.259699821E0,8.646016104E0
1.723713448E0,1.177600026E0,-3.039099932E0,-6.282199860E0,7.077351573E0
1.733713448E0,2.076999992E-1,-5.068399906E0,-2.944399834E0,5.865262763E0
1.743713448E0,7.326999903E-1,-6.164000034E0,4.987999797E-1,6.227402919E0
1.753713448E0,5.047000051E-1,-7.795199871E0,2.663399935E0,8.253094107E0
1.763725948E0,-1.725199938E0,-9.506499290E0,3.964299917E0,1.044344375E1
1.773713448E0,-4.890799999E0,-1.098339939E1,5.405600071E0,1.318239352E1
1.783713448E0,-7.863499641E0,-1.179619980E1,7.232499599E0,1.591521306E1
1.793713448E0,-8.266599655E0,-1.024839973E1,8.668000221E0,1.576390164E1
1.803713448E0,-7.255799770E0,-7.426399708E0,8.248399734E0,1.326024665E1
1.813725948E0,-5.878499985E0,-4.916399956E0,6.832499981E0,1.026697651E1
1.823713448E0,-4.240699768E0,-2.581199884E0,3.772499800E0,6.235213076E0
1.833713448E0,-3.373499870E0,-9.029999971E-1,1.510199904E0,3.804814597E0
1.843713448E0,-3.194199800E0,9.199999571E-1,1.292400002E0,3.566456232E0
1.853713448E0,-2.499199867E0,2.752599955E0,4.217000008E-1,3.741742559E0
1.863713448E0,-1.849999905E0,4.888199806E0,-4.529999793E-1,5.246161070E0
1.873713448E0,-2.416800022E0,4.850299835E0,1.972099900E0,5.766758956E0
1.883722823E0,-3.703599930E0,3.758699894E0,5.070799828E0,7.318298178E0
1.893713448E0,-3.258299828E0,3.233700037E0,6.316499710E0,7.808425083E0
1.903713448E0,-2.238199949E0,3.527999878E0,6.004299641E0,7.314911915E0
1.913713448E0,-1.025499940E0,3.898699999E0,4.486000061E0,6.031227765E0
1.923713448E0,-3.156999946E-1,4.216899872E0,3.806599855E0,5.689649679E0
1.933713448E0,9.080999494E-1,4.591199875E0,2.756500006E0,5.431579337E0
1.943713448E0,9.397999644E-1,4.664799690E0,2.153100014E0,5.222970399E0
1.953713448E0,6.841999888E-1,3.800799847E0,3.355999947E0,5.116340952E0
1.963713448E0,-4.675000012E-1,3.370800018E0,4.431399822E0,5.587320771E0
1.973725948E0,-1.653999925E0,3.160300016E0,5.744199753E0,6.761585816E0
1.983713448E0,-2.558699846E0,3.469299793E0,5.970999718E0,7.364497511E0
1.993713448E0,-3.026099920E0,4.343800068E0,6.092799664E0,8.071436520E0
2.003713448E0,-2.828699827E0,5.377099991E0,5.744199753E0,8.361254560E0
2.013713448E0,-2.413499832E0,5.973499775E0,6.295399666E0,9.007759874E0
2.023715011E0,-2.699399948E0,6.393199921E0,6.330999851E0,9.393685348E0
2.033713448E0,-3.279199839E0,6.660899639E0,6.413799763E0,9.811093873E0
2.043713448E0,-2.958799839E0,7.063299656E0,5.501399994E0,9.429215259E0
2.053713448E0,-2.619599819E0,7.022399902E0,4.307399750E0,8.644657090E0
2.063713448E0,-1.786799908E0,6.819499969E0,2.942899942E0,7.639299301E0
2.073718136E0,-1.360599995E0,6.178400040E0,1.368999958E0,6.472868010E0
2.083713448E0,-9.919999838E-1,4.981499672E0,-7.106999755E-1,5.128791028E0
2.093713448E0,-2.383999974E-1,2.898200035E0,-2.159100056E0,3.621893297E0
2.103722823E0,1.721199989E0,5.917999744E-1,-4.511499882E0,4.864811178E0
2.113713448E0,3.410699844E0,-2.995699883E0,-7.993299961E0,9.192384646E0
2.123713448E0,3.660300016E0,-7.916999817E0,-1.268050003E1,1.539063882E1
2.133713448E0,4.193200111E0,-1.369769955E1,-1.810379982E1,2.308587161E1
2.143713448E0,5.385900021E0,-1.781219864E1,-1.474119949E1,2.373995160E1
2.153715011E0,5.322899818E0,-1.731649971E1,-9.088399887E0,2.026803980E1
2.163713448E0,4.669899940E0,-1.196379948E1,-5.605700016E0,1.401300596E1
2.173713448E0,3.167199850E0,-6.175699711E0,-4.071099758E0,8.046382731E0
2.183713448E0,1.384799957E0,-2.654299974E0,-2.913100004E0,4.177215689E0
2.193713448E0,-1.122399926E0,-8.536999822E-1,-2.716300011E0,3.060534431E0
2.203713448E0,-3.344399929E0,-3.623999953E-1,-2.219799995E0,4.030366815E0
2.213713448E0,-4.573800087E0,-2.450999916E-1,3.874999881E-1,4.596724647E0
2.223713448E0,-5.104199886E0,2.951000035E-1,2.834399939E0,5.845833003E0
2.233730636E0,-5.698599815E0,-2.491999865E-1,5.335299969E0,7.810349944E0
2.243713448E0,-6.455199718E0,-1.854299903E0,7.654299736E0,1.018313979E1
2.253713448E0,-7.455799580E0,-3.580699921E0,8.595399857E0,1.192858994E1
2.263713448E0,-7.626999855E0,-3.936399937E0,5.824699879E0,1.037272866E1
2.273713448E0,-7.453499794E0,-2.992899895E0,1.816399932E0,8.234768829E0
2.283719698E0,-7.098199844E0,-4.499999806E-2,2.511800051E0,7.529648433E0
2.293713448E0,-6.628900051E0,2.704999924E0,2.735100031E0,7.664209852E0
2.303713448E0,-6.230899811E0,4.598299980E0,2.660199881E0,8.188109584E0
2.313713448E0,-5.257400036E0,5.455999851E0,5.798899651E0,9.541248696E0
2.323713448E0,-4.264599800E0,4.969799995E0,1.000150013E1,1.195473665E1
2.333721261E0,-3.754899979E0,3.391299963E0,1.089279938E1,1.201054818E1
2.343713448E0,-3.407099962E0,2.183899879E0,1.053789997E1,1.128827200E1
2.353713448E0,-3.292899847E0,1.034899950E0,9.144100189E0,9.773882319E0
2.363713448E0,-3.492799997E0,-5.023999810E-1,7.219499588E0,8.035747125E0
2.373713448E0,-3.662199974E0,-1.560400009E0,5.448299885E0,6.747631323E0
2.383713448E0,-3.250299931E0,-2.026700020E0,4.410200119E0,5.841389193E0
2.393713448E0,-2.517899990E0,-2.422799826E0,4.051099777E0,5.349877453E0
2.403713448E0,-1.723199964E0,-2.553299904E0,2.955600023E0,4.268996370E0
2.413715011E0,-1.532499909E0,-2.409100056E0,2.081699848E0,3.533524205E0
2.423713448E0,-7.935000062E-1,-1.579899907E0,1.546599984E0,2.348977967E0
2.433713448E0,-9.559999406E-2,-6.924999952E-1,1.802899957E0,1.933686597E0
2.443713448E0,1.364899993E0,2.554000020E-1,2.171599865E0,2.577601041E0
2.453713448E0,3.435999870E0,6.687999964E-1,2.204200029E0,4.136651582E0
2.463713448E0,4.743000031E0,5.424000025E-1,1.984299898E0,5.169883281E0
2.473713448E0,5.157599926E0,-1.139999926E-2,3.291899920E0,6.118625012E0
2.483713448E0,5.125199795E0,-1.225000024E0,3.962399960E0,6.593095740E0
2.493713448E0,5.048299789E0,-2.197299957E0,-5.354999900E-1,5.531746388E0
2.503716573E0,5.954799652E0,-1.920599937E0,-3.854599953E0,7.348896775E0
2.513713448E0,6.208199978E0,-1.387699962E0,-6.155699730E0,8.852123887E0
2.523713448E0,5.240399837E0,-6.714000106E-1,-6.902599812E0,8.692436516E0
2.533713448E0,4.111799717E0,-1.017000005E-1,-6.356999874E0,7.571570986E0
2.543713448E0,3.125900030E0,5.357999802E-1,-5.364099979E0,6.231524790E0
2.553715011E0,2.366299868E0,9.057999849E-1,-4.365999699E0,5.047950282E0
2.563713448E0,2.222499847E0,7.725999951E-1,-3.483399868E0,4.203628310E0
2.573713448E0,1.764199972E0,6.190999746E-1,-2.392400026E0,3.036324127E0
2.583713448E0,1.215899944E0,4.101999998E-1,-1.011099935E0,1.633707377E0
2.593713448E0,1.494799972E0,5.268999934E-1,2.300000004E-2,1.585111844E0
2.603719698E0,1.921799898E0,6.337000132E-1,5.623999834E-1,2.100281956E0
2.613713448E0,1.988099933E0,5.719000101E-1,1.052500010E0,2.321070278E0
2.623713448E0,2.132599831E0,4.589999914E-1,1.248700023E0,2.513546255E0
2.633715011E0,2.205699921E0,1.083999947E-1,1.144899964E0,2.487500478E0
2.643713448E0,2.314199924E0,-4.210000038E-1,4.283999801E-1,2.390876165E0
2.653713448E0,1.898199916E0,-1.001799941E0,-7.947999835E-1,2.288771080E0
2.663713448E0,1.833999991E0,-1.731699944E0,-2.322000027E0,3.428414325E0
2.673713448E0,1.898199916E0,-2.559599876E0,-3.152699947E0,4.482658966E0
2.683719698E0,1.684899926E0,-3.168699980E0,-3.771199942E0,5.205909750E0
2.693713448E0,1.711599946E0,-3.616999865E0,-4.839099884E0,6.279263498E0
2.703713448E0,2.400599957E0,-3.599699974E0,-5.618399620E0,7.091342210E0
2.713713448E0,3.458699942E0,-3.497399807E0,-5.245199680E0,7.190725303E0
2.723713448E0,4.865399837E0,-3.721799850E0,-3.956299782E0,7.292202525E0
2.733713448E0,5.675099850E0,-4.371799946E0,-3.110599995E0,7.809944007E0
2.743713448E0,6.746899605E0,-4.909999847E0,-3.533299923E0,9.061620226E0
2.753713448E0,7.319499969E0,-5.323400021E0,-4.002299786E0,9.896063417E0
2.763713448E0,7.209899902E0,-5.940799713E0,-4.698599815E0,1.045717926E1
2.773713448E0,6.816199780E0,-5.612400055E0,-5.676699638E0,1.049688204E1
2.783713448E0,6.403499603E0,-4.387199879E0,-7.284299850E0,1.064487455E1
2.793713448E0,5.655900002E0,-2.746500015E0,-7.346599579E0,9.669797957E0
2.803713448E0,3.816499949E0,-2.284600019E0,-7.045199871E0,8.331861156E0
2.813713448E0,1.157899976E0,-3.255899906E0,-6.324100018E0,7.206653702E0
2.823713448E0,3.779999912E-2,-4.512899876E0,-4.436899662E0,6.328805001E0
2.833713448E0,-1.046999931E0,-5.205599785E0,-1.831900001E0,5.616968541E0
2.843713448E0,-8.931999803E-1,-5.393300056E0,8.490999937E-1,5.532310774E0
2.853718136E0,-1.243299961E0,-5.751399994E0,2.531299829E0,6.405612813E0
2.863713448E0,-2.565799952E0,-6.404299736E0,3.849799871E0,7.900591342E0
2.873713448E0,-4.561899662E0,-6.988499641E0,4.568900108E0,9.514457628E0
2.883713448E0,-6.193399906E0,-7.093099594E0,4.974199772E0,1.064955058E1
2.893713448E0,-7.345799923E0,-7.023499966E0,5.054100037E0,1.135051785E1
2.903721261E0,-7.091799736E0,-6.270699978E0,5.111899853E0,1.075856969E1
2.913713448E0,-6.272500038E0,-5.108699799E0,4.920799732E0,9.468756009E0
2.923711886E0,-5.540599823E0,-3.339799881E0,4.115499973E0,7.667453924E0
2.933713448E0,-4.151199818E0,-1.491099954E0,2.058399916E0,4.867530093E0
2.943713448E0,-3.030599833E0,4.490999877E-1,4.927999973E-1,3.103075568E0
2.953713448E0,-2.415999889E0,2.416800022E0,-8.859999478E-2,3.418454003E0
2.963713448E0,-1.083500028E0,3.557899952E0,1.414999962E0,3.979302611E0
2.973713448E0,-3.043999970E-1,3.922399998E0,3.749699831E0,5.434899256E0
2.983727511E0,-2.818000019E-1,3.545399904E0,5.909399986E0,6.897121133E0
2.993713448E0,-8.544999957E-1,3.427399874E0,6.323899746E0,7.243545274E0
3.003713448E0,-7.301999927E-1,3.698299885E0,5.505399704E0,6.672333922E0
3.013713448E0,5.799999833E-2,3.594499826E0,5.162899971E0,6.291210465E0
3.023713448E0,9.371999502E-1,3.642099857E0,4.707499981E0,6.025262748E0
3.033713448E0,1.867199898E0,3.671099901E0,2.950199842E0,5.066269738E0
3.043713448E0,1.046700001E0,3.469399929E0,2.404099941E0,4.348794464E0
3.053713448E0,-3.617999852E-1,2.546200037E0,3.440699816E0,4.295631395E0
3.063713448E0,-1.429999948E0,2.233399868E0,4.403800011E0,5.140664291E0
3.073719698E0,-2.174599886E0,2.287799835E0,5.087800026E0,5.987371865E0
3.083713448E0,-2.975499868E0,2.923300028E0,5.554800034E0,6.946588079E0
3.093713448E0,-2.972999811E0,4.180200100E0,4.928400040E0,7.113503195E0
3.103713448E0,-2.826699972E0,4.938199997E0,6.187200069E0,8.405801368E0
3.113713448E0,-2.718499899E0,5.514800072E0,6.848099709E0,9.203245686E0
3.123724386E0,-2.745899916E0,6.180599689E0,6.680199623E0,9.506042598E0
3.133713448E0,-3.057199955E0,6.614699841E0,6.201799870E0,9.568858196E0
3.143713448E0,-2.982399940E0,6.963899612E0,5.991899967E0,9.658854613E0
3.153713448E0,-2.861799955E0,7.073400021E0,5.212399960E0,9.240779197E0
3.163713448E0,-2.326200008E0,6.963999748E0,4.142499924E0,8.430231586E0
3.173713448E0,-1.533899903E0,6.588199615E0,9.136999846E-1,6.825838465E0
3.183713448E0,-1.975399971E0,4.569299698E0,-1.108799934E0,5.100013928E0
3.193713448E0,-1.497499943E0,1.929899931E0,-2.410599947E0,3.431910827E0
3.203722823E0,-4.293999970E-1,-1.018999934E0,-4.931200027E0,5.053659954E0
3.213713448E0,7.809000015E-1,-4.388599873E0,-8.888199806E0,9.943324869E0
3.223713448E0,1.365800023E0,-8.577199936E0,-1.336450005E1,1.593874618E1
3.233713448E0,2.426800013E0,-1.339879990E1,-1.648600006E1,2.138236177E1
3.243713448E0,2.486599922E0,-1.639900017E1,-1.497859955E1,2.234879930E1
3.253713448E0,2.775099993E0,-1.537629986E1,-1.108889961E1,1.915973570E1
3.263713448E0,1.862599969E0,-1.094899940E1,-7.327899933E0,1.330593792E1
3.273713448E0,6.038999557E-1,-6.310599804E0,-4.615600109E0,7.841691744E0
3.283713448E0,3.544999957E-1,-2.307800055E0,-2.619199991E0,3.508820305E0
3.293713448E0,1.106699944E0,1.293699980E0,-2.067600012E0,2.678323022E0
3.303713448E0,1.694999933E0,4.700399876E0,-4.097300053E0,6.461783924E0
3.313713448E0,9.394999743E-1,6.675899982E0,-7.197999954E-1,6.780000945E0
3.323713448E0,2.149000019E-1,7.717700005E0,5.928099632E0,9.734035166E0
3.333721261E0,-1.270099998E0,6.759099960E0,8.727199554E0,1.111137248E1
3.343713448E0,-1.649399996E0,4.475699902E0,9.720199585E0,1.082749694E1
3.353713448E0,-3.493299961E0,8.313999772E-1,1.016329956E1,1.077900870E1
3.363713448E0,-6.934499741E0,-3.520699978E0,9.298299789E0,1.212192204E1
3.373713448E0,-1.004799938E1,-7.308399677E0,8.117899895E0,1.484167430E1
3.383721261E0,-1.171729946E1,-9.158399582E0,7.569200039E0,1.668724599E1
3.393713448E0,-1.208759975E1,-9.320300102E0,6.079499722E0,1.642980154E1
3.403713448E0,-1.128879929E1,-9.130199432E0,-4.859499931E0,1.531052810E1
3.413713448E0,-7.807899952E0,-2.361799955E0,-1.792519951E1,1.969401376E1
3.423713448E0,-2.162999868E0,4.269400120E0,-8.560899734E0,9.807922822E0
3.433721261E0,2.683999836E-1,4.593400002E0,4.289199829E0,6.290357486E0
3.443713448E0,-4.992999732E-1,2.595099926E0,1.040859985E1,1.073884514E1
3.453713448E0,-4.779999852E-1,2.812099934E0,1.126369953E1,1.161926491E1
3.463718136E0,8.410999775E-1,3.038599968E0,1.149839973E1,1.192282414E1
3.473713448E0,2.229500055E0,2.656299829E0,1.033119965E1,1.089771928E1
3.483713448E0,2.013499975E0,9.585999846E-1,8.286099434E0,8.580940503E0
3.493713448E0,9.111999869E-1,-1.157099962E0,5.876599789E0,6.058348852E0
3.503713448E0,8.747999668E-1,-1.816699982E0,3.969799995E0,4.452525779E0
3.513713448E0,1.149399996E0,-1.946599960E0,3.629899979E0,4.276277074E0
3.523713448E0,8.233999610E-1,-1.388899922E0,3.620399952E0,3.964129955E0
3.533713448E0,3.218999803E-1,-2.202999890E-1,3.893499851E0,3.912990260E0
3.543713448E0,4.828999937E-1,1.001699924E0,4.132100105E0,4.279117482E0
3.553713448E0,6.962999701E-1,1.750199914E0,3.853099823E0,4.288870671E0
3.563716573E0,3.309999779E-2,1.624499917E0,3.061499834E0,3.465959726E0
3.573713448E0,2.935000062E-1,1.633299947E0,2.219699860E0,2.771439777E0
3.583713448E0,5.505999923E-1,7.780999541E-1,4.196700096E0,4.303590546E0
3.593713448E0,1.440999985E0,-4.502999783E-1,1.842000008E0,2.381641252E0
3.603713448E0,1.620099902E0,-1.170300007E0,-1.959100008E0,2.798642285E0
3.613713448E0,1.856599927E0,-1.136299968E0,-5.267600060E0,5.699627294E0
3.623713448E0,1.636799932E0,-7.310999632E-1,-7.466399670E0,7.678590053E0
3.633722823E0,6.686999798E-1,-1.625999957E-1,-8.100299835E0,8.129480662E0
3.643713448E0,2.538000047E-1,-1.549999975E-2,-7.236599922E0,7.241065745E0
3.653713448E0,6.020999551E-1,-1.631999910E-1,-5.938999653E0,5.971672753E0
3.663713448E0,1.025399923E0,2.468999922E-1,-4.773200035E0,4.888337466E0
3.673713448E0,1.214699984E0,3.118000031E-1,-3.654899836E0,3.864066265E0
3.683727511E0,1.474499941E0,1.193000004E-1,-2.588099957E0,2.981047459E0
3.693713448E0,1.629499912E0,1.794999987E-1,-1.695099950E0,2.358146317E0
3.703713448E0,1.700299978E0,3.847999871E-1,-9.225999713E-1,1.972379718E0
3.713713448E0,1.972099900E0,5.392000079E-1,-1.278999895E-1,2.048480674E0
3.723713448E0,2.598899841E0,6.234999895E-1,1.518999934E0,3.074149219E0
3.733713448E0,2.249300003E0,5.116999745E-1,2.361700058E0,3.301335265E0
3.743713448E0,1.204399943E0,-5.109999701E-2,1.916999936E0,2.264526261E0
3.753713448E0,8.361999989E-1,-6.574000120E-1,1.393499970E0,1.753067991E0
3.763721261E0,8.259999752E-1,-1.319499969E0,1.338000000E-1,1.562452741E0
3.773713448E0,1.094799995E0,-1.850699902E0,-1.553900003E0,2.652976136E0
3.783713448E0,1.453299999E0,-2.365299940E0,-2.922699928E0,4.030992380E0
3.793713448E0,1.830500007E0,-2.937799931E0,-4.111899853E0,5.374859915E0
3.803713448E0,2.601799965E0,-3.673399925E0,-5.381000042E0,7.015582051E0
3.813713448E0,3.828799963E0,-3.902299881E0,-5.695399761E0,7.894633111E0
3.823713448E0,4.632299900E0,-4.062699795E0,-4.937299728E0,7.895610210E0
3.833713448E0,5.543099880E0,-4.370999813E0,-4.059700012E0,8.143264692E0
3.843713448E0,6.336099625E0,-4.739999771E0,-3.618799925E0,8.701118846E0
3.853713448E0,6.826699734E0,-5.325799942E0,-3.521600008E0,9.347172882E0
3.863713448E0,7.110899925E0,-6.009299755E0,-3.853999853E0,1.007620445E1
3.873713448E0,7.318799973E0,-6.033799648E0,-4.687599659E0,1.058041407E1
3.883713448E0,6.891999722E0,-5.612400055E0,-5.910999775E0,1.067420315E1
3.893713448E0,6.217899799E0,-4.686199665E0,-7.441299915E0,1.077012951E1
3.903713448E0,5.385399818E0,-3.188400030E0,-8.222899437E0,1.033365865E1
3.913713448E0,3.888599873E0,-2.466099977E0,-7.923399925E0,9.164230707E0
3.923713448E0,2.180399895E0,-2.714799881E0,-6.647599697E0,7.504323009E0
3.933713448E0,5.101999640E-1,-3.677999973E0,-5.128499985E0,6.331626955E0
3.943716573E0,-1.891499996E0,-5.320600033E0,-2.881099939E0,6.339344903E0
3.953713448E0,-2.133399963E0,-5.871200085E0,-2.314999998E-1,6.251078154E0
3.963713448E0,-2.182600021E0,-6.732699871E0,1.515200019E0,7.238012262E0
3.973713448E0,-3.587999821E0,-7.607699871E0,3.226099968E0,9.008804640E0
3.983713448E0,-5.258800030E0,-8.151499748E0,3.971499920E0,1.048211513E1
3.993724386E0,-6.335199833E0,-7.609599590E0,4.023499966E0,1.068781151E1
4.003713448E0,-6.269499779E0,-6.227099895E0,3.467399836E0,9.492431838E0
4.013713448E0,-5.635799885E0,-4.807199955E0,3.118599892E0,8.037230682E0
4.023713448E0,-5.237599850E0,-3.535599947E0,3.507299900E0,7.227314284E0
4.033713448E0,-4.514499664E0,-2.243700027E0,3.702299833E0,6.254751881E0
4.043713448E0,-3.094899893E0,-8.108999729E-1,3.548199892E0,4.777623529E0
4.053713448E0,-3.101599932E0,3.061999977E-1,2.417799950E0,3.944545243E0
4.063713448E0,-3.228099823E0,1.681199908E0,1.177099943E0,3.825261543E0
4.073718136E0,-2.226199865E0,2.826200008E0,1.434799910E0,3.873244520E0
4.083713448E0,-1.098999977E0,3.384599924E0,3.456499815E0,4.960918117E0
4.093713448E0,-1.317699909E0,3.048300028E0,5.128999710E0,6.110245833E0
4.103713448E0,-1.135999918E0,2.967200041E0,5.526000023E0,6.374280206E0
4.113713448E0,-1.164199948E0,3.066299915E0,5.369299889E0,6.291815158E0
4.123713448E0,-1.797000021E-1,3.387899876E0,5.511099815E0,6.471659666E0
4.133713448E0,8.255999684E-1,3.557799816E0,4.164999962E0,5.539564922E0
4.143713448E0,6.529999971E-1,3.572199821E0,3.526999950E0,5.062286955E0
4.153713448E0,4.961999953E-1,3.710099936E0,1.831399918E0,4.167143101E0
4.163713448E0,3.574999869E-1,3.572399855E0,1.697600007E0,3.971359055E0
4.173713448E0,-3.274999857E-1,3.222199917E0,3.017400026E0,4.426571073E0
4.183713448E0,-1.233099937E0,3.300299883E0,3.603899956E0,5.039901751E0
4.193713448E0,-2.328099966E0,3.535699844E0,4.387499809E0,6.096833393E0
4.203713448E0,-3.470399857E0,3.980899811E0,5.289400101E0,7.474556301E0
4.213713448E0,-4.199800014E0,4.729000092E0,6.141299725E0,8.815742983E0
4.223713448E0,-3.424700022E0,5.587999821E0,7.130399704E0,9.684880597E0
4.233713448E0,-2.766700029E0,6.268599987E0,7.338599682E0,1.004017032E1
4.243713448E0,-2.847599983E0,6.737199783E0,7.026599884E0,1.014257327E1
4.253713448E0,-3.122099876E0,7.006199837E0,6.429199696E0,1.000844406E1
4.263713448E0,-3.048499823E0,7.176099777E0,5.345299721E0,9.453147004E0
4.273713448E0,-2.899099827E0,7.168900013E0,4.064099789E0,8.735835066E0
4.283713448E0,-2.378700018E0,6.815000057E0,1.849599957E0,7.451406549E0
4.293713448E0,-2.666699886E0,5.433300018E0,-1.099999994E-3,6.052440713E0
4.303713448E0,-3.433499813E0,3.017400026E0,-3.637999892E-1,4.585408850E0
4.313713448E0,-2.019099951E0,4.779999852E-1,-2.273900032E0,3.078290102E0
4.323725948E0,2.382999957E-1,-2.890799999E0,-5.539000034E0,6.252522123E0
4.333713448E0,1.219900012E0,-8.034299850E0,-1.089519978E1,1.359203842E1
4.343713448E0,2.286200047E0,-1.461039925E1,-2.137220001E1,2.598964044E1
4.353711886E0,4.854499817E0,-2.002139854E1,-2.480259895E1,3.224269658E1
4.363713448E0,7.472799778E0,-1.892639923E1,-1.657859993E1,2.624692934E1
4.373719698E0,7.167799950E0,-1.363639927E1,-7.952399731E0,1.733693752E1
4.383713448E0,4.567199707E0,-8.116700172E0,-2.019299984E0,9.529832490E0
4.393713448E0,3.840600014E0,-3.613699913E0,1.388799906E0,5.453237635E0
4.403713448E0,2.292399883E0,1.913999915E-1,1.666700006E0,2.840707674E0
4.413713448E0,-4.160000011E-2,2.605299950E0,6.315999627E-1,2.681088753E0
4.423719698E0,-2.043999910E0,3.113199949E0,1.984899998E0,4.220163215E0
4.433713448E0,-2.785300016E0,8.995999694E-1,5.269099712E0,6.027486049E0
4.443713448E0,-4.071799755E0,-2.011199951E0,8.234999657E0,9.404238291E0
4.453713448E0,-5.919899940E0,-4.142099857E0,9.237699509E0,1.172762972E1
4.463713448E0,-7.510399818E0,-4.999000072E0,8.465399742E0,1.237170562E1
4.473713448E0,-8.155300140E0,-4.372499943E0,7.167599678E0,1.170479224E1
4.483713448E0,-8.174799919E0,-2.238800049E0,3.130800009E0,9.035567944E0
4.493713448E0,-7.602299690E0,1.364699960E0,-2.552999854E-1,7.728036273E0
4.503713448E0,-6.815999985E0,4.010200024E0,6.096999645E-1,7.931664016E0
4.513713448E0,-5.713699818E0,4.825399876E0,4.318900108E0,8.636188263E0
4.523713448E0,-5.152800083E0,3.752599955E0,9.334400177E0,1.130329075E1
4.533713448E0,-4.607299805E0,2.364899874E0,1.146679974E1,1.258202921E1
4.543713448E0,-4.138499737E0,1.433799982E0,1.034070015E1,1.123000632E1
4.553713448E0,-4.170899868E0,7.479000092E-1,8.775599480E0,9.745096529E0
4.563713448E0,-4.024399757E0,1.063999981E-1,7.257400036E0,8.299215002E0
4.573713448E0,-3.860399961E0,-6.026999950E-1,6.240999699E0,7.363152340E0
4.583715011E0,-3.262199879E0,-1.100799918E0,5.222199917E0,6.255004435E0
4.593713448E0,-2.384699821E0,-1.439799905E0,4.198299885E0,5.038406388E0
4.603713448E0,-1.019400001E0,-1.276899934E0,3.639099836E0,3.989072251E0
4.613713448E0,-9.925999641E-1,-8.036999702E-1,3.422699928E0,3.653226400E0
4.623713448E0,-1.344599962E0,-4.788999856E-1,2.585299969E0,2.953145811E0
4.633722823E0,-9.012999535E-1,-9.809999913E-2,2.101199865E0,2.288450587E0
4.643713448E0,3.084000051E-1,2.022999972E-1,9.868999720E-1,1.053568890E0
4.653713448E0,1.452899933E0,4.941999912E-1,2.210000008E-1,1.550481489E0
4.663713448E0,2.086699963E0,7.161999941E-1,-3.075999916E-1,2.227527086E0
4.673713448E0,2.821300030E0,5.223000050E-1,-1.179099917E0,3.102065081E0
4.683713448E0,4.269999981E0,-2.029999904E-2,-2.922899961E0,5.174616518E0
4.693713448E0,4.810999870E0,-6.582999825E-1,-4.416100025E0,6.563613186E0
4.703713448E0,4.533699989E0,-9.195999503E-1,-4.706899643E0,6.599621498E0
4.713713448E0,3.736599922E0,-7.807999849E-1,-4.589399815E0,5.969457115E0
4.723713448E0,3.254699945E0,-4.646999836E-1,-3.761600018E0,4.995863539E0
4.733713448E0,2.984699965E0,-1.869999915E-1,-1.815099955E0,3.498283968E0
4.743713448E0,2.741699934E0,3.163999915E-1,-4.099999741E-2,2.760200805E0
4.753713448E0,2.293699980E0,7.116999626E-1,5.659999847E-1,2.467373587E0
4.763713448E0,1.038800001E0,5.861999989E-1,2.699999809E-1,1.222961925E0
4.773713448E0,6.254999638E-1,1.006500006E0,-3.384999931E-1,1.232426351E0
4.783713448E0,6.164000034E-1,1.255299926E0,-6.109999865E-2,1.399807157E0
4.793713448E0,5.548999906E-1,1.283900023E0,3.895999789E-1,1.451930236E0
4.803713448E0,7.782999873E-1,1.298900008E0,6.161000133E-1,1.634769503E0
4.813713448E0,4.064999819E-1,8.798999786E-1,5.587999821E-1,1.118804553E0
4.823713448E0,3.669999912E-2,4.678999782E-1,1.269000024E-1,4.861901789E-1
4.833713448E0,-2.114999890E-1,1.499999911E-1,-5.124999881E-1,5.743591912E-1
4.843713448E0,-3.472999930E-1,-2.703000009E-1,-1.250499964E0,1.325680782E0
4.853713448E0,-1.158000007E-1,-5.773999691E-1,-2.187000036E0,2.264899451E0
4.863713448E0,4.222999811E-1,-8.675000072E-1,-3.142299891E0,3.287087181E0
4.873713448E0,1.227900028E0,-1.403100014E0,-3.709599972E0,4.151814071E0
4.883713448E0,2.292000055E0,-2.211799860E0,-3.635399818E0,4.833368878E0
4.893713448E0,3.316999912E0,-3.263099909E0,-3.158900023E0,5.623962908E0
4.903713448E0,3.833699942E0,-4.260999680E0,-2.927500010E0,6.436119158E0
4.913711886E0,3.894299984E0,-4.586899757E0,-2.607899904E0,6.557923731E0
4.923713448E0,4.344199657E0,-4.418499947E0,-1.588899970E0,6.396859820E0
4.933713448E0,4.842199802E0,-4.296799660E0,-1.564999938E0,6.660226051E0
4.943713448E0,5.172199726E0,-4.260900021E0,-2.419199944E0,7.124566468E0
4.953713448E0,5.194699764E0,-4.523600101E0,-3.550299883E0,7.749354346E0
4.963713448E0,4.839099884E0,-5.120899677E0,-4.795300007E0,8.522640632E0
4.973713448E0,4.694799900E0,-5.462199688E0,-6.030099869E0,9.393555022E0
4.983713448E0,4.556399822E0,-5.006899834E0,-6.869699955E0,9.644822588E0
4.993711886E0,4.518300056E0,-4.186699867E0,-7.799999714E0,9.938988214E0
5.003713448E0,4.036299706E0,-2.601500034E0,-8.578599930E0,9.831169539E0
5.013713448E0,4.394000053E0,-1.049700022E0,-8.581799507E0,9.698267339E0
5.023719698E0,3.583799839E0,-9.467999935E-1,-8.185199738E0,8.985407406E0
5.033713448E0,2.145400047E0,-2.199699879E0,-6.688799858E0,7.360805965E0
5.043713448E0,1.021199942E0,-3.157699823E0,-4.817800045E0,5.850223480E0
5.053713448E0,3.789999783E-1,-4.235799789E0,-1.773799896E0,4.607820191E0
5.063713448E0,2.099999972E-2,-5.210099697E0,1.940799952E0,5.559881681E0
5.073715011E0,1.624999940E-1,-6.089599609E0,3.656899929E0,7.105107089E0
5.083713448E0,-4.289999902E-1,-6.995299816E0,3.881699800E0,8.011607445E0
5.093713448E0,-2.563299894E0,-7.952799797E0,4.128799915E0,9.320113717E0
5.103713448E0,-5.146100044E0,-8.641599655E0,4.117099762E0,1.086784711E1
5.113713448E0,-6.630399704E0,-8.145099640E0,4.187399864E0,1.130659834E1
5.123722823E0,-5.920499802E0,-6.435299873E0,4.848199844E0,9.998522095E0
5.133713448E0,-4.852999687E0,-4.392600060E0,4.541599751E0,7.966973675E0
5.143713448E0,-3.957999945E0,-2.474400043E0,4.330500126E0,6.367232560E0
5.153713448E0,-3.642199993E0,-9.720999599E-1,3.319299936E0,5.022783211E0
5.163713448E0,-3.531899929E0,-4.219999909E-2,2.147399902E0,4.133693783E0
5.173713448E0,-3.018100023E0,1.051599979E0,9.268999696E-1,3.327752067E0
5.183711886E0,-1.165699959E0,2.716500044E0,1.717799902E0,3.418927520E0
5.193713448E0,-4.521999955E-1,3.344599962E0,4.315199852E0,5.478301151E0
5.203713448E0,-1.707499981E0,3.319499969E0,4.982999802E0,6.226148348E0
5.213713448E0,-1.194999933E0,3.304600000E0,5.882599831E0,6.852254138E0
5.223713448E0,-3.924999833E-1,3.482100010E0,5.457099915E0,6.485292298E0
5.233713448E0,-3.261999786E-1,3.386999846E0,4.446700096E0,5.599224600E0
5.243713448E0,-3.427000046E-1,3.305500031E0,3.439299822E0,4.782526216E0
5.253713448E0,3.735999763E-1,3.082700014E0,3.354399920E0,4.571062802E0
5.263713448E0,2.204999924E-1,3.312399864E0,2.954699993E0,4.444194545E0
5.273713448E0,-5.827999711E-1,2.832000017E0,3.407199860E0,4.468656486E0
5.283713448E0,-1.499899983E0,2.512300014E0,4.509399891E0,5.375503576E0
5.293722823E0,-1.884899974E0,2.854499817E0,5.334199905E0,6.336774080E0
5.303713448E0,-2.211400032E0,3.589799881E0,5.985399723E0,7.321336158E0
5.313713448E0,-2.647899866E0,4.557499886E0,6.272199631E0,8.192842432E0
5.323713448E0,-3.097399950E0,5.340099812E0,7.057499886E0,9.376505590E0
5.333713448E0,-2.792500019E0,5.960700035E0,7.265799999E0,9.804073179E0
5.343716573E0,-2.456599951E0,6.248399734E0,7.380099773E0,9.977136625E0
5.353713448E0,-2.762899876E0,6.620800018E0,7.117899895E0,1.010609259E1
5.363713448E0,-3.076900005E0,6.973799706E0,6.561500072E0,1.005755831E1
5.373713448E0,-2.962699890E0,7.113100052E0,5.128200054E0,9.255928845E0
5.383713448E0,-3.051999807E0,6.596999645E0,2.540799856E0,7.700050068E0
5.393713448E0,-3.018599987E0,5.596699715E0,7.440999746E-1,6.402240104E0
5.403713448E0,-3.296999931E0,3.853699923E0,-8.215999603E-1,5.137726942E0
5.413719698E0,-2.791499853E0,1.061800003E0,-1.198899984E0,3.218268455E0
5.423715011E0,-1.141600013E0,-2.162400007E0,-1.891499996E0,3.091439247E0
5.433713448E0,-4.380999804E-1,-6.164499760E0,-6.016200066E0,8.624827657E0
5.443713448E0,6.130999923E-1,-1.187029934E1,-1.707839966E1,2.080748983E1
5.453713448E0,2.532999992E0,-1.761069870E1,-2.073069954E1,2.731876097E1
5.463713448E0,3.698999882E0,-1.860719872E1,-1.708090019E1,2.552778086E1
5.473713448E0,4.871599674E0,-1.414369965E1,-9.991000175E0,1.798879672E1
5.483713448E0,3.029599905E0,-9.802299500E0,-5.915899754E0,1.184320147E1
5.493713448E0,1.382900000E0,-5.923099995E0,-2.683199883E0,6.647938595E0
5.503713448E0,3.901000023E-1,-2.656999826E0,-1.255599976E0,2.964516384E0
5.513713448E0,-3.944000006E-1,-3.590000048E-2,1.850000024E-1,4.371100220E-1
5.523713448E0,-1.171399951E0,1.557799935E0,1.370100021E0,2.382455152E0
5.533713448E0,-1.712499976E0,1.847999930E0,2.754099846E0,3.732670073E0
5.543718136E0,-2.033599854E0,2.402999997E-1,3.214799881E0,3.811589003E0
5.553713448E0,-1.967899919E0,-2.359099865E0,5.464200020E0,6.268609425E0
5.563713448E0,-2.372900009E0,-4.766900063E0,7.277400017E0,9.017457605E0
5.573713448E0,-2.892099857E0,-4.812099934E0,7.546399593E0,9.405779828E0
5.583713448E0,-3.558199883E0,-2.735199928E0,6.444099903E0,7.852931212E0
5.593721261E0,-4.335799694E0,1.125999987E-1,6.340799809E0,7.682290020E0
5.603713448E0,-4.458799839E0,2.510999918E0,5.924999714E0,7.828897636E0
5.613754073E0,-4.918799877E0,4.294699669E0,5.144499779E0,8.312936632E0
5.623713448E0,-5.630399704E0,5.272399902E0,3.408699989E0,8.433198514E0
5.633711886E0,-5.939499855E0,5.062699795E0,4.727799892E0,9.124729013E0
5.643719698E0,-5.681399822E0,3.414700031E0,7.634999752E0,1.011096936E1
5.653713448E0,-4.463599682E0,2.110499859E0,8.325300217E0,9.679284864E0
5.663724386E0,-4.040299892E0,1.130599976E0,7.280900002E0,8.403200840E0
5.673713448E0,-3.710699797E0,-6.499999668E-3,6.234299660E0,7.255055305E0
5.683713448E0,-3.083799839E0,-9.627999663E-1,5.408799648E0,6.300152288E0
5.693713448E0,-2.342799902E0,-1.552500010E0,4.140199661E0,5.004020473E0
5.703713448E0,-2.066499949E0,-1.589699984E0,3.355799913E0,4.249583642E0
5.713713448E0,-1.293200016E0,-1.064999938E0,3.159299850E0,3.575998699E0
5.723716573E0,-2.452999949E-1,-4.670999944E-1,2.317800045E0,2.377088879E0
5.733713448E0,2.560999990E-1,-1.960000023E-2,1.959999919E0,1.976757712E0
5.743713448E0,6.042000055E-1,4.541999996E-1,1.910299897E0,2.054410130E0
5.753713448E0,7.253999710E-1,6.707999706E-1,1.563099980E0,1.849177998E0
5.763713448E0,9.865999818E-1,2.775000036E-1,-1.180999950E-1,1.031665345E0
5.773725948E0,2.021100044E0,-3.213000000E-1,-1.374499917E0,2.465223945E0
5.783713448E0,3.083999872E0,-6.937999725E-1,-2.230499983E0,3.868790998E0
5.793713448E0,3.964799881E0,-7.554999590E-1,-2.952299833E0,5.000649217E0
5.803713448E0,4.645999908E0,-7.527999878E-1,-3.190099955E0,5.685838609E0
5.813713448E0,4.662699699E0,-6.240000129E-1,-2.743700027E0,5.445919054E0
5.823725948E0,3.713299990E0,-4.833999872E-1,-1.972799897E0,4.232518375E0
5.833713448E0,2.818699837E0,-2.428999990E-1,-1.036199927E0,3.012935358E0
5.843713448E0,2.138799906E0,-1.887999922E-1,-2.655999959E-1,2.163481877E0
5.853713448E0,1.458299994E0,-1.957999915E-1,1.158000007E-1,1.475935687E0
5.863713448E0,1.159099936E0,1.561999917E-1,2.467999905E-1,1.195333148E0
5.873713448E0,1.378899932E0,5.044000149E-1,2.259999961E-1,1.485550536E0
5.883713448E0,1.000200033E0,7.522999644E-1,3.463000059E-1,1.298568072E0
5.893713448E0,4.393000007E-1,7.242000103E-1,5.630999804E-1,1.017119331E0
5.903713448E0,5.027999878E-1,9.779999852E-1,6.592999697E-1,1.282173252E0
5.913713448E0,8.905999660E-1,1.375199914E0,7.793999910E-1,1.814333886E0
5.923713448E0,9.104999900E-1,1.436399937E0,1.112299919E0,2.032108786E0
5.933713448E0,8.446999788E-1,1.220700026E0,9.796999693E-1,1.778605813E0
5.943719698E0,4.951999784E-1,7.576000094E-1,3.662000000E-1,9.763622447E-1
5.953713448E0,1.457999945E-1,-4.189999774E-2,-5.383999944E-1,5.593637476E-1
5.963713448E0,3.150000051E-2,-1.031800032E0,-1.865299940E0,2.131888229E0
5.973713448E0,7.220000029E-2,-2.025399923E0,-3.361500025E0,3.925193002E0
5.983713448E0,1.683000028E-1,-2.755499840E0,-4.634399891E0,5.394327262E0
5.993711886E0,2.909999788E-1,-3.483299971E0,-5.373699665E0,6.410515405E0
6.003713448E0,9.151999950E-1,-4.137799740E0,-5.476799965E0,6.924905456E0
6.013713448E0,2.281199932E0,-4.199299812E0,-5.087800026E0,6.980236468E0
6.023713448E0,3.269999981E0,-3.893099785E0,-4.268899918E0,6.638722190E0
6.033713448E0,4.238699913E0,-3.769299984E0,-3.565599918E0,6.699828513E0
6.043713448E0,5.293600082E0,-4.327799797E0,-2.726899862E0,7.361252324E0
6.053713448E0,6.081999779E0,-5.195099831E0,-2.164099932E0,8.286320780E0
6.063713448E0,7.524999619E0,-6.116799831E0,-2.054399967E0,9.912689779E0
6.073713448E0,8.811900139E0,-6.403199673E0,-2.018699884E0,1.107816317E1
6.083713448E0,8.164799690E0,-5.767799854E0,-2.927700043E0,1.041647237E1
6.093713448E0,7.200500011E0,-4.817299843E0,-4.243799686E0,9.646938062E0
6.103713448E0,6.018599987E0,-3.550799847E0,-5.778399944E0,9.067614420E0
6.113713448E0,5.033699989E0,-2.414799929E0,-6.651999950E0,8.684382397E0
6.123713448E0,4.335000038E0,-1.470899940E0,-6.286299706E0,7.776460374E0
6.133713448E0,3.099499941E0,-1.496699929E0,-5.742899895E0,6.695364797E0
6.143713448E0,1.720099926E0,-1.810299993E0,-5.092400074E0,5.671725340E0
6.153713448E0,-8.151999712E-1,-2.780599833E0,-3.843499899E0,4.813395672E0
6.163713448E0,-3.049700022E0,-3.754400015E0,-2.251299858E0,5.335217029E0
6.173713448E0,-3.211400032E0,-4.693900108E0,-6.875999570E-1,5.728750483E0
6.183713448E0,-3.473500013E0,-6.040499687E0,1.125100017E0,7.058235535E0
6.193713448E0,-5.187799931E0,-7.135399818E0,2.684900045E0,9.221490495E0
6.203713448E0,-7.074100018E0,-7.604699612E0,3.552599907E0,1.097703573E1
6.213713448E0,-8.290800095E0,-7.311399937E0,3.378299952E0,1.155884275E1
6.223718136E0,-7.596299648E0,-5.648299694E0,2.394599915E0,9.764280134E0
6.233713448E0,-6.247600079E0,-4.008699894E0,1.635199904E0,7.601056526E0
6.243713448E0,-4.825799942E0,-2.733899832E0,1.804899931E0,5.832685242E0
6.253713448E0,-4.248699665E0,-1.249599934E0,1.740199924E0,4.758281687E0
6.263713448E0,-3.192899942E0,6.535999775E-1,1.887799978E0,3.766376472E0
6.273713448E0,-1.621099949E0,3.318599939E0,2.490299940E0,4.454510567E0
6.283713448E0,-2.748899937E0,3.392499924E0,4.052299976E0,5.957066534E0
6.293713448E0,-2.676899910E0,3.033200026E0,6.217400074E0,7.417692310E0
6.303721261E0,-2.397399902E0,3.447199821E0,6.982299805E0,8.147590040E0
6.313713448E0,-1.600799918E0,3.367699862E0,6.955999851E0,7.892394863E0
6.323713448E0,-7.170000076E-1,3.085099936E0,6.253200054E0,7.009596389E0
6.333713448E0,3.217999935E-1,3.056499958E0,4.346099854E0,5.323000203E0
6.343713448E0,1.085999966E0,3.246799946E0,2.213399887E0,4.076793455E0
6.353713448E0,2.258299828E0,3.184899807E0,1.468999982E0,4.171506423E0
6.363713448E0,1.900299907E0,2.834699869E0,1.828599930E0,3.871749060E0
6.373713448E0,6.739999652E-1,2.389699936E0,2.904099941E0,3.820829518E0
6.383713448E0,-7.788999677E-1,2.245599985E0,3.453099966E0,4.192052460E0
6.393713448E0,-1.763499975E0,2.466899872E0,3.858199835E0,4.907263301E0
6.403713448E0,-2.379199982E0,3.058899879E0,4.360099792E0,5.833346486E0
6.413713448E0,-2.589999914E0,3.899099827E0,4.519299984E0,6.506546808E0
6.423721261E0,-2.128399849E0,4.841599941E0,5.031899929E0,7.300081698E0
6.433713448E0,-1.759299994E0,5.532499790E0,6.127999783E0,8.441331159E0
6.443713448E0,-1.985799909E0,5.906799793E0,6.441699982E0,8.962654949E0
6.453713448E0,-2.435799837E0,6.313199997E0,6.368099689E0,9.292056215E0
6.463713448E0,-2.845199823E0,6.343999863E0,5.370800018E0,8.785612621E0
6.473727511E0,-2.579599857E0,6.284599781E0,4.623300076E0,8.217386045E0
6.483713448E0,-1.864899993E0,6.292899609E0,3.766699791E0,7.567460920E0
6.493713448E0,-1.161000013E0,6.034599781E0,2.681699991E0,6.704910916E0
6.503713448E0,-1.413599968E0,4.732800007E0,1.456699967E0,5.149721892E0
6.513713448E0,-1.348699927E0,2.845399857E0,-1.539999992E-2,3.148893297E0
6.523713448E0,-1.350399971E0,4.368000031E-1,-1.801099896E0,2.293106007E0
6.533713448E0,-1.174600005E0,-2.153199911E0,-4.640399933E0,5.248739522E0
6.543724386E0,-1.449199915E0,-5.864199638E0,-7.915699959E0,9.957274910E0
6.553713448E0,-1.941799998E0,-1.073649979E1,-1.291499996E1,1.690681043E1
6.563713448E0,-1.779999956E-2,-1.564579964E1,-1.955360031E1,2.504265657E1
6.573713448E0,2.390599966E0,-1.779179955E1,-1.854080009E1,2.580744791E1
6.583713448E0,4.292399883E0,-1.462819958E1,-1.133570004E1,1.899755287E1
6.593713448E0,4.151400089E0,-9.138199806E0,-6.604799747E0,1.201516534E1
6.603713448E0,3.371399879E0,-4.189499855E0,-2.959199905E0,6.138005398E0
6.613713448E0,3.206699848E0,1.620000005E-1,2.169999853E-2,3.210862627E0
6.623713448E0,2.550600052E0,3.485199928E0,2.116199970E0,4.809415919E0
6.633713448E0,1.787899971E0,5.821399689E0,3.278399944E0,6.916154050E0
6.643713448E0,5.264999866E-1,5.755300045E0,3.907299995E0,6.976222051E0
6.653713448E0,6.299999952E-1,3.499399900E0,5.870500088E0,6.863342548E0
6.663713448E0,1.075899959E0,5.782999992E-1,8.427399635E0,8.515459836E0
6.673713448E0,-6.640999913E-1,-1.907699943E0,8.850099564E0,9.077698505E0
6.683713448E0,-3.793399811E0,-4.803599834E0,7.067999840E0,9.349923809E0
6.693716573E0,-6.632099628E0,-6.521800041E0,6.226799965E0,1.119337568E1
6.703713448E0,-8.316999435E0,-6.258800030E0,6.339099884E0,1.218725747E1
6.713713448E0,-8.467299461E0,-4.938199997E0,5.786099911E0,1.138243961E1
6.723713448E0,-8.378700256E0,-3.221599817E0,4.969999790E-1,8.990457850E0
6.733713448E0,-7.292799950E0,1.066799998E0,-8.021599770E0,1.089353277E1
6.743722823E0,-5.009999752E0,4.886499882E0,-9.148499489E0,1.151837756E1
6.753713448E0,-3.683099985E0,3.822199821E0,1.229300022E0,5.448450745E0
6.763713448E0,-2.535500050E0,2.313299894E0,8.012000084E0,8.716206873E0
6.773713448E0,-2.002199888E0,1.629400015E0,9.887599945E0,1.021902057E1
6.783713448E0,-1.229799986E0,1.565599918E0,1.021089935E1,1.040317147E1
6.793713448E0,-5.866000056E-1,1.107900023E0,9.215199471E0,9.300077597E0
6.803713448E0,-1.829999872E-2,-5.989999697E-2,8.356299400E0,8.356534124E0
6.813725948E0,5.469999835E-2,-1.029099941E0,7.401000023E0,7.472405243E0
6.823713448E0,-1.094999984E-1,-1.577099919E0,5.291599751E0,5.522704258E0
6.833713448E0,-4.170999825E-1,-1.286800027E0,4.281499863E0,4.490107769E0
6.843713448E0,-4.319999814E-1,-6.121000051E-1,3.932899952E0,4.003622414E0
6.853713448E0,6.920000166E-2,1.435000002E-1,3.503999949E0,3.507619781E0
6.863713448E0,-3.299999982E-2,8.355000019E-1,3.202299833E0,3.309663650E0
6.873713448E0,-1.659999974E-2,1.210099936E0,2.492699862E0,2.770951103E0
6.883713448E0,2.717999816E-1,1.395099998E0,1.700699925E0,2.216429442E0
6.893713448E0,5.705999732E-1,9.493999481E-1,1.369199991E0,1.761151103E0
6.903713448E0,1.850699902E0,3.537999988E-1,-7.956999540E-1,2.045336887E0
6.913727511E0,2.542199850E0,-3.528999984E-1,-3.703499794E0,4.505910475E0
6.923713448E0,2.752699852E0,-5.740000010E-1,-5.835499763E0,6.477645403E0
6.933713448E0,2.404999971E0,-5.084999800E-1,-6.612699986E0,7.054813831E0
6.943713448E0,1.414099932E0,-3.583999872E-1,-5.993000031E0,6.167996314E0
6.953713448E0,4.852999747E-1,-8.359999955E-2,-4.494699955E0,4.521596257E0
6.963716573E0,7.540999651E-1,2.067999989E-1,-2.877599955E0,2.981948104E0
6.973713448E0,8.677999973E-1,3.863999844E-1,-1.290499926E0,1.602426860E0
6.983713448E0,7.056999803E-1,5.551999807E-1,1.097999960E-1,9.046079371E-1
6.993713448E0,7.775999904E-1,8.014999628E-1,1.336099982E0,1.741329118E0
7.003713448E0,1.150099993E0,8.802999854E-1,1.940199971E0,2.421163767E0
7.013716573E0,1.083099961E0,8.112999797E-1,2.058099985E0,2.463146104E0
7.023713448E0,1.007599950E0,8.291999698E-1,2.083499908E0,2.458414554E0
7.033713448E0,1.152699947E0,9.621999860E-1,2.092399836E0,2.575399591E0
7.043713448E0,1.432099938E0,8.758999705E-1,1.813300014E0,2.471066153E0
7.053713448E0,1.580699921E0,5.898999572E-1,1.019099951E0,1.971080645E0
7.063713448E0,1.694499969E0,2.559999935E-2,-1.777999997E-1,1.703994820E0
7.073713448E0,2.034899950E0,-7.088999748E-1,-1.713199973E0,2.752891412E0
7.083713448E0,2.315099955E0,-1.358299971E0,-3.384299994E0,4.319508428E0
7.093718136E0,2.369400024E0,-1.881299973E0,-4.673299789E0,5.567142623E0
7.103713448E0,2.560499907E0,-2.520200014E0,-5.729000092E0,6.762322821E0
7.113713448E0,2.755699873E0,-3.352799892E0,-6.384699821E0,7.720073880E0
7.123713448E0,3.409999847E0,-3.817600012E0,-6.121900082E0,7.979964249E0
7.133713448E0,3.954599857E0,-3.823799849E0,-4.645199776E0,7.199874045E0
7.143713448E0,4.529799938E0,-3.625599861E0,-3.212299824E0,6.631962906E0
7.153713448E0,5.423199654E0,-3.537899971E0,-2.025699854E0,6.784636364E0
7.163713448E0,5.538899899E0,-4.013000011E0,-9.562000036E-1,6.906366601E0
7.173713448E0,5.262300014E0,-4.405999660E0,-8.125999570E-1,6.911219367E0
7.183713448E0,4.800099850E0,-4.484299660E0,-1.939999938E0,6.849343163E0
7.193713448E0,4.268899918E0,-4.199199677E0,-4.396699905E0,7.428846107E0
7.203713448E0,4.378499985E0,-3.450399876E0,-6.632599831E0,8.664173471E0
7.213713448E0,4.422199726E0,-2.977200031E0,-7.586400032E0,9.272164574E0
7.223713448E0,3.875599861E0,-2.149099827E0,-7.591699600E0,8.790495274E0
7.233713448E0,3.950799942E0,-1.058300018E0,-6.985899925E0,8.095160090E0
7.243713448E0,3.280699968E0,-1.328899980E0,-7.105199814E0,7.938062222E0
7.253715011E0,2.097599983E0,-2.004499912E0,-5.811399937E0,6.495407209E0
7.263713448E0,1.329800010E0,-2.679699898E0,-3.896799803E0,4.912657968E0
7.273713448E0,5.830000043E-1,-3.434899807E0,-1.773999929E0,3.909667689E0
7.283713448E0,-3.722999990E-1,-4.699899673E0,6.013000011E-1,4.752812422E0
7.293713448E0,-1.302899957E0,-6.601999760E0,2.147399902E0,7.063658787E0
7.303719698E0,-2.853299856E0,-8.248999596E0,3.600999832E0,9.442166816E0
7.313713448E0,-5.238100052E0,-9.601900101E0,4.804800034E0,1.194655938E1
7.323713448E0,-8.617699623E0,-1.072939968E1,5.508399963E0,1.482319920E1
7.333713448E0,-8.535499573E0,-9.279500008E0,4.439399719E0,1.336682996E1
7.343713448E0,-6.733399868E0,-6.694099903E0,2.570600033E0,9.836545726E0
7.353716573E0,-5.229899883E0,-4.443799973E0,1.951499939E0,7.134953609E0
7.363713448E0,-4.632800102E0,-2.584699869E0,1.456499934E0,5.501354584E0
7.373713448E0,-3.785699844E0,-8.090999722E-1,1.407899976E0,4.119265519E0
7.383713448E0,-3.475099802E0,1.104399920E0,8.604999781E-1,3.746528797E0
7.393713448E0,-1.618099928E0,3.309099913E0,1.921399951E0,4.154535760E0
7.403713448E0,9.432999492E-1,4.370599747E0,3.675199986E0,5.787836545E0
7.413713448E0,8.256999850E-1,3.613999844E0,6.060400009E0,7.104310213E0
7.423719698E0,-5.383999944E-1,3.209800005E0,5.726799965E0,6.587027286E0
7.433713448E0,-8.125999570E-1,3.449800014E0,5.018799782E0,6.144085781E0
7.443713448E0,-3.958999813E-1,3.427999973E0,5.010499954E0,6.083833529E0
7.453713448E0,3.637000024E-1,3.660300016E0,3.823499918E0,5.305584372E0
7.463713448E0,8.058999777E-1,3.661799908E0,3.282099962E0,4.983014499E0
7.473713448E0,1.295199990E0,3.134099960E0,3.315500021E0,4.742643352E0
7.483713448E0,5.888000131E-1,2.901299953E0,2.713500023E0,4.015882126E0
7.493713448E0,-2.624000013E-1,2.186599970E0,3.061899900E0,3.771644759E0
7.503713448E0,-1.298299909E0,1.873299956E0,3.375099897E0,4.072607850E0
7.513713448E0,-2.068799973E0,2.306799889E0,4.597499847E0,5.544209944E0
7.523713448E0,-2.891499996E0,3.345199823E0,5.680099964E0,7.198240736E0
7.533713448E0,-3.196799994E0,4.337299824E0,5.463999748E0,7.673786107E0
7.543718136E0,-3.201299906E0,5.108099937E0,6.212499619E0,8.656567309E0
7.553713448E0,-3.147899866E0,5.639400005E0,6.904299736E0,9.454176899E0
7.563713448E0,-3.540199995E0,6.025599957E0,6.502199650E0,9.545651949E0
7.573713448E0,-3.916299820E0,6.189899921E0,6.368199825E0,9.705989611E0
7.583713448E0,-3.832499981E0,6.130399704E0,5.442999840E0,9.049646617E0
7.593719698E0,-3.235299826E0,5.932799816E0,4.350699902E0,8.037031060E0
7.603713448E0,-2.786399841E0,5.635200024E0,2.930899858E0,6.936113996E0
7.613711886E0,-2.109499931E0,5.280499935E0,1.324299932E0,5.838444984E0
7.623713448E0,-2.193099976E0,4.266799927E0,-2.329999954E-2,4.797479756E0
7.633713448E0,-1.856399894E0,2.689299822E0,-1.472999930E0,3.584450152E0
7.643713448E0,-1.068499923E0,6.053999662E-1,-2.565299988E0,2.844110622E0
7.653713448E0,3.989000022E-1,-1.640599966E0,-3.953199863E0,4.298660096E0
7.663722823E0,1.549699903E0,-5.265100002E0,-7.284499645E0,9.120678862E0
7.673713448E0,2.216099977E0,-9.862699509E0,-1.310899925E1,1.655384554E1
7.683713448E0,4.150399685E0,-1.415429974E1,-1.905249977E1,2.409497388E1
7.693713448E0,5.974499702E0,-1.591789913E1,-1.639859962E1,2.362177447E1
7.703713448E0,6.271699905E0,-1.415799999E1,-9.957599640E0,1.841024101E1
7.713713448E0,4.507899761E0,-1.004729939E1,-5.064599991E0,1.212103784E1
7.723713448E0,3.618599892E0,-6.059299946E0,-2.888200045E0,7.625685576E0
7.733713448E0,2.144199848E0,-2.478499889E0,-9.255999923E-1,3.405479414E0
7.743713448E0,5.812000036E-1,5.856999755E-1,-6.709999591E-2,8.278528341E-1
7.753713448E0,-5.895000100E-1,2.593699932E0,1.689999923E-2,2.659901353E0
7.763713448E0,-1.496399999E0,2.677999973E0,3.750000000E-1,3.090553642E0
7.773713448E0,-1.920699954E0,6.944999695E-1,5.566999912E-1,2.116916012E0
7.783725948E0,-1.488999963E0,-2.692499876E0,3.536499977E0,4.687590912E0
7.793713448E0,-1.869099975E0,-5.915599823E0,8.596399307E0,1.060122337E1
7.803713448E0,-5.043999672E0,-7.407999992E0,9.952599525E0,1.339308157E1
7.813713448E0,-7.131999969E0,-6.026299953E0,8.025099754E0,1.231194301E1
7.823713448E0,-7.518099785E0,-2.727599859E0,6.332399845E0,1.020102510E1
7.833727511E0,-7.534199715E0,2.496999949E-1,5.620999813E0,9.403305500E0
7.843713448E0,-7.538499832E0,3.303200006E0,8.251000047E-1,8.271692694E0
7.853713448E0,-7.791800022E0,6.472199917E0,-8.761499405E0,1.339273651E1
7.863713448E0,-7.224899769E0,6.723199844E0,-2.668799877E0,1.022365324E1
7.873713448E0,-6.748299599E0,4.724899769E0,8.074999809E0,1.153559046E1
7.883716573E0,-5.288899899E0,2.891199827E0,1.248349953E1,1.386251272E1
7.893713448E0,-3.313599825E0,2.003299952E0,1.196679974E1,1.257765679E1
7.903713448E0,-1.968699932E0,1.336199999E0,1.019569969E1,1.046964670E1
7.913713448E0,-1.558899999E0,-4.789999872E-2,8.218099594E0,8.364784788E0
7.923713448E0,-1.483399987E0,-1.308599949E0,6.395899773E0,6.694807185E0
7.933713448E0,-1.492999911E0,-1.939499974E0,4.725100040E0,5.321398245E0
7.943713448E0,-1.374799967E0,-2.110800028E0,3.943300009E0,4.679227144E0
7.953727511E0,-1.416399956E0,-1.795399904E0,4.235799789E0,4.813693957E0
7.963722823E0,-1.163499951E0,-1.248999953E0,4.185299873E0,4.520007528E0
7.973713448E0,-1.049799919E0,-4.921000004E-1,3.575399876E0,3.758686812E0
7.983713448E0,4.518999755E-1,4.931999743E-1,2.881299973E0,2.957929907E0
7.993713448E0,1.885899901E0,1.208400011E0,2.129299879E0,3.090431523E0
8.003713448E0,2.627300024E0,1.302699924E0,1.436800003E0,3.265597458E0
8.013713448E0,2.573499918E0,5.821999907E-1,9.344999790E-1,2.799133592E0
8.023713448E0,3.508299828E0,-7.066000104E-1,-1.235999987E-1,3.580883720E0
8.033713448E0,4.292900085E0,-1.913699985E0,-2.871500015E0,5.507880819E0
8.043713448E0,4.587199688E0,-2.378900051E0,-4.647500038E0,6.949879354E0
8.053721261E0,4.404399872E0,-1.811699986E0,-5.789999962E0,7.497005711E0
8.063713448E0,3.518800020E0,-1.269599915E0,-6.193199635E0,7.235299527E0
8.073713448E0,2.766299963E0,-7.407000065E-1,-5.084499836E0,5.835511166E0
8.083713448E0,1.950299978E0,-1.085999981E-1,-3.438299894E0,3.954411477E0
8.093713448E0,1.720499992E0,8.694999814E-1,-1.996599913E0,2.775348924E0
8.103725948E0,2.116899967E0,1.615999937E0,-1.013700008E0,2.849615584E0
8.113713448E0,1.994399905E0,1.900999904E0,-3.103999794E-1,2.772684577E0
8.123713448E0,9.321999550E-1,1.549399972E0,-5.999999866E-2,1.809208951E0
8.133713448E0,4.177999794E-1,1.403299928E0,2.631999850E-1,1.487643016E0
8.143713448E0,1.789999940E-2,1.245299935E0,8.988999724E-1,1.535940591E0
8.153713448E0,4.831999838E-1,1.103699923E0,1.208500028E0,1.706489982E0
8.163713448E0,7.904999852E-1,9.591999650E-1,1.131399989E0,1.680779800E0
8.173715011E0,9.321999550E-1,8.325999975E-1,8.822999597E-1,1.529925727E0
8.183713448E0,9.443999529E-1,7.048000097E-1,4.583999813E-1,1.264422741E0
8.193713448E0,7.962999940E-1,2.221999913E-1,-4.118999839E-1,9.236493454E-1
8.203713448E0,8.028999567E-1,-4.000999928E-1,-1.722499967E0,1.942095384E0
8.213713448E0,9.243999720E-1,-1.132900000E0,-3.083799839E0,3.412887218E0
8.223713448E0,1.100199938E0,-1.797999978E0,-3.941499949E0,4.469750068E0
8.233713448E0,1.418599963E0,-2.628599882E0,-4.328599930E0,5.259157779E0
8.243713448E0,1.910099983E0,-3.544399977E0,-4.626699924E0,6.133319275E0
8.253713448E0,2.940399885E0,-4.092899799E0,-4.130899906E0,6.516296056E0
8.263713448E0,3.723799944E0,-4.380799770E0,-2.730999947E0,6.365253597E0
8.273713448E0,3.863199949E0,-4.762199879E0,-2.524199963E0,6.631323170E0
8.283713448E0,5.039000034E0,-4.622299671E0,-2.075700045E0,7.146027307E0
8.293713448E0,5.577199936E0,-4.264899731E0,-1.486099958E0,7.176560592E0
8.303713448E0,6.159899712E0,-4.395499706E0,-1.714199901E0,7.759076197E0
8.313713448E0,6.334699631E0,-4.522399902E0,-2.674499989E0,8.230034658E0
8.323713448E0,6.550600052E0,-4.475699902E0,-4.846699715E0,9.296921467E0
8.333713448E0,6.374399662E0,-3.780699968E0,-6.973399639E0,1.017619604E1
8.343713448E0,5.831999779E0,-2.856799841E0,-8.394700050E0,1.061341207E1
8.353713448E0,4.504600048E0,-2.175899982E0,-9.437899590E0,1.068175599E1
8.363713448E0,3.064800024E0,-2.007699966E0,-9.411600113E0,1.009960767E1
8.373713448E0,1.413800001E0,-1.820199966E0,-8.314599991E0,8.628124441E0
8.383713448E0,-4.228999913E-1,-1.974900007E0,-6.625400066E0,6.926398810E0
8.393713448E0,-1.859699965E0,-3.486599922E0,-3.898999929E0,5.551311865E0
8.403713448E0,-1.945299983E0,-4.464799881E0,-4.434999824E-1,4.890329461E0
8.413713448E0,-1.108500004E0,-5.349899769E0,1.868499994E0,5.774209212E0
8.423713448E0,-1.431100011E0,-6.442199707E0,3.135099888E0,7.306082097E0
8.433713448E0,-2.969099998E0,-7.464799881E0,4.652299881E0,9.283463052E0
8.443713448E0,-5.729099751E0,-8.583399773E0,5.960599899E0,1.191746981E1
8.453713448E0,-7.473899841E0,-8.758399963E0,5.723899841E0,1.285814054E1
8.463713448E0,-6.888199806E0,-6.950699806E0,4.487100124E0,1.076538861E1
8.473713448E0,-5.121399879E0,-4.682099819E0,3.269299984E0,7.670666062E0
8.483713448E0,-4.290599823E0,-2.746899843E0,2.881899834E0,5.853208713E0
8.493721261E0,-3.328699827E0,-1.329399943E0,3.107699871E0,4.743979894E0
8.503713448E0,-3.430099964E0,-2.090999931E-1,2.223399878E0,4.093020350E0
8.513713448E0,-3.827999830E0,1.218099952E0,4.439999759E-1,4.041594509E0
8.523713448E0,-3.136399984E0,2.426199913E0,5.935999751E-1,4.009465277E0
8.533713448E0,-1.563599944E0,3.213599920E0,2.863399982E0,4.579424494E0
8.543725948E0,-1.006799936E0,3.585699797E0,5.552899837E0,6.686223579E0
8.553713448E0,-7.211999893E-1,3.528399944E0,6.686100006E0,7.594318197E0
8.563713448E0,-1.206300020E0,3.404999971E0,5.748099804E0,6.788949543E0
8.573713448E0,-9.548999667E-1,3.400399923E0,4.786299706E0,5.948379481E0
8.583713448E0,-6.499999762E-2,3.698299885E0,3.046200037E0,4.791761858E0
8.593713448E0,9.478999972E-1,3.792999983E0,2.598599911E0,4.694473855E0
8.603713448E0,1.747499943E0,3.674599886E0,2.568899870E0,4.812035631E0
8.613711886E0,1.556999922E0,3.454099894E0,3.242899895E0,4.987128889E0
8.623713448E0,2.929999828E-1,2.700299978E0,4.321499825E0,5.104197263E0
8.633713448E0,-1.017199993E0,2.250399828E0,4.916599751E0,5.501994940E0
8.643713448E0,-2.015499830E0,2.434299946E0,5.128099918E0,6.023741741E0
8.653713448E0,-3.139400005E0,3.119799852E0,4.905999660E0,6.607406161E0
8.663713448E0,-3.851099968E0,4.054699898E0,5.099400043E0,7.568054111E0
8.673713448E0,-3.712399960E0,4.826600075E0,6.475199699E0,8.888542788E0
8.683713448E0,-3.310499907E0,5.350499630E0,6.919999599E0,9.352734914E0
8.693713448E0,-3.328899860E0,5.670799732E0,6.622399807E0,9.332508938E0
8.703713448E0,-3.676699877E0,5.937200069E0,5.933099747E0,9.163522208E0
8.713713448E0,-3.605399847E0,6.227999687E0,5.048500061E0,8.790576831E0
8.723713448E0,-3.293599844E0,6.229599953E0,3.888199806E0,8.048218016E0
8.733713448E0,-2.942399979E0,5.824599743E0,1.958199978E0,6.813092319E0
8.743713448E0,-2.388200045E0,5.148399830E0,4.289999977E-2,5.675505323E0
8.753713448E0,-2.313599825E0,3.316200018E0,-1.416999936E0,4.284602143E0
8.763724386E0,-1.865499973E0,6.998999715E-1,-1.650999904E0,2.587614887E0
8.773713448E0,-6.092000008E-1,-2.319000006E0,-1.849799991E0,3.028307394E0
8.783713448E0,9.386999607E-1,-6.035299778E0,-5.499499798E0,8.218911062E0
8.793713448E0,1.816999912E0,-1.039229965E1,-1.341379929E1,1.706550298E1
8.803713448E0,3.859799862E0,-1.443089962E1,-1.948929977E1,2.455568619E1
8.813713448E0,4.234999657E0,-1.595179939E1,-1.709930038E1,2.376512570E1
8.823713448E0,4.780900002E0,-1.350489998E1,-1.122970009E1,1.820289791E1
8.833713448E0,4.351200104E0,-9.015199661E0,-6.036499977E0,1.168957224E1
8.843716573E0,3.453199863E0,-4.648699760E0,-2.681599855E0,6.381690728E0
8.853713448E0,2.584100008E0,-8.042999506E-1,3.037000000E-1,2.723362802E0
8.863713448E0,1.092700005E0,1.843799949E0,1.470999956E0,2.599506188E0
8.873713448E0,4.230000079E-2,3.994399786E0,2.426999956E-1,4.001989784E0
8.883713448E0,-7.598999739E-1,4.334899902E0,2.690999806E-1,4.409219878E0
8.893713448E0,-1.345600009E0,2.695299864E0,1.608099937E0,3.414859609E0
8.903713448E0,-7.807999849E-1,2.500000000E-1,4.084199905E0,4.165673713E0
8.913713448E0,-1.084399939E0,-2.304600000E0,6.551199913E0,7.028892138E0
8.923713448E0,-2.968499899E0,-5.120899677E0,7.600899696E0,9.633757385E0
8.933719698E0,-5.301300049E0,-6.642399788E0,6.782999992E0,1.087356179E1
8.943713448E0,-7.287899971E0,-5.803499699E0,6.030399799E0,1.109773925E1
8.953713448E0,-7.904799938E0,-4.001800060E0,4.453599930E0,9.916391386E0
8.963721261E0,-7.798899651E0,-1.685099959E0,2.917000055E-1,7.984202310E0
8.973713448E0,-7.545199871E0,2.324899912E0,-5.894599915E0,9.852994918E0
8.983713448E0,-6.912899971E0,5.184700012E0,-5.525899887E0,1.025694252E1
8.993713448E0,-6.242899895E0,4.547199726E0,3.517400026E0,8.486632276E0
9.003713448E0,-5.539999962E0,2.461799860E0,9.320599556E0,1.111870650E1
9.013713448E0,-4.120199680E0,1.869300008E0,1.044549942E1,1.138326781E1
9.023713448E0,-3.565099955E0,1.416999936E0,9.921899796E0,1.063775926E1
9.033713448E0,-2.576900005E0,8.428999782E-1,9.383299828E0,9.767149516E0
9.043713448E0,-1.735799909E0,1.248999983E-1,8.436999321E0,8.614613101E0
9.053713448E0,-1.577299953E0,-7.088999748E-1,6.625199795E0,6.847166322E0
9.063713448E0,-1.011999965E0,-9.359999895E-1,4.414299965E0,4.624530689E0
9.073713448E0,-7.089999914E-1,-8.047999740E-1,3.277099848E0,3.448154202E0
9.083713448E0,-8.046999574E-1,-5.078999996E-1,2.563799858E0,2.734698181E0
9.093721261E0,-5.680999756E-1,-4.919999838E-2,2.586699963E0,2.648806320E0
9.103713448E0,-2.500999868E-1,5.622999668E-1,2.622499943E0,2.693740375E0
9.113713448E0,8.999999613E-2,1.032500029E0,2.308899879E0,2.530844713E0
9.123713448E0,2.921999991E-1,1.058499932E0,2.169899940E0,2.431926952E0
9.133713448E0,8.440999985E-1,8.567000031E-1,1.918799996E0,2.264560251E0
9.143721261E0,1.139999986E0,1.825999916E-1,2.487200022E0,2.742098954E0
9.153713448E0,1.492999911E0,-6.951999664E-1,2.982499838E0,3.407001176E0
9.163713448E0,2.715699911E0,-1.083299994E0,8.851999640E-1,3.054855784E0
9.173713448E0,4.087899685E0,-1.050199986E0,-1.791000009E0,4.584923650E0
9.183716573E0,5.061699867E0,-1.144099951E0,-4.189399719E0,6.669395794E0
9.193713448E0,5.029999733E0,-1.148199916E0,-6.226299763E0,8.086165290E0
9.203713448E0,4.139599800E0,-4.672999978E-1,-6.815700054E0,7.988017465E0
9.213713448E0,3.014899969E0,2.549999952E-1,-5.802499771E0,6.543978180E0
9.223718136E0,2.530299902E0,6.460999846E-1,-4.058799744E0,4.826356612E0
9.233713448E0,2.169100046E0,7.921999693E-1,-2.898599863E0,3.706002829E0
9.243713448E0,1.763399959E0,7.899999619E-1,-2.233999968E0,2.953715492E0
9.253713448E0,1.049399972E0,6.387000084E-1,-1.851999998E0,2.222404552E0
9.263713448E0,6.714999676E-1,6.211999655E-1,-1.373099923E0,1.649910604E0
9.273713448E0,8.682000041E-1,5.701000094E-1,-7.105999589E-1,1.258466356E0
9.283713448E0,1.251600027E0,3.095999956E-1,-1.511999965E-1,1.298158782E0
9.293713448E0,1.403100014E0,3.215000033E-1,3.881999850E-1,1.490889375E0
9.303713448E0,1.258799911E0,2.633999884E-1,8.976999521E-1,1.568381960E0
9.313713448E0,1.230000019E0,-5.150000006E-2,8.032000065E-1,1.469926035E0
9.323713448E0,1.225899935E0,-4.959999919E-1,7.229999453E-2,1.324414562E0
9.333713448E0,1.648699999E0,-9.821999669E-1,-1.213500023E0,2.270574986E0
9.343713448E0,1.889099956E0,-1.420799971E0,-2.532699823E0,3.464381560E0
9.353713448E0,2.125200033E0,-1.535499930E0,-3.359799862E0,4.261747333E0
9.363713448E0,2.487400055E0,-1.746399999E0,-3.858199835E0,4.911494473E0
9.373713448E0,3.014799833E0,-2.483299971E0,-4.170000076E0,5.713553834E0
9.383713448E0,3.212100029E0,-3.292599916E0,-3.900199890E0,6.030784359E0
9.393713448E0,3.656399965E0,-3.928099871E0,-3.087699890E0,6.191374638E0
9.403713448E0,3.757999897E0,-4.527899742E0,-2.163599968E0,6.269418165E0
9.413713448E0,3.388799906E0,-4.937999725E0,-2.057899952E0,6.332673867E0
9.423713448E0,3.425400019E0,-5.142199993E0,-2.884699821E0,6.818876676E0
9.433713448E0,3.478099823E0,-5.326999664E0,-4.160299778E0,7.601460257E0
9.443713448E0,3.860299826E0,-5.411399841E0,-5.839699745E0,8.848008595E0
9.453713448E0,4.282700062E0,-4.919799805E0,-7.398799896E0,9.863477573E0
9.463713448E0,4.108200073E0,-3.778499842E0,-8.590299606E0,1.024439438E1
9.473713448E0,3.803299904E0,-2.261699915E0,-8.972599983E0,1.000439539E1
9.483713448E0,3.180599928E0,-1.363399982E0,-8.605500221E0,9.275220185E0
9.493713448E0,2.631599903E0,-1.030399919E0,-7.783799648E0,8.280976936E0
9.503713448E0,2.375200033E0,-1.327899933E0,-6.042799950E0,6.627241105E0
9.513713448E0,1.527899981E0,-2.309999943E0,-4.077499866E0,4.929156444E0
9.523727511E0,3.107999861E-1,-3.549199820E0,-1.229699969E0,3.769028788E0
9.533713448E0,9.999999311E-4,-4.626199722E0,1.884699941E0,4.995379739E0
9.543713448E0,-1.467999965E-1,-5.490099907E0,3.873600006E0,6.720678852E0
9.553713448E0,-1.454599977E0,-6.744400024E0,4.475699902E0,8.224030787E0
9.563713448E0,-3.636399984E0,-8.181200027E0,4.016600132E0,9.812671163E0
9.573719698E0,-5.592999935E0,-8.781700134E0,3.914599895E0,1.112312896E1
9.583713448E0,-6.589499950E0,-7.963399887E0,4.157299995E0,1.114093311E1
9.593713448E0,-5.829599857E0,-5.890299797E0,4.732899666E0,9.543594996E0
9.603713448E0,-3.933499813E0,-3.696199894E0,4.167699814E0,6.819386789E0
9.613713448E0,-3.742999792E0,-2.391899824E0,4.631099701E0,6.417033322E0
9.623718136E0,-4.607399940E0,-1.160699964E0,3.479499817E0,5.889166120E0
9.633713448E0,-3.846899986E0,-9.109999985E-2,8.065999746E-1,3.931608098E0
9.643713448E0,-3.436199903E0,7.368999720E-1,-9.670999646E-1,3.644965526E0
9.653713448E0,-3.107100010E0,1.815799952E0,-3.346999884E-1,3.614308235E0
9.663713448E0,-2.313099861E0,2.723399878E0,2.603299856E0,4.420917100E0
9.673713448E0,-1.440500021E0,3.126099825E0,5.522099972E0,6.507006111E0
9.683713448E0,-1.112800002E0,3.248199940E0,7.227900028E0,8.001978850E0
9.693713448E0,-3.032999933E-1,3.512799978E0,6.705999851E0,7.576423205E0
9.703722823E0,-5.741999745E-1,3.187700033E0,5.908999920E0,6.738502591E0
9.713713448E0,-1.815000027E-1,3.127199888E0,4.192800045E0,5.233726551E0
9.723713448E0,3.249000013E-1,3.408799887E0,3.121199846E0,4.633288806E0
9.733713448E0,6.046999693E-1,3.514799833E0,2.946899891E0,4.626413177E0
9.743713448E0,6.796000004E-1,3.235599995E0,3.431200027E0,4.764881647E0
9.753713448E0,-1.440999955E-1,2.814899921E0,3.886799812E0,4.801212259E0
9.763713448E0,-1.070099950E0,2.608199835E0,3.784899950E0,4.719458434E0
9.773713448E0,-1.735899925E0,2.792599916E0,4.347000122E0,5.450538772E0
9.783718136E0,-2.977099895E0,3.372999907E0,4.963200092E0,6.698776553E0
9.793713448E0,-3.619400024E0,4.364599705E0,6.062999725E0,8.301189842E0
9.803713448E0,-3.095599890E0,5.547499657E0,6.752399921E0,9.271051495E0
9.813713448E0,-2.542999983E0,6.366699696E0,7.407599926E0,1.009327749E1
9.823713448E0,-2.574399948E0,6.827600002E0,7.620499611E0,1.055062421E1
9.833716573E0,-2.933599949E0,7.101699829E0,6.512199879E0,1.007218429E1
9.843713448E0,-3.358799934E0,7.062799931E0,5.257299900E0,9.423581172E0
9.853713448E0,-3.638700008E0,6.817499638E0,3.461899996E0,8.467773653E0
9.863713448E0,-3.550099850E0,6.314499855E0,1.575699925E0,7.413430219E0
9.873713448E0,-3.181299925E0,5.118199825E0,-1.260000020E-1,6.027645864E0
9.883718136E0,-2.853999853E0,2.892999887E0,-1.185500026E0,4.233222628E0
9.893713448E0,-2.059700012E0,9.889999777E-2,-1.872999907E0,2.785726835E0
9.903713448E0,-6.047999859E-1,-3.012599945E0,-3.615899801E0,4.745131487E0
9.913713448E0,2.633000016E-1,-7.086599827E0,-8.531199455E0,1.109371841E1
9.923713448E0,3.062000036E0,-1.265699959E1,-2.001609993E1,2.387927426E1
9.933713448E0,5.645699978E0,-1.770590019E1,-2.469839859E1,3.090928215E1
9.943713448E0,5.845900059E0,-1.842020035E1,-1.754500008E1,2.610182668E1
9.953724386E0,5.486700058E0,-1.412539959E1,-7.825799942E0,1.705502670E1
9.963713448E0,3.399999857E0,-8.999199867E0,-3.180099964E0,1.013205967E1
9.973713448E0,2.481099844E0,-4.175099850E0,-8.668999672E-1,4.933440052E0
9.983713448E0,1.027699947E0,-2.547000051E-1,-6.049000025E-1,1.219402840E0
9.993713448E0,-7.684999704E-1,2.442899942E0,4.640999734E-1,2.602641181E0
1.000371345E1,-2.653899908E0,3.566099882E0,2.312999964E0,5.011010070E0
1.001371345E1,-3.593499899E0,2.653699875E0,4.038199902E0,6.021828875E0
1.002371345E1,-3.544199944E0,6.199999899E-2,3.060899973E0,4.683407508E0
1.003371345E1,-1.710199952E0,-3.127399921E0,3.404599905E0,4.929169774E0
1.004371345E1,-1.254199982E0,-6.339200020E0,3.980499983E0,7.589654445E0
1.005372126E1,-1.853399992E0,-6.678699970E0,4.248099804E0,8.129358939E0
1.006371345E1,-3.291599989E0,-2.997399807E0,5.032199860E0,6.718784973E0
1.007371345E1,-4.877199650E0,8.201999664E-1,5.546099663E0,7.430950537E0
1.008371345E1,-4.973199844E0,2.964900017E0,4.726500034E0,7.474165597E0
1.009371345E1,-5.576200008E0,4.592799664E0,7.845999599E-1,7.266595653E0
1.010371970E1,-7.083899975E0,5.571099758E0,-2.136800051E0,9.262003338E0
1.011371345E1,-6.933099747E0,4.464099884E0,4.069099903E0,9.195304992E0
1.012371345E1,-5.181299686E0,2.498299837E0,9.380700111E0,1.100385855E1
1.013371345E1,-3.236899853E0,1.283399940E0,1.011399937E1,1.069661719E1
1.014371345E1,-2.753399849E0,3.281999826E-1,9.238699913E0,9.645854137E0
1.015371345E1,-2.815799952E0,-7.587999701E-1,8.285599709E0,8.783829990E0
1.016371345E1,-2.667799950E0,-1.727800012E0,6.995999813E0,7.684169626E0
1.017371814E1,-2.111899853E0,-2.267400026E0,5.369999886E0,6.199848598E0
1.018371345E1,-6.829000115E-1,-2.007299900E0,4.417599678E0,4.900080839E0
1.019371345E1,-1.699999906E-3,-1.711799979E0,3.818499804E0,4.184638910E0
1.020371345E1,-2.493999898E-1,-1.408299923E0,3.534600019E0,3.812991781E0
1.021371345E1,-4.300999939E-1,-9.208999872E-1,2.922299862E0,3.094006993E0
1.022371345E1,4.113000035E-1,-9.399999678E-2,2.224900007E0,2.264549345E0
1.023371345E1,1.258999944E0,4.544999897E-1,1.664399981E0,2.135855425E0
1.024371345E1,1.303300023E0,6.679999828E-1,1.263999939E0,1.934556997E0
1.025371345E1,1.208899975E0,3.716999888E-1,1.541799903E0,1.994178270E0
1.026372439E1,1.719399929E0,-7.229999453E-2,-6.919999719E-1,1.854838906E0
1.027371345E1,2.546599865E0,-3.539999947E-2,-3.208699942E0,4.096605833E0
1.028371345E1,3.053599834E0,-2.929999866E-2,-5.023299694E0,5.878679295E0
1.029371345E1,3.524899960E0,2.988999784E-1,-6.114899635E0,7.064436175E0
1.030371345E1,2.581799984E0,4.851000011E-1,-5.654500008E0,6.234932518E0
1.031372439E1,1.370800018E0,4.053999782E-1,-3.952899933E0,4.203434276E0
1.032371345E1,1.765199900E0,2.838999927E-1,-1.865899920E0,2.584204405E0
1.033371345E1,1.321499944E0,1.022999957E-1,1.022999957E-1,1.329395607E0
1.034371345E1,9.781999588E-1,5.090000033E-1,1.165899992E0,1.604767570E0
1.035371345E1,8.927999735E-1,7.681999803E-1,1.718799949E0,2.083625750E0
1.036372282E1,1.093199968E0,1.115000010E0,1.714199901E0,2.318791170E0
1.037371345E1,8.423999548E-1,1.215699911E0,1.554299951E0,2.145556407E0
1.038371345E1,8.385999799E-1,1.255800009E0,1.229599953E0,1.947357089E0
1.039371345E1,8.995999694E-1,1.195199966E0,9.939999580E-1,1.796056508E0
1.040371345E1,8.892999887E-1,1.102499962E0,9.879999757E-1,1.726992932E0
1.041371345E1,1.063599944E0,7.907999754E-1,8.957999945E-1,1.599708434E0
1.042371345E1,6.352999806E-1,6.419999897E-2,3.450999856E-1,7.258248448E-1
1.043373376E1,6.139999628E-1,-8.140999675E-1,-7.069999576E-1,1.240807661E0
1.044371345E1,6.234999895E-1,-1.472899914E0,-2.402999878E0,2.886623426E0
1.045371345E1,7.066999674E-1,-1.833799958E0,-4.435400009E0,4.851290588E0
1.046371345E1,9.391999841E-1,-2.100899935E0,-6.105299950E0,6.524612220E0
1.047371345E1,1.470600009E0,-2.573899984E0,-7.291100025E0,7.870690255E0
1.048371345E1,2.308699846E0,-3.532399893E0,-7.677499771E0,8.760818838E0
1.049371345E1,3.685899973E0,-3.913699865E0,-6.560099602E0,8.481616121E0
1.050371345E1,4.127699852E0,-3.832099915E0,-4.551599979E0,7.241543910E0
1.051371345E1,5.044699669E0,-3.946599960E0,-3.443799973E0,7.272166407E0
1.052371345E1,5.469999790E0,-4.543200016E0,-2.093999863E0,7.412583862E0
1.053371345E1,5.997999668E0,-5.390999794E0,-1.468599916E0,8.197296171E0
1.054371345E1,6.516699791E0,-5.394999981E0,-1.962999940E0,8.684858647E0
1.055371345E1,6.567899704E0,-5.014599800E0,-3.486099958E0,8.968634823E0
1.056371345E1,5.524399757E0,-4.991799831E0,-5.594199657E0,9.313008539E0
1.057371345E1,5.012000084E0,-3.980199814E0,-7.328699589E0,9.729952367E0
1.058371345E1,4.824399948E0,-2.309099913E0,-8.067199707E0,9.679178084E0
1.059371345E1,4.302799702E0,-8.517999649E-1,-8.026899338E0,9.147172319E0
1.060375720E1,4.071300030E0,-1.928000003E-1,-7.784699917E0,8.787161576E0
1.061371345E1,2.549499989E0,-3.348999918E-1,-6.431900024E0,6.926864090E0
1.062371345E1,2.351599932E0,-1.589900017E0,-3.931199789E0,4.848931437E0
1.063371345E1,7.857999802E-1,-3.659999847E0,-7.562999725E-1,3.819040474E0
1.064371345E1,1.769999973E-2,-4.684799671E0,1.847799897E0,5.036072449E0
1.065371345E1,-2.257999927E-1,-6.194200039E0,3.527799845E0,7.131933223E0
1.066371345E1,-1.092999935E0,-7.556200027E0,4.270999908E0,8.748271140E0
1.067371345E1,-3.155099869E0,-9.170199394E0,4.500799656E0,1.069132404E1
1.068371345E1,-5.758899689E0,-1.019320011E1,4.634500027E0,1.259145919E1
1.069371345E1,-7.215199947E0,-1.009749985E1,4.457600117E0,1.318669072E1
1.070371345E1,-6.613499641E0,-7.884899616E0,4.073899746E0,1.106827352E1
1.071371345E1,-4.786099911E0,-5.330699921E0,3.737099886E0,8.080162718E0
1.072371345E1,-3.533900023E0,-3.462699890E0,2.865099907E0,5.717301582E0
1.073371345E1,-3.271499872E0,-1.777699947E0,1.833899975E0,4.150435837E0
1.074371345E1,-3.807299852E0,-1.856999993E-1,4.351999760E-1,3.836589068E0
1.075371345E1,-3.843699932E0,1.068599939E0,-9.429000020E-1,4.099389639E0
1.076371345E1,-2.578899860E0,2.378700018E0,-1.796000004E-1,3.513003619E0
1.077371345E1,-1.750299931E0,3.154799938E0,2.758100033E0,4.541302488E0
1.078371345E1,-1.491799951E0,2.778699875E0,5.500400066E0,6.340429085E0
1.079371345E1,-1.473699927E0,2.530099869E0,7.240599632E0,7.810216377E0
1.080371345E1,-1.668699980E0,2.664099932E0,7.664099693E0,8.283743850E0
1.081371345E1,-1.132399917E0,2.845000029E0,5.802799702E0,6.561161415E0
1.082371345E1,-9.487999678E-1,2.791499853E0,4.207200050E0,5.137433705E0
1.083371345E1,-7.310999632E-1,3.081199884E0,3.383699894E0,4.634406635E0
1.084371345E1,-3.429999948E-1,3.326900005E0,2.898000002E0,4.425417116E0
1.085372126E1,-1.041800022E0,3.527499914E0,2.001800060E0,4.187577631E0
1.086371345E1,-7.856000066E-1,4.141600132E0,6.868999600E-1,4.271047949E0
1.087371345E1,-1.633399963E0,3.535499811E0,1.818799973E0,4.298347089E0
1.088371345E1,-2.377399921E0,3.058899879E0,4.309299946E0,5.794735963E0
1.089371345E1,-2.754799843E0,3.570199966E0,6.409399986E0,7.836814286E0
1.090371345E1,-2.916199923E0,4.597799778E0,7.647399902E0,9.387582759E0
1.091371345E1,-2.847100019E0,5.482100010E0,7.518599987E0,9.730814190E0
1.092371345E1,-2.877499819E0,5.943699837E0,7.073099613E0,9.676585715E0
1.093371345E1,-3.082700014E0,6.300199986E0,6.716899872E0,9.711452163E0
1.094371345E1,-3.302299976E0,6.544699669E0,6.416499615E0,9.742163322E0
1.095371345E1,-3.311199903E0,6.864899635E0,5.581699848E0,9.447024135E0
1.096371345E1,-3.234499931E0,6.928899765E0,4.217799664E0,8.732781674E0
1.097371345E1,-2.798399925E0,6.822799683E0,2.198899984E0,7.695245207E0
1.098371345E1,-2.200199842E0,6.237999916E0,5.199999809E-1,6.635052545E0
1.099371345E1,-1.799199939E0,4.916500092E0,-8.758999705E-1,5.308134732E0
1.100372126E1,-2.112699986E0,2.328299999E0,-1.092299938E0,3.328303062E0
1.101371345E1,-8.980999589E-1,-3.980999887E-1,-1.384199977E0,1.697373475E0
1.102371345E1,1.756999940E-1,-4.085700035E0,-3.553299904E0,5.417541460E0
1.103371345E1,5.120999813E-1,-9.898099899E0,-1.102269936E1,1.482344525E1
1.104371345E1,4.836599827E0,-1.627569962E1,-2.630249977E1,3.130674991E1
1.105371345E1,7.839299679E0,-1.981519890E1,-2.499069977E1,3.284253038E1
1.106371345E1,7.677399635E0,-1.811610031E1,-1.299909973E1,2.358203022E1
1.107371345E1,5.018899918E0,-1.247589970E1,-3.926299810E0,1.400904207E1
1.108371345E1,2.792099953E0,-6.433300018E0,6.693999767E-1,7.044946245E0
1.109371345E1,3.160399914E0,-2.615000010E-1,-8.740999699E-1,3.289462057E0
1.110371970E1,2.684499979E0,3.983199835E0,-2.872699976E0,5.596858602E0
1.111371345E1,1.139599919E0,6.930199623E0,-2.100999951E-1,7.026414221E0
1.112372439E1,-7.818999887E-1,8.007299423E0,4.127299786E0,9.042279313E0
1.113371345E1,-3.069099903E0,6.441699982E0,7.106699944E0,1.007075255E1
1.114371345E1,-4.323999882E0,3.062999964E0,7.245199680E0,8.976183051E0
1.115371345E1,-5.150799751E0,-9.391999841E-1,7.484899998E0,9.134361645E0
1.116371345E1,-6.971799850E0,-4.589799881E0,7.244999886E0,1.105270462E1
1.117371345E1,-8.972399712E0,-7.393999577E0,6.333099842E0,1.323946147E1
1.118371345E1,-9.870999336E0,-8.117199898E0,6.366399765E0,1.427783625E1
1.119371345E1,-9.734899521E0,-7.386799812E0,3.808799982E0,1.280000146E1
1.120371345E1,-9.528299332E0,-6.926699638E0,-6.592700005E0,1.349930922E1
1.121371345E1,-8.041199684E0,-1.591899991E0,-1.170440006E1,1.428943731E1
1.122371345E1,-4.639999866E0,3.504999876E0,-3.165899992E0,6.620992800E0
1.123371345E1,-2.600299835E0,4.066400051E0,8.316599846E0,9.615768384E0
1.124371345E1,-1.660399914E0,2.974099874E0,1.216399956E1,1.263190734E1
1.125371345E1,-7.319999933E-1,2.760599852E0,1.163689995E1,1.198224419E1
1.126371345E1,-5.654000044E-1,2.336199999E0,1.049629974E1,1.076799962E1
1.127371345E1,-3.574000001E-1,1.763899922E0,1.022639942E1,1.038356022E1
1.128371345E1,-6.685000062E-1,4.523999989E-1,9.595499992E0,9.629391368E0
1.129371345E1,-6.760999560E-1,-9.236999750E-1,6.878200054E0,6.972802075E0
1.130371501E1,-8.309999853E-2,-1.684499979E0,5.118099689E0,5.388820856E0
1.131371345E1,-3.971000016E-1,-2.147899866E0,3.634500027E0,4.240371763E0
1.132371345E1,-1.601699948E0,-2.208199978E0,2.808699846E0,3.915403516E0
1.133371345E1,-1.725799918E0,-1.612800002E0,1.945199966E0,3.059952959E0
1.134371345E1,-3.511999846E-1,-9.879999608E-2,2.252300024E0,2.281656913E0
1.135371345E1,7.542999983E-1,1.327799916E0,2.769799948E0,3.162880468E0
1.136371345E1,9.781000018E-1,1.868499994E0,2.644399881E0,3.382428503E0
1.137371501E1,9.472999573E-1,1.986899972E0,2.378399849E0,3.240668843E0
1.138371345E1,1.188399911E0,1.311399937E0,3.476399899E0,3.900951217E0
1.139371345E1,1.910099983E0,1.375999898E-1,9.195999503E-1,2.124401038E0
1.140371345E1,2.710899830E0,-6.873999834E-1,-2.347899914E0,3.651592889E0
1.141371345E1,3.452499866E0,-8.732999563E-1,-4.987799644E0,6.128666530E0
1.142371345E1,3.186599970E0,-5.293999910E-1,-6.411200047E0,7.179008967E0
1.143371345E1,2.250399828E0,-1.692000031E-1,-6.560199738E0,6.937517468E0
1.144371345E1,1.465999961E0,4.399999976E-2,-5.611799717E0,5.800292057E0
1.145371345E1,1.022400022E0,8.119999617E-2,-3.926499844E0,4.058238074E0
1.146371345E1,9.323999882E-1,2.447999865E-1,-2.516199827E0,2.694542325E0
1.147371345E1,6.547999978E-1,2.202999890E-1,-1.473099947E0,1.627058258E0
1.148371345E1,5.816999674E-1,3.107999861E-1,-1.133199930E0,1.311149711E0
1.149371345E1,1.057699919E0,5.746999979E-1,-1.096599936E0,1.628355190E0
1.150371345E1,1.119899988E0,8.944999576E-1,-9.833999872E-1,1.738212212E0
1.151371345E1,1.276499987E0,1.152899981E0,-5.464999676E-1,1.804797162E0
1.152371345E1,1.674999952E0,1.349699974E0,2.680999935E-1,2.167762087E0
1.153372282E1,1.605599999E0,1.034399986E0,6.061999798E-1,2.003849572E0
1.154371345E1,1.713599920E0,2.263999879E-1,3.344999850E-1,1.760560104E0
1.155371345E1,1.672399998E0,-7.213999629E-1,-2.415999919E-1,1.837310593E0
1.156371345E1,1.842799902E0,-1.319700003E0,-1.469599962E0,2.701341079E0
1.157371345E1,2.234200001E0,-1.685899973E0,-3.047099829E0,4.137478185E0
1.158372282E1,2.494899988E0,-2.145799875E0,-4.297699928E0,5.412874258E0
1.159371345E1,2.701599836E0,-2.704499960E0,-5.077699661E0,6.355784417E0
1.160371345E1,3.202999830E0,-3.162699938E0,-5.352900028E0,6.993955785E0
1.161371345E1,3.820499897E0,-3.416100025E0,-4.896100044E0,7.087859655E0
1.162371345E1,4.066100121E0,-3.570599794E0,-3.632799864E0,6.517636683E0
1.163371345E1,4.492599964E0,-3.960899830E0,-2.053200006E0,6.331493676E0
1.164371345E1,4.526899815E0,-4.590199947E0,-6.064000130E-1,6.475374774E0
1.165371501E1,4.093699932E0,-4.914400101E0,-6.159999967E-1,6.425664439E0
1.166371345E1,3.278199911E0,-5.075599670E0,-3.161599874E0,6.819385635E0
1.167371345E1,3.287199974E0,-5.152400017E0,-5.909100056E0,8.501198331E0
1.168371345E1,4.016699791E0,-4.197400093E0,-8.386499405E0,1.020222608E1
1.169371345E1,4.024399757E0,-3.043900013E0,-9.388199806E0,1.065830269E1
1.170371345E1,4.053800106E0,-2.022500038E0,-9.248299599E0,1.029829341E1
1.171371345E1,4.129399776E0,-1.088699937E0,-8.541500092E0,9.549577681E0
1.172371501E1,4.000800133E0,-6.000999808E-1,-7.025399685E0,8.106957655E0
1.173371345E1,3.420199871E0,-9.641999602E-1,-5.311500072E0,6.390577575E0
1.174371345E1,2.025399923E0,-2.176399946E0,-3.279399872E0,4.426446102E0
1.175371345E1,1.061499953E0,-3.319899797E0,-6.912999749E-1,3.553366358E0
1.176371345E1,4.369999841E-2,-4.670799732E0,1.301999927E0,4.849070389E0
1.177371345E1,-3.093000054E-1,-5.885699749E0,2.618499994E0,6.449315487E0
1.178371345E1,-7.955999970E-1,-6.914599895E0,3.013399839E0,7.584540175E0
1.179371345E1,-2.242699862E0,-8.314199448E0,2.895900011E0,9.085254647E0
1.180371345E1,-4.348499775E0,-9.261300087E0,2.500699997E0,1.053255098E1
1.181371345E1,-6.296000004E0,-9.267799377E0,2.755699873E0,1.153800690E1
1.182371501E1,-6.927399635E0,-7.610799789E0,4.171099663E0,1.110455814E1
1.183371345E1,-5.040800095E0,-5.260499954E0,4.199500084E0,8.409418905E0
1.184371345E1,-3.573999882E0,-3.153999805E0,4.441899776E0,6.515494114E0
1.185371345E1,-3.745499849E0,-1.659199953E0,3.920300007E0,5.670138071E0
1.186371345E1,-3.442299843E0,-5.970000029E-1,2.245699883E0,4.153192167E0
1.187371345E1,-2.846499920E0,6.331999898E-1,9.589999914E-2,2.917653309E0
1.188371345E1,-2.760900021E0,2.003399849E0,5.442999601E-1,3.454336742E0
1.189371345E1,-9.511999488E-1,2.998800039E0,4.446399689E0,5.446838827E0
1.190371345E1,-4.398999810E-1,2.770599842E0,5.296599865E0,5.993638762E0
1.191371345E1,-1.056999922E0,2.272500038E0,4.477299690E0,5.131054256E0
1.192371345E1,-1.394299984E0,2.601699829E0,4.501199722E0,5.382723603E0
1.193371345E1,-6.430999637E-1,2.924599886E0,4.541500092E0,5.439860765E0
1.194372595E1,9.359999895E-1,3.385699987E0,3.584800005E0,5.018949239E0
1.195371345E1,3.652999997E-1,3.660499811E0,2.768699884E0,4.604172239E0
1.196371345E1,5.870000124E-1,3.475099802E0,3.442999840E0,4.926980368E0
1.197371345E1,5.570000038E-2,3.211599827E0,3.224399805E0,4.551288833E0
1.198371345E1,-7.993999720E-1,3.014299870E0,3.696699858E0,4.836386446E0
1.199371345E1,-1.648800015E0,2.970099926E0,4.597199917E0,5.716142243E0
1.200371345E1,-2.728399992E0,3.239499807E0,5.925299644E0,7.283385298E0
1.201371345E1,-3.583699942E0,3.917999983E0,5.858599663E0,7.906757815E0
1.202371345E1,-3.974900007E0,4.599299908E0,6.552299976E0,8.937898225E0
1.203371345E1,-3.443799973E0,5.158099651E0,7.247099876E0,9.538669031E0
1.204371345E1,-3.053299904E0,5.891900063E0,7.331199646E0,9.888559799E0
1.205371345E1,-3.241299868E0,6.539799690E0,7.075299740E0,1.016537610E1
1.206371345E1,-3.476599932E0,7.007599831E0,6.385900021E0,1.009816427E1
1.207371345E1,-3.684099913E0,7.199899673E0,4.942699909E0,9.478471916E0
1.208371345E1,-3.499399900E0,7.371699810E0,3.322700024E0,8.810680632E0
1.209371345E1,-3.309799910E0,7.224999905E0,1.754499912E0,8.138407031E0
1.210371345E1,-3.433599949E0,6.367899895E0,2.395999879E-1,7.238588663E0
1.211371345E1,-3.077699900E0,4.030900002E0,-7.568999529E-1,5.127698220E0
1.212371345E1,-1.225099921E0,5.741999745E-1,-2.360999882E-1,1.373433155E0
1.213371345E1,3.366999924E-1,-3.010999918E0,-1.518299937E0,3.388911638E0
1.214371345E1,1.433999985E-1,-7.276099682E0,-6.552599907E0,9.792791006E0
1.215371657E1,1.703199983E0,-1.232399940E1,-2.027960014E1,2.379167992E1
1.216371345E1,6.222399712E0,-1.721129990E1,-2.708930016E1,3.269215938E1
1.217371345E1,9.158800125E0,-1.814329910E1,-1.810479927E1,2.721849883E1
1.218371345E1,8.892199516E0,-1.400500011E1,-6.659800053E0,1.787635805E1
1.219371345E1,5.284699917E0,-8.914299965E0,-1.810099959E0,1.051994577E1
1.220372595E1,3.136499882E0,-4.046899796E0,7.900999784E-1,5.180664768E0
1.221371345E1,1.527999997E0,-2.599999867E-2,-1.671800017E0,2.265033176E0
1.222371345E1,-5.691999793E-1,1.513599992E0,-2.702399969E0,3.149275971E0
1.223371345E1,-1.608799934E0,1.775699973E0,-1.215999946E-1,2.399194486E0
1.224371345E1,-1.883699894E0,1.038999915E0,1.965299964E0,2.913803367E0
1.225371345E1,-7.049999833E-1,-9.350999594E-1,4.063699722E0,4.229077008E0
1.226371345E1,-4.465000033E-1,-4.555999756E0,6.896699905E0,8.277739161E0
1.227372439E1,-3.250200033E0,-8.052899361E0,7.569399834E0,1.151993065E1
1.228371345E1,-6.484799862E0,-7.773699760E0,7.035999775E0,1.232835472E1
1.229371345E1,-7.213199615E0,-4.166899681E0,5.839600086E0,1.017321143E1
1.230371345E1,-7.236699581E0,-2.078999877E-1,4.613100052E0,8.584505537E0
1.231371345E1,-7.951499939E0,2.882200003E0,7.609999925E-2,8.458086033E0
1.232371345E1,-8.060799599E0,6.654500008E0,-8.727199554E0,1.361700674E1
1.233371345E1,-6.979799747E0,7.460199833E0,-1.304299951E0,1.029919339E1
1.234371345E1,-6.211999893E0,5.381399632E0,1.025109959E1,1.313900481E1
1.235372282E1,-4.685499668E0,3.707299948E0,1.517770004E1,1.631136287E1
1.236371345E1,-3.109999895E0,2.921999931E0,1.406769943E1,1.470069217E1
1.237371345E1,-2.862999916E0,1.557999969E0,1.098619938E1,1.145952483E1
1.238371345E1,-3.472800016E0,-3.091000021E-1,8.456199646E0,9.146758727E0
1.239371345E1,-3.340600014E0,-2.050499916E0,6.010699749E0,7.175839312E0
1.240371501E1,-2.038199902E0,-2.573799849E0,3.546899796E0,4.833135903E0
1.241371345E1,-1.922999978E0,-2.724099874E0,2.060899973E0,3.919943589E0
1.242371345E1,-2.195999861E0,-2.551599979E0,1.820199966E0,3.827036159E0
1.243371345E1,-1.889599919E0,-1.555999994E0,1.803200006E0,3.040272044E0
1.244371345E1,-1.448699951E0,-4.711999893E-1,1.646899939E0,2.243443867E0
1.245371345E1,-6.812999845E-1,5.473999977E-1,1.096499920E0,1.402187042E0
1.246371345E1,7.910000086E-1,1.559599996E0,1.348199964E0,2.208093363E0
1.247371345E1,2.209300041E0,1.950099945E0,2.404199839E0,3.803166225E0
1.248371501E1,2.459199905E0,1.703999996E0,2.745499849E0,4.060671076E0
1.249371345E1,2.336599827E0,7.260999680E-1,3.740999937E0,4.470123090E0
1.250371345E1,3.380800009E0,-3.425999880E-1,3.316599846E0,4.748370035E0
1.251371345E1,3.900499821E0,-1.488899946E0,5.812999606E-1,4.215285464E0
1.252371345E1,4.329299927E0,-1.852899909E0,-2.364300013E0,5.269344407E0
1.253371345E1,4.217899799E0,-1.737699986E0,-4.592899799E0,6.473407798E0
1.254371345E1,3.516099930E0,-1.396799922E0,-6.006799698E0,7.098989460E0
1.255371345E1,3.309199810E0,-4.131999910E-1,-5.977799892E0,6.845117177E0
1.256371345E1,3.259399891E0,4.424999952E-1,-4.724400043E0,5.756687386E0
1.257371345E1,2.641299963E0,9.570999742E-1,-2.840199947E0,3.994901951E0
1.258371345E1,1.786799908E0,1.070500016E0,-1.927799940E0,2.838139673E0
1.259371345E1,8.823999763E-1,7.846999764E-1,-1.646999955E0,2.026571643E0
1.260371345E1,6.453999877E-1,8.980999589E-1,-1.322899938E0,1.724293747E0
1.261371189E1,6.183999777E-1,1.155099988E0,-7.937999964E-1,1.531924590E0
1.262371345E1,1.019600034E0,1.437299967E0,2.768000066E-1,1.783825571E0
1.263371345E1,1.090899944E0,1.273999929E0,5.774999857E-1,1.773878446E0
1.264371657E1,1.020499945E0,7.544999719E-1,5.802999735E-1,1.395506504E0
1.265371345E1,8.211999536E-1,2.229999900E-1,8.734999895E-1,1.219467339E0
1.266371345E1,6.636999846E-1,-4.675999880E-1,7.052999735E-1,1.075451287E0
1.267371345E1,4.390999973E-1,-1.151499987E0,-7.511000037E-1,1.443229795E0
1.268371345E1,3.274999857E-1,-1.789799929E0,-2.681399822E0,3.240454448E0
1.269372439E1,6.987000108E-1,-2.371500015E0,-4.405600071E0,5.051881433E0
1.270371345E1,1.292099953E0,-3.167899847E0,-5.273200035E0,6.285837282E0
1.271371345E1,2.461899996E0,-3.852099895E0,-5.495800018E0,7.148667221E0
1.272371345E1,3.941200018E0,-3.961299896E0,-5.002599716E0,7.500063891E0
1.273371345E1,5.112099648E0,-3.758699894E0,-3.663699865E0,7.326942364E0
1.274371970E1,5.950699806E0,-3.705199957E0,-2.020200014E0,7.295241120E0
1.275371345E1,6.411299706E0,-3.646899939E0,-1.120700002E0,7.460603968E0
1.276372126E1,5.729799747E0,-3.429399967E0,-1.598199964E0,6.866267720E0
1.277371345E1,4.592999935E0,-3.406899929E0,-3.414599895E0,6.660488569E0
1.278371345E1,4.343199730E0,-3.529399872E0,-5.579899788E0,7.902868403E0
1.279371345E1,4.253299713E0,-3.272300005E0,-7.261699677E0,9.029440069E0
1.280371345E1,3.853999853E0,-2.561100006E0,-8.562899590E0,9.733231606E0
1.281371345E1,3.455399990E0,-1.523000002E0,-9.188899994E0,9.934545847E0
1.282372595E1,3.721499920E0,-8.382999897E-1,-9.146499634E0,9.910134413E0
1.283371345E1,2.994799852E0,-6.963999867E-1,-8.127099991E0,8.689278069E0
1.284371345E1,2.188299894E0,-9.174000025E-1,-5.125299931E0,5.647918074E0
1.285371345E1,1.514599919E0,-1.813199997E0,-2.780200005E0,3.648454359E0
1.286371345E1,-5.089999735E-2,-4.064300060E0,-3.899999857E-1,4.083286149E0
1.287371345E1,-1.146999955E0,-5.808499813E0,1.633999944E0,6.142005763E0
1.288371345E1,-1.661399961E0,-7.496899605E0,2.653100014E0,8.124204158E0
1.289371345E1,-2.449800014E0,-9.107299805E0,2.575899839E0,9.776486579E0
1.290371345E1,-4.132800102E0,-1.042179966E1,1.306399941E0,1.128718856E1
1.291371345E1,-5.864999771E0,-1.066599941E1,3.410999775E-1,1.217695015E1
1.292371345E1,-6.581299782E0,-9.361399651E0,8.607999682E-1,1.147563884E1
1.293372126E1,-6.675699711E0,-7.488800049E0,1.442499995E0,1.013547725E1
1.294371345E1,-6.332599640E0,-5.557099819E0,1.696799994E0,8.594318287E0
1.295371345E1,-4.059999943E0,-3.476899862E0,1.972999930E0,5.697820716E0
1.296371345E1,-3.671099901E0,-1.784999967E0,2.343400002E0,4.706880382E0
1.297371345E1,-3.933699846E0,-3.210999966E-1,2.928699970E0,4.914710897E0
1.298371501E1,-4.039099693E0,9.465000033E-1,2.732399940E0,4.967514270E0
1.299371345E1,-3.620100021E0,2.087499857E0,3.598099947E0,5.514444944E0
1.300371345E1,-1.461099982E0,3.525399923E0,5.373799801E0,6.590977323E0
1.301371345E1,-3.790000081E-2,4.091000080E0,7.141799927E0,8.230615060E0
1.302371345E1,-4.930000007E-2,3.467499971E0,7.786799908E0,8.524097568E0
1.303372439E1,-7.558999658E-1,2.824499846E0,6.083299637E0,6.749497656E0
1.304371345E1,-9.448999763E-1,2.302399874E0,5.312900066E0,5.866923236E0
1.305371345E1,-4.098999798E-1,2.305799961E0,3.813199997E0,4.474955382E0
1.306371345E1,6.651999950E-1,2.232499838E0,3.337599993E0,4.070149908E0
1.307371345E1,7.718999982E-1,2.924000025E0,1.976399899E0,3.612722285E0
1.308371345E1,-2.134999931E-1,3.284799814E0,1.285899997E0,3.533982296E0
1.309371345E1,-1.229099989E0,3.210299969E0,2.467599869E0,4.231520032E0
1.310371657E1,-2.773699999E0,3.564800024E0,3.249399900E0,5.564154078E0
1.311371657E1,-3.870199919E0,4.104199886E0,4.682799816E0,7.331542691E0
1.312371345E1,-5.085499763E0,4.902499676E0,5.795199871E0,9.136802092E0
1.313371345E1,-5.003799915E0,5.663099766E0,6.384099960E0,9.892696541E0
1.314371345E1,-3.734999895E0,6.369699955E0,7.216599941E0,1.032485431E1
1.315371345E1,-3.271999836E0,6.684199810E0,7.358199596E0,1.046554401E1
1.316371345E1,-3.217999935E0,6.846199989E0,6.819999695E0,1.018520367E1
1.317371345E1,-3.222800016E0,6.848299980E0,6.245699883E0,9.812972006E0
1.318371345E1,-3.054399967E0,6.780200005E0,5.082599640E0,9.007401976E0
1.319371345E1,-2.706799984E0,6.720599651E0,3.466300011E0,8.031715980E0
1.320371345E1,-2.246099949E0,6.224400043E0,1.597800016E0,6.807428720E0
1.321371345E1,-1.710999966E0,4.494100094E0,-6.771000028E-1,4.856224969E0
1.322371345E1,-1.785099983E0,1.206900001E0,-2.120599985E0,3.023265430E0
1.323371345E1,-5.613999963E-1,-2.155200005E0,-1.902099967E0,2.928829340E0
1.324371345E1,7.096999884E-1,-5.113699913E0,-2.989899874E0,5.965995485E0
1.325372282E1,2.494799852E0,-9.699799538E0,-1.466729927E1,1.776062514E1
1.326371345E1,6.504999638E0,-1.400969982E1,-1.829179955E1,2.394110774E1
1.327371345E1,7.956499577E0,-1.589969921E1,-1.359229946E1,2.237983300E1
1.328371345E1,7.930699825E0,-1.424409962E1,-8.299699783E0,1.829413540E1
1.329371345E1,6.338799953E0,-1.011889935E1,-5.573400021E0,1.317707466E1
1.330372439E1,3.048300028E0,-5.431499958E0,-4.817800045E0,7.874295024E0
1.331371345E1,6.978999972E-1,-1.292500019E0,-4.716799736E0,4.940224737E0
1.332371345E1,-7.326999903E-1,2.237699986E0,-3.971799850E0,4.617287575E0
1.333371345E1,-1.878099918E0,4.174699783E0,-1.829299927E0,4.929677049E0
1.334371345E1,-3.070199966E0,4.627099991E0,2.540499926E0,6.106580224E0
1.335371345E1,-4.974400043E0,3.448499918E0,5.686100006E0,8.304730023E0
1.336371345E1,-6.940399647E0,6.717000008E-1,5.844399929E0,9.098205245E0
1.337371345E1,-8.268499374E0,-2.789099932E0,4.616799831E0,9.872284488E0
1.338371657E1,-9.351799965E0,-5.778999805E0,4.470999718E0,1.186772260E1
1.339371345E1,-9.436299324E0,-7.629799843E0,3.284600019E0,1.257164221E1
1.340371345E1,-9.126599312E0,-8.179699898E0,5.248999596E-1,1.226694034E1
1.341371345E1,-7.243700027E0,-6.133999825E0,-2.042700052E0,9.709261941E0
1.342371345E1,-5.370599747E0,-1.933699965E0,-1.100399971E0,5.813210584E0
1.343371345E1,-3.672499895E0,1.897799969E0,7.847999930E-1,4.207708549E0
1.344371345E1,-2.360800028E0,4.500299931E0,4.762199879E0,6.964526109E0
1.345371345E1,-2.120800018E0,4.218999863E0,9.245299339E0,1.038139261E1
1.346371345E1,-1.957199931E0,2.998299837E0,9.527899742E0,1.017847272E1
1.347371345E1,-1.542999983E0,2.556799889E0,8.725099564E0,9.222008296E0
1.348371501E1,-1.536599994E0,2.073199987E0,8.639499664E0,9.016665247E0
1.349371345E1,-1.250199914E0,1.495000005E0,7.886899948E0,8.124113221E0
1.350371345E1,-1.002900004E0,2.787999809E-1,6.914399624E0,6.992314353E0
1.351371345E1,-3.097999990E-1,-5.098999739E-1,5.710999966E0,5.742081037E0
1.352371345E1,-3.470999897E-1,-1.000000000E0,5.060299873E0,5.169827194E0
1.353372282E1,-3.603000045E-1,-1.073499918E0,4.342400074E0,4.487611455E0
1.354371345E1,-2.689999938E-1,-7.013999820E-1,4.447700024E0,4.510693786E0
1.355371345E1,4.999999888E-3,-6.819999963E-2,4.098499775E0,4.099070217E0
1.356371345E1,1.152999997E-1,3.475999832E-1,3.662799835E0,3.681062682E0
1.357371345E1,1.680999994E-1,7.226999998E-1,3.002300024E0,3.092629679E0
1.358372282E1,5.489999652E-1,8.157999516E-1,1.831699967E0,2.078955337E0
1.359371345E1,5.800999999E-1,8.109999895E-1,1.809299946E0,2.065866232E0
1.360371345E1,9.052000046E-1,3.192999959E-1,1.864199996E0,2.096802604E0
1.361371501E1,2.055700064E0,-3.499999940E-1,-6.026999950E-1,2.170633555E0
1.362371345E1,2.751899958E0,-6.074999571E-1,-3.723199844E0,4.669499615E0
1.363371345E1,3.265599966E0,-4.629999995E-1,-6.088399887E0,6.924386278E0
1.364371345E1,2.757999897E0,-2.877999842E-1,-7.005899906E0,7.534721346E0
1.365371345E1,1.142699957E0,-4.087999761E-1,-6.590199947E0,6.701016039E0
1.366372907E1,4.728999734E-1,-7.452999949E-1,-5.087599754E0,5.163601236E0
1.367371345E1,1.146700025E0,-3.272999823E-1,-3.188199997E0,3.403919130E0
1.368371345E1,1.223199964E0,1.779999882E-1,-1.498099923E0,1.942216653E0
1.369371345E1,9.980999827E-1,5.351999998E-1,-5.184999704E-1,1.245586141E0
1.370371345E1,9.011999965E-1,8.127999902E-1,-1.114000008E-1,1.218694062E0
1.371371345E1,8.944000006E-1,1.020099998E0,6.399999838E-3,1.356685787E0
1.372371345E1,9.602999687E-1,1.087999940E0,-1.765999943E-1,1.461884899E0
1.373371345E1,8.646000028E-1,1.064999938E0,-2.479999959E-1,1.394009337E0
1.374371345E1,1.109499931E0,8.037999868E-1,4.519999772E-2,1.370812736E0
1.375371345E1,1.457999945E0,6.474999785E-1,1.159999967E-1,1.599523698E0
1.376371345E1,1.562199950E0,4.196999967E-1,-1.979999989E-1,1.629668915E0
1.377371345E1,1.643999934E0,-9.559999406E-2,-8.637999892E-1,1.859576716E0
1.378371345E1,1.701499939E0,-7.911999822E-1,-2.089499950E0,2.808399811E0
1.379371345E1,1.791299939E0,-1.480099916E0,-3.650099993E0,4.326971365E0
1.380371345E1,1.973699927E0,-2.208799839E0,-5.180599689E0,5.967654587E0
1.381371345E1,2.183899879E0,-2.963799953E0,-5.970900059E0,7.014640145E0
1.382371345E1,2.444299936E0,-3.663199902E0,-5.789599895E0,7.274139306E0
1.383371345E1,3.049199820E0,-3.765899897E0,-4.868999958E0,6.869263582E0
1.384371345E1,3.659799814E0,-3.448699951E0,-3.407099962E0,6.074207453E0
1.385371345E1,3.828599930E0,-3.233299971E0,-1.539799929E0,5.242460295E0
1.386371345E1,3.102900028E0,-3.623499870E0,-1.067399979E0,4.888464238E0
1.387371345E1,3.157799959E0,-3.966499805E0,-1.757900000E0,5.366100418E0
1.388371345E1,3.623399973E0,-4.448400021E0,-3.156199932E0,6.548197318E0
1.389371345E1,3.864799976E0,-5.026000023E0,-4.758299828E0,7.927091039E0
1.390371345E1,3.914799929E0,-5.056900024E0,-6.082599640E0,8.825866230E0
1.391371345E1,3.554699898E0,-4.332299709E0,-7.003499985E0,8.969600001E0
1.392371345E1,3.372999907E0,-3.018699884E0,-7.922499657E0,9.124454952E0
1.393371345E1,3.705799818E0,-1.805199981E0,-8.345399857E0,9.307921252E0
1.394371345E1,3.515799999E0,-8.499999642E-1,-7.410899639E0,8.246501260E0
1.395371345E1,2.774600029E0,-5.882999897E-1,-5.455899715E0,6.149092933E0
1.396371345E1,1.412999988E0,-1.282199979E0,-3.756999969E0,4.213745901E0
1.397371345E1,2.569999918E-2,-2.800400019E0,-2.087599993E0,3.492989334E0
1.398371345E1,-9.386000037E-1,-4.165599823E0,-6.699999794E-3,4.270039431E0
1.399371345E1,-1.635299921E0,-5.289299965E0,2.497200012E0,6.073459299E0
1.400371345E1,-1.989299893E0,-6.423999786E0,4.137099743E0,7.895611541E0
1.401372595E1,-3.405200005E0,-7.438199997E0,4.240299702E0,9.214247003E0
1.402371345E1,-5.255399704E0,-8.114099503E0,3.424399853E0,1.025594224E1
1.403371345E1,-6.552299976E0,-7.991599560E0,1.830599904E0,1.049520817E1
1.404371345E1,-6.304800034E0,-6.582999706E0,9.494999647E-1,9.164493373E0
1.405371345E1,-4.488199711E0,-4.517799854E0,3.431999981E-1,6.377479001E0
1.406371657E1,-3.106999874E0,-2.736699820E0,4.842999876E-1,4.168635340E0
1.407371345E1,-3.729699850E0,-1.355399966E0,1.532599926E0,4.254013702E0
1.408371345E1,-4.137199879E0,-3.926999867E-1,2.007599831E0,4.615310737E0
1.409371345E1,-3.866299868E0,4.628999829E-1,1.843099952E0,4.308081765E0
1.410371345E1,-2.749599934E0,1.675599933E0,1.581499934E0,3.587349575E0
1.411371345E1,-1.369300008E0,2.561699867E0,4.836100101E0,5.641378636E0
1.412371345E1,4.242999852E-1,2.736999989E0,6.373499870E0,6.949294929E0
1.413371345E1,1.982999891E-1,2.464200020E0,6.221199989E0,6.694395711E0
1.414371345E1,-1.525999904E-1,2.463199854E0,5.674499989E0,6.187939107E0
1.415371345E1,3.322999775E-1,2.843199968E0,4.943099976E0,5.712131538E0
1.416371345E1,3.858000040E-1,2.893100023E0,3.772899866E0,4.770077860E0
1.417371345E1,-1.412999928E-1,2.733399868E0,2.884799957E0,3.976620590E0
1.418371345E1,-2.926000059E-1,2.514799833E0,2.487599850E0,3.549364165E0
1.419371345E1,-7.364999652E-1,2.961699963E0,1.936800003E0,3.614594461E0
1.420371345E1,-1.078400016E0,2.894999981E0,2.513200045E0,3.982479874E0
1.421371345E1,-1.668399930E0,2.953500032E0,2.880599976E0,4.450233363E0
1.422371345E1,-2.300299883E0,3.385699987E0,3.443799973E0,5.349215102E0
1.423371345E1,-2.789099932E0,3.909799814E0,5.010900021E0,6.940801973E0
1.424371345E1,-2.980700016E0,4.501999855E0,6.870999813E0,8.738604792E0
1.425371345E1,-2.999899864E0,5.121099949E0,7.641799927E0,9.675855001E0
1.426371345E1,-3.245499849E0,5.763400078E0,7.350399971E0,9.888297602E0
1.427371345E1,-3.726099968E0,6.146899700E0,6.719699860E0,9.839845685E0
1.428371345E1,-4.282700062E0,6.172599792E0,6.341599941E0,9.831500284E0
1.429371345E1,-4.649399757E0,6.097300053E0,5.565599918E0,9.474697277E0
1.430371345E1,-4.515299797E0,5.990200043E0,4.360099792E0,8.676456593E0
1.431371345E1,-3.952899933E0,5.840899944E0,2.694000006E0,7.549779207E0
1.432371345E1,-2.944399834E0,5.530099869E0,1.154299974E0,6.370549691E0
1.433371345E1,-2.274600029E0,4.144000053E0,1.403999925E-1,4.729297399E0
1.434371345E1,-2.197499990E0,1.397400022E0,-3.915999830E-1,2.633454684E0
1.435371345E1,-1.439799905E0,-1.582799911E0,-1.418900013E0,2.567402690E0
1.436371657E1,-4.668999910E-1,-4.596799850E0,-5.121500015E0,6.897704464E0
1.437371345E1,9.279999733E-1,-8.736599922E0,-1.181709957E1,1.472525736E1
1.438371345E1,4.020299911E0,-1.406759930E1,-2.201269913E1,2.643140337E1
1.439371345E1,5.839099884E0,-1.779049873E1,-2.200499916E1,2.889319852E1
1.440371345E1,4.487999916E0,-1.696789932E1,-1.496770000E1,2.306694159E1
1.441372595E1,2.155400038E0,-1.191779995E1,-9.344599724E0,1.529709936E1
1.442371345E1,1.777399898E0,-6.474299908E0,-5.402599812E0,8.617644366E0
1.443371345E1,1.407999992E0,-2.409800053E0,-2.317299843E0,3.627599597E0
1.444371345E1,6.352999806E-1,1.168900013E0,4.913999736E-1,1.418240896E0
1.445371345E1,-2.044999897E-1,4.155200005E0,3.923599958E0,5.718578841E0
1.446371657E1,-1.322399974E0,4.712100029E0,7.467999935E0,8.928810190E0
1.447371345E1,-2.626399994E0,1.688899994E0,7.225800037E0,7.871629202E0
1.448371345E1,-2.363699913E0,-1.905900002E0,7.579199791E0,8.164790357E0
1.449372595E1,-3.157500029E0,-5.340699673E0,7.750699997E0,9.928052672E0
1.450371345E1,-5.212100029E0,-6.548899651E0,6.528399944E0,1.061480472E1
1.451371345E1,-6.076600075E0,-5.059499741E0,4.770999908E0,9.235044462E0
1.452371345E1,-5.774899960E0,-2.284999847E0,4.381199837E0,7.600368797E0
1.453371345E1,-5.355999947E0,2.379999906E-1,4.164599895E0,6.788760690E0
1.454371345E1,-5.079499722E0,2.909199953E0,1.122200012E0,5.960209279E0
1.455371345E1,-4.029999733E0,5.662299633E0,-2.667399883E0,7.444296953E0
1.456371345E1,-3.905599833E0,4.696499825E0,1.828699946E0,6.376124540E0
1.457371657E1,-3.853399992E0,2.175099850E0,5.956799984E0,7.420459346E0
1.458371345E1,-3.254400015E0,5.246999860E-1,7.070299625E0,7.800997778E0
1.459371345E1,-3.356099844E0,-5.661999583E-1,7.463299751E0,8.202733187E0
1.460371345E1,-2.844300032E0,-1.365899920E0,7.730099678E0,8.349261422E0
1.461371345E1,-1.511600018E0,-1.879999995E0,7.106599808E0,7.504871446E0
1.462371345E1,-6.549999863E-2,-1.852599978E0,6.098099709E0,6.373636088E0
1.463371345E1,6.683999896E-1,-1.449000001E0,5.108900070E0,5.352309733E0
1.464371345E1,-4.799999762E-3,-8.840999603E-1,4.772500038E0,4.853700897E0
1.465371345E1,1.151999980E-1,2.669999935E-2,4.441699982E0,4.443273867E0
1.466372751E1,-6.430000067E-2,7.050999999E-1,3.807199955E0,3.872476210E0
1.467371345E1,4.212999940E-1,1.630299926E0,3.423699856E0,3.815375766E0
1.468371345E1,5.177000165E-1,2.007799864E0,2.670300007E0,3.380795132E0
1.469371657E1,2.346999943E-1,1.801199913E0,1.286599994E0,2.225925596E0
1.470371345E1,4.777999818E-1,1.148199916E0,-2.278999984E-1,1.264355282E0
1.471371345E1,1.113899946E0,4.226999879E-1,-1.446799994E0,1.874214126E0
1.472371345E1,1.589699984E0,-5.284999609E-1,-2.946899891E0,3.389790143E0
1.473371345E1,1.939399958E0,-7.566999793E-1,-5.044499874E0,5.457182976E0
1.474371814E1,2.137399912E0,-4.969999790E-1,-6.601899624E0,6.957051531E0
1.475371345E1,2.020900011E0,-7.849999517E-2,-6.719199657E0,7.016968230E0
1.476371345E1,1.734499931E0,-9.380000085E-2,-5.361999989E0,5.636340331E0
1.477371345E1,1.771299958E0,-1.188999936E-1,-3.023999929E0,3.506596116E0
1.478371345E1,1.313399911E0,-1.824999899E-1,-8.712999821E-1,1.586659772E0
1.479371345E1,9.666999578E-1,2.938999832E-1,2.441999912E-1,1.039480468E0
1.480371345E1,9.009999633E-1,8.100999594E-1,6.854999661E-1,1.392111016E0
1.481371345E1,3.932999969E-1,8.750000000E-1,2.918999791E-1,1.002753951E0
1.482371345E1,-1.999999949E-4,1.075799942E0,-5.480000004E-2,1.077194781E0
1.483371345E1,3.562999964E-1,1.577299953E0,2.352999896E-1,1.634071881E0
1.484372595E1,7.760999799E-1,1.702799916E0,8.996999860E-1,2.076371546E0
1.485371345E1,1.166499972E0,1.491400003E0,1.107499957E0,2.193525088E0
1.486371345E1,1.404999971E0,7.663999796E-1,8.696999550E-1,1.821475188E0
1.487371345E1,1.634799957E0,-5.069999769E-2,2.333000004E-1,1.652141120E0
1.488371345E1,1.566399932E0,-8.816999793E-1,-9.256999493E-1,2.021861518E0
1.489372439E1,1.530699968E0,-1.549699903E0,-2.404299974E0,3.244267336E0
1.490371345E1,1.361500025E0,-2.073400021E0,-4.128799915E0,4.816602402E0
1.491371345E1,1.543699980E0,-2.313199997E0,-5.565499783E0,6.221630950E0
1.492371345E1,1.737999916E0,-2.843899965E0,-6.094699860E0,6.946493871E0
1.493371345E1,2.308899879E0,-3.534699917E0,-5.557199955E0,6.979082568E0
1.494371345E1,3.629999876E0,-3.767299891E0,-4.444099903E0,6.864362426E0
1.495371345E1,4.741499901E0,-3.492399931E0,-3.052599907E0,6.633026819E0
1.496371345E1,5.690399647E0,-3.191599846E0,-1.888000011E0,6.792017503E0
1.497372751E1,6.033299923E0,-3.287799835E0,-1.107100010E0,6.959598131E0
1.498371345E1,5.447299957E0,-3.941599846E0,-1.431800008E0,6.874542707E0
1.499371189E1,5.251399994E0,-4.539899826E0,-3.240899801E0,7.661026292E0
1.500371345E1,5.506499767E0,-4.786600113E0,-5.470699787E0,9.119300219E0
1.501371345E1,5.620299816E0,-4.007499695E0,-6.922199726E0,9.775718535E0
1.502371345E1,4.924200058E0,-3.430899858E0,-7.381599903E0,9.513508143E0
1.503371345E1,4.294300079E0,-3.222599983E0,-7.000599861E0,8.822389826E0
1.504371345E1,4.075200081E0,-2.807899952E0,-6.637799740E0,8.279610089E0
1.505371345E1,3.548699856E0,-2.416800022E0,-6.253599644E0,7.585624662E0
1.506371345E1,2.261800051E0,-2.386699915E0,-5.033099651E0,6.012002000E0
1.507371345E1,1.148999929E0,-2.743499994E0,-3.700199842E0,4.747470056E0
1.508371345E1,6.780000031E-2,-3.127199888E0,-1.687099934E0,3.553910827E0
1.509371345E1,-6.889999658E-2,-3.258299828E0,7.809999585E-1,3.351302122E0
1.510371345E1,-8.321999907E-1,-4.917999744E0,2.969799995E0,5.805083145E0
1.511371345E1,-2.204200029E0,-6.960199833E0,4.291699886E0,8.468858683E0
1.512371345E1,-4.263899803E0,-8.539500237E0,4.785500050E0,1.067730849E1
1.513371345E1,-6.987099648E0,-9.860799789E0,5.282000065E0,1.318917961E1
1.514371345E1,-8.873899460E0,-1.015929985E1,6.187500000E0,1.484057348E1
1.515371345E1,-7.375499725E0,-7.993000031E0,4.943200111E0,1.194660090E1
1.516371345E1,-5.504799843E0,-5.724699974E0,1.136299968E0,8.022854150E0
1.517372439E1,-4.201799870E0,-3.475099802E0,-1.728099942E0,5.719944946E0
1.518371345E1,-4.258699894E0,-1.611299992E0,-1.404299974E0,4.764962840E0
1.519371345E1,-3.564800024E0,5.411999822E-1,-4.316999912E-1,3.631399388E0
1.520371345E1,-1.818300009E0,2.484499931E0,1.425199986E0,3.392661172E0
1.521371345E1,-1.205299973E0,3.648399830E0,2.973999977E0,4.858831671E0
1.522372595E1,-1.013399959E0,4.042900085E0,4.432199955E0,6.084111851E0
1.523371345E1,-1.348699927E0,4.116699696E0,5.128599644E0,6.713325717E0
1.524371345E1,-1.954099894E0,4.057099819E0,6.345999718E0,7.781405898E0
1.525371345E1,-1.595099926E0,4.148799896E0,6.966599941E0,8.263800524E0
1.526371345E1,-1.686299920E0,4.236499786E0,7.068899632E0,8.411948636E0
1.527372439E1,-1.102200031E0,4.513999939E0,6.437299728E0,7.939135227E0
1.528371345E1,8.064999580E-1,4.017300129E0,6.308599949E0,7.522471391E0
1.529371345E1,2.273200035E0,3.167899847E0,5.078299999E0,6.402511907E0
1.530372126E1,2.487200022E0,2.671499968E0,3.144199848E0,4.817579134E0
1.531371345E1,1.635899901E0,2.085700035E0,3.266099930E0,4.206390599E0
1.532371345E1,3.000000026E-3,1.873399973E0,3.139999866E0,3.656396535E0
1.533371345E1,-1.724999905E0,1.914199948E0,3.130800009E0,4.054835978E0
1.534371345E1,-3.549700022E0,2.088399887E0,4.076999664E0,5.795145434E0
1.535371970E1,-3.764799833E0,2.909399986E0,4.788499832E0,6.750411595E0
1.536371345E1,-2.964499950E0,3.872299910E0,5.479399681E0,7.335310996E0
1.537371345E1,-2.624799967E0,4.531899929E0,6.621699810E0,8.442428573E0
1.538371345E1,-2.100800037E0,5.435299873E0,7.421199799E0,9.435573748E0
1.539371345E1,-2.302000046E0,5.903699875E0,6.876899719E0,9.351183143E0
1.540371345E1,-2.658399820E0,6.018599987E0,6.003200054E0,8.906685483E0
1.541371345E1,-2.861699820E0,6.143599987E0,4.287199974E0,8.019552997E0
1.542371345E1,-3.688099861E0,6.245599747E0,2.458400011E0,7.658546037E0
1.543371345E1,-2.952600002E0,5.888599873E0,7.574999928E-1,6.630781362E0
1.544371345E1,-2.143899918E0,4.864099979E0,-1.169600010E0,5.442769483E0
1.545371345E1,-1.532199979E0,2.595899820E0,-2.441900015E0,3.879330913E0
1.546371345E1,-1.102999970E-1,-1.915999949E-1,-3.200599909E0,3.208226367E0
1.547371657E1,1.455099940E0,-3.452299833E0,-5.844999790E0,6.942601279E0
1.548371345E1,1.886799932E0,-7.232299805E0,-1.032509995E1,1.274652358E1
1.549371345E1,2.489899874E0,-1.157479954E1,-1.792669868E1,2.148353117E1
1.550371345E1,4.226399899E0,-1.406639957E1,-1.767869949E1,2.298396112E1
1.551371345E1,5.805199623E0,-1.392229939E1,-1.285120010E1,1.981625865E1
1.552372126E1,6.565199852E0,-1.008819962E1,-7.470199585E0,1.416606870E1
1.553371345E1,4.278800011E0,-6.357599735E0,-4.368899822E0,8.821252155E0
1.554371345E1,2.398999929E0,-3.042699814E0,-2.737299919E0,4.744052452E0
1.555371345E1,7.105999589E-1,-5.390999913E-1,-1.756599903E0,1.970082313E0
1.556371345E1,-7.318999767E-1,6.424999833E-1,-3.292699814E0,3.433708763E0
1.557371345E1,-1.185899973E0,-4.478999972E-1,-1.067700028E0,1.657394493E0
1.558371345E1,-1.770599961E0,-2.221799850E0,2.371199846E0,3.700541516E0
1.559375720E1,-2.236799955E0,-4.023900032E0,5.842899799E0,7.438717872E0
1.560372282E1,-3.451999903E0,-5.442199707E0,9.025300026E0,1.109008032E1
1.561371345E1,-6.472799778E0,-5.586899757E0,9.447400093E0,1.274221152E1
1.562371345E1,-7.868199825E0,-4.107599735E0,7.391399860E0,1.155048640E1
1.563371345E1,-8.014699936E0,-1.467000008E0,6.946399689E0,1.070700578E1
1.564371345E1,-8.065699577E0,8.552999496E-1,5.353099823E0,9.718164713E0
1.565371345E1,-8.985799789E0,3.492299795E0,-3.597899914E0,1.029007481E1
1.566371345E1,-8.152500153E0,6.118199825E0,-7.231499672E0,1.249760839E1
1.567371501E1,-6.018199921E0,6.226799965E0,4.644099712E0,9.826465805E0
1.568371345E1,-5.465399742E0,4.354199886E0,1.341039944E1,1.512178773E1
1.569371345E1,-5.620800018E0,1.891699910E0,1.525859928E1,1.637060700E1
1.570371345E1,-3.536999941E0,1.339999914E0,1.100719929E1,1.163891767E1
1.571371345E1,-3.556599855E0,4.457999766E-1,9.259300232E0,9.928886188E0
1.572372751E1,-3.275599957E0,-9.272999763E-1,8.088799477E0,8.775996655E0
1.573371345E1,-2.303400040E0,-2.087100029E0,5.714299679E0,6.504987248E0
1.574371345E1,-1.552899957E0,-2.468299866E0,3.732499838E0,4.736618788E0
1.575371345E1,-7.497000098E-1,-2.514899969E0,2.339499950E0,3.515683714E0
1.576371345E1,-4.875999987E-1,-2.218099833E0,1.858299971E0,2.934450444E0
1.577371970E1,-3.677999973E-1,-1.008199930E0,1.916599989E0,2.196610902E0
1.578371345E1,1.085999981E-1,1.749999970E-1,2.144399881E0,2.154267813E0
1.579371345E1,1.109699965E0,9.605999589E-1,2.172299862E0,2.621654627E0
1.580372282E1,2.293599844E0,1.614399910E0,2.058399916E0,3.479065611E0
1.581371345E1,2.487999916E0,1.598199964E0,1.655900002E0,3.389157937E0
1.582371345E1,2.265100002E0,9.128999710E-1,1.044099927E0,2.655976098E0
1.583371345E1,2.315299988E0,4.208999872E-1,6.710999608E-1,2.447068857E0
1.584371345E1,2.417099953E0,-1.815000027E-1,2.793499947E0,3.698507318E0
1.585372282E1,3.064699888E0,-7.071999907E-1,4.212699890E0,5.257314675E0
1.586371345E1,4.230199814E0,-1.400599957E0,1.840000004E-1,4.459834829E0
1.587371345E1,5.622499943E0,-1.365000010E0,-2.590699911E0,6.339357748E0
1.588371345E1,5.187399864E0,-1.140100002E0,-4.924299717E0,7.242766948E0
1.589371345E1,4.164899826E0,-3.393999934E-1,-5.602099895E0,6.988927397E0
1.590371345E1,2.903399944E0,5.509999990E-1,-5.542799950E0,6.281398214E0
1.591371345E1,1.947999954E0,9.534999728E-1,-5.173699856E0,5.609905188E0
1.592371345E1,1.163999915E0,7.791000009E-1,-4.819600105E0,5.019007650E0
1.593371345E1,7.112999558E-1,6.541999578E-1,-4.506099701E0,4.608563738E0
1.594371345E1,5.346999764E-1,6.172999740E-1,-3.876799822E0,3.961885937E0
1.595371345E1,5.788999796E-1,7.656999826E-1,-2.883800030E0,3.039362476E0
1.596371345E1,7.286999822E-1,7.161999941E-1,-1.965199947E0,2.214939486E0
1.597371345E1,7.778999805E-1,5.264999866E-1,-1.314999938E0,1.616030771E0
1.598371345E1,9.411999583E-1,2.352999896E-1,-5.731999874E-1,1.126845896E0
1.599371345E1,1.244599938E0,-1.178999990E-1,2.908999920E-1,1.283570108E0
1.600371345E1,1.370199919E0,-6.704999804E-1,1.200999990E-1,1.530177131E0
1.601371345E1,1.541700006E0,-1.568699956E0,-1.401399970E0,2.607983960E0
1.602371345E1,1.818499923E0,-2.486399889E0,-2.384500027E0,3.895505969E0
1.603371345E1,2.192299843E0,-3.186399937E0,-2.454599857E0,4.580871491E0
1.604371345E1,2.911900043E0,-3.658699989E0,-2.582499981E0,5.341774389E0
1.605371345E1,3.415899992E0,-3.972099781E0,-3.332499981E0,6.208985871E0
1.606371345E1,3.944999933E0,-3.850999832E0,-3.949399948E0,6.781665292E0
1.607371345E1,4.249099731E0,-3.704799891E0,-3.976499796E0,6.898763758E0
1.608371345E1,4.346899986E0,-3.339699984E0,-3.985999823E0,6.777708319E0
1.609371345E1,3.943799973E0,-2.918499947E0,-3.969399929E0,6.310890267E0
1.610371345E1,3.404199839E0,-3.445499897E0,-4.799599648E0,6.818812423E0
1.611371345E1,3.478199959E0,-3.881199837E0,-5.873099804E0,7.852062687E0
1.612371345E1,3.350999832E0,-4.056699753E0,-7.394999981E0,9.075904224E0
1.613371345E1,3.053799868E0,-3.498499870E0,-9.001699448E0,1.012895789E1
1.614371189E1,3.012499809E0,-2.488600016E0,-1.022919941E1,1.095010528E1
1.615372126E1,3.284099817E0,-1.301299930E0,-1.024749947E1,1.083927758E1
1.616371345E1,3.719599962E0,-7.523999810E-1,-8.461599350E0,9.273628911E0
1.617371345E1,3.137599945E0,-1.073799968E0,-5.416999817E0,6.351493273E0
1.618371345E1,2.431200027E0,-2.205999851E0,-2.708699942E0,4.256080860E0
1.619371345E1,2.123800039E0,-3.576799870E0,-2.928999960E-1,4.170109629E0
1.620371501E1,1.573799968E0,-5.197199821E0,1.594599962E0,5.659547805E0
1.621371345E1,9.552999735E-1,-6.800999641E0,2.495599985E0,7.307134421E0
1.622371345E1,-5.588999987E-1,-8.513899803E0,3.557399988E0,9.244130773E0
1.623371345E1,-3.095399857E0,-1.008899975E1,4.908099651E0,1.163867941E1
1.624371345E1,-5.358299732E0,-1.053380013E1,4.142399788E0,1.252325026E1
1.625371814E1,-6.730599880E0,-9.856499672E0,3.233700037E0,1.236561266E1
1.626371345E1,-6.727200031E0,-8.087399483E0,3.243799925E0,1.100833723E1
1.627371345E1,-5.857500076E0,-5.835599899E0,2.720199823E0,8.704253007E0
1.628371345E1,-4.751100063E0,-3.710599899E0,2.190500021E0,6.414031008E0
1.629371345E1,-4.188600063E0,-1.958699942E0,2.011100054E0,5.042360497E0
1.630371345E1,-4.031599998E0,-5.213999748E-1,1.867100000E0,4.473445975E0
1.631371345E1,-3.968499899E0,9.633999467E-1,1.864799976E0,4.489388584E0
1.632372595E1,-2.515300035E0,2.565199852E0,2.498399973E0,4.375955550E0
1.633372595E1,-1.716399908E0,3.416399956E0,3.732199907E0,5.342951754E0
1.634371345E1,-8.438000083E-1,3.780499935E0,5.321099758E0,6.581662469E0
1.635371345E1,-1.529299974E0,3.401399851E0,6.731899738E0,7.695891985E0
1.636371345E1,-2.557099819E0,3.444399834E0,6.649299622E0,7.913016818E0
1.637371345E1,-1.864699960E0,2.876699924E0,7.270499706E0,8.038200941E0
1.638371345E1,-8.147000074E-1,2.669100046E0,7.008299828E0,7.543480472E0
1.639371345E1,-1.989999972E-2,2.832199812E0,5.776599884E0,6.433572725E0
1.640371345E1,5.500999689E-1,3.271299839E0,3.883899927E0,5.107709003E0
1.641371345E1,5.539999604E-1,3.475999832E0,3.233799934E0,4.779848617E0
1.642371345E1,8.519999683E-2,3.504999876E0,3.386999846E0,4.874838574E0
1.643371345E1,-5.455999970E-1,3.510299921E0,3.902099848E0,5.276956331E0
1.644371345E1,-1.880199909E0,3.451299906E0,5.368000031E0,6.652972799E0
1.645372595E1,-3.343299866E0,3.647099972E0,6.142299652E0,7.887131114E0
1.646371345E1,-3.618599892E0,4.515599728E0,7.563099861E0,9.522887461E0
1.647371345E1,-3.336699963E0,5.319599628E0,8.909099579E0,1.089971386E1
1.648371345E1,-2.983599901E0,6.099899769E0,8.164500237E0,1.061930834E1
1.649371345E1,-3.333400011E0,6.410999775E0,7.187599659E0,1.019186257E1
1.650371657E1,-3.774299860E0,6.517799854E0,6.370399952E0,9.864534957E0
1.651371345E1,-3.640100002E0,6.733699799E0,5.250599861E0,9.282340217E0
1.652371345E1,-3.324199915E0,6.783099651E0,3.169699907E0,8.191931607E0
1.653371345E1,-2.727499962E0,6.709399700E0,1.378000021E0,7.372529039E0
1.654371345E1,-2.509699821E0,5.614999771E0,3.209999800E-1,6.158721995E0
1.655371345E1,-3.020499945E0,3.222899914E0,-2.570999861E-1,4.424545646E0
1.656371345E1,-2.687799931E0,5.645999908E-1,-1.036299944E0,2.935465754E0
1.657371345E1,-9.827999473E-1,-2.417000055E0,-3.166399956E0,4.102910392E0
1.658371345E1,-1.891999990E-1,-6.865200043E0,-7.629999638E0,1.026565452E1
1.659371345E1,9.606999755E-1,-1.358549976E1,-1.796399879E1,2.254315863E1
1.660371345E1,4.268199921E0,-1.882589912E1,-2.652289963E1,3.280390545E1
1.661371345E1,3.717000008E0,-1.900650024E1,-2.322739983E1,3.024194510E1
