"Time (s)","Linear Acceleration x (m/s^2)","Linear Acceleration y (m/s^2)","Linear Acceleration z (m/s^2)","Absolute acceleration (m/s^2)"
5.971983000E-3,1.031999961E-1,3.583000004E-1,-6.280999780E-1,7.304373428E-1
1.597354500E-2,-3.467700005E0,5.655099869E0,4.961499691E0,8.283814160E0
2.597198300E-2,-3.644399881E0,6.204299927E0,5.628299713E0,9.135247437E0
3.597198300E-2,-3.801499844E0,6.478899956E0,5.961499691E0,9.589943913E0
4.597198300E-2,-3.997799873E0,6.528299809E0,6.137499809E0,9.811727989E0
5.597354500E-2,-4.076399803E0,6.528699875E0,6.176099777E0,9.868392264E0
6.597354500E-2,-4.086400032E0,6.568500042E0,6.185199738E0,9.904572369E0
7.597198300E-2,-4.106100082E0,6.569200039E0,6.194099903E0,9.918735839E0
8.597198300E-2,-4.145499706E0,6.589699745E0,6.232299805E0,9.972505773E0
9.597354500E-2,-4.174900055E0,6.610300064E0,6.231099606E0,9.997622702E0
1.059735450E-1,-4.184700012E0,6.611199856E0,6.161399841E0,9.959042410E0
1.159735450E-1,-4.213900089E0,6.583199978E0,6.218899727E0,9.988502877E0
1.259719830E-1,-4.252799988E0,6.594599724E0,6.256499767E0,1.003587777E1
1.359735450E-1,-4.291399956E0,6.576900005E0,6.244899750E0,1.003346900E1
1.459719830E-1,-4.339299679E0,6.568999767E0,6.174799919E0,1.000547019E1
1.559735450E-1,-4.604300022E0,6.578299999E0,5.954899788E0,9.996721515E0
1.659735450E-1,-4.834799767E0,6.648699760E0,5.702099800E0,1.000472086E1
1.759735450E-1,-5.017499924E0,6.712699890E0,5.340899944E0,9.937849743E0
1.859735450E-1,-5.161799908E0,6.769199848E0,5.001999855E0,9.873512416E0
1.959735450E-1,-5.337599754E0,6.836499691E0,4.727200031E0,9.877961293E0
2.059735450E-1,-5.470299721E0,6.962499619E0,4.280399799E0,9.834754822E0
2.159735450E-1,-5.576200008E0,7.019199848E0,4.030200005E0,9.828819111E0
2.259735450E-1,-5.605899811E0,7.074599743E0,3.892199993E0,9.829816631E0
2.359735450E-1,-5.630099773E0,7.108500004E0,3.847499847E0,9.850484802E0
2.459735450E-1,-5.739599705E0,6.983799934E0,3.845399857E0,9.823622873E0
2.559735450E-1,-5.799200058E0,6.798999786E0,3.864899874E0,9.736250328E0
2.659735450E-1,-5.907299995E0,6.643499851E0,3.943499804E0,9.725403550E0
2.759735450E-1,-6.023900032E0,6.499399662E0,3.913399935E0,9.687325049E0
2.859735450E-1,-6.176899910E0,6.329099655E0,3.882499933E0,9.658436761E0
2.959735450E-1,-6.374199867E0,6.163300037E0,3.772399902E0,9.635750740E0
3.059735450E-1,-6.858799934E0,4.405699730E0,1.954299927E0,8.382876288E0
3.159735450E-1,2.273900032E0,-1.243659973E1,-9.326999784E-1,1.267712757E1
3.259735450E-1,-6.156699657E0,-4.921109772E1,-8.993999481E0,5.040366173E1
3.359735450E-1,4.277199745E0,-7.036509705E1,-4.444200039E0,7.063492220E1
3.459735450E-1,1.802219963E1,-6.864239502E1,-2.961699963E0,7.103062537E1
3.559735450E-1,1.069839954E1,-5.423229980E1,-1.329299927E0,5.529344566E1
3.659735450E-1,1.215199947E0,-3.081339836E1,3.308999836E-1,3.083912652E1
3.759735450E-1,-1.617900014E0,-1.535849953E1,3.572199821E0,1.585123717E1
3.859735450E-1,2.864300013E0,-5.297699928E0,5.710899830E0,8.299651556E0
3.959735450E-1,5.221600056E0,-9.294999838E-1,7.486099720E0,9.174462730E0
4.059735450E-1,4.953000069E0,1.668699980E0,9.314000130E0,1.068023257E1
4.159735450E-1,2.364399910E0,4.318500042E0,1.247979927E1,1.341585701E1
4.259735450E-1,-5.379199982E0,1.032520008E1,4.064479828E1,4.227937058E1
4.359735450E-1,1.791099906E0,1.515799999E0,7.256299973E0,7.626242705E0
4.459735450E-1,2.931099892E0,1.440500021E0,-4.639899731E0,5.674068769E0
4.559735450E-1,9.789299965E0,1.263049984E1,-7.310639954E1,7.483251682E1
4.659735450E-1,3.744099855E0,1.221529961E1,-3.431509781E1,3.661635927E1
4.759735450E-1,-1.860000007E-2,1.015499973E1,-8.052299500E0,1.296008846E1
4.859735450E-1,-2.319900036E0,1.093019962E1,7.670099735E0,1.355291961E1
4.959735450E-1,-1.899999976E0,1.067889977E1,3.997900009E0,1.155993532E1
5.059735450E-1,-1.816999912E0,1.000000000E1,1.742900014E0,1.031208947E1
5.159735450E-1,-1.837299943E0,9.853499413E0,1.507900000E0,1.013611781E1
5.259735450E-1,-1.887099981E0,9.798699379E0,1.562699914E0,1.010038053E1
5.359735450E-1,-1.955899954E0,9.756599426E0,1.590099931E0,1.007696357E1
5.459735450E-1,-2.004499912E0,9.717100143E0,1.622499943E0,1.005348503E1
5.559735450E-1,-2.013099909E0,9.729000092E0,1.563300014E0,1.005733170E1
5.659735450E-1,-1.913199902E0,9.782299995E0,1.237399936E0,1.004414684E1
5.759735450E-1,-1.881500006E0,9.778499603E0,1.236099958E0,1.003429319E1
5.859735450E-1,-1.869499922E0,9.775799751E0,1.424700022E0,1.005440505E1
5.959735450E-1,-1.759699941E0,9.803699493E0,1.429299951E0,1.006240359E1
6.059735450E-1,-1.646299958E0,9.816399574E0,1.380499959E0,1.004877029E1
6.159735450E-1,-1.576799989E0,9.812199593E0,1.327799916E0,1.002639575E1
6.259735450E-1,-1.463599920E0,9.782499313E0,1.322399974E0,9.979386716E0
6.359735450E-1,-1.364499927E0,9.811200142E0,1.292099953E0,9.989546064E0
6.459735450E-1,-1.241099954E0,9.809700012E0,1.316100001E0,9.975102137E0
6.559735450E-1,-1.084800005E0,9.816899300E0,1.325799942E0,9.965242014E0
6.659735450E-1,-8.766999841E-1,9.763899803E0,1.360799909E0,9.897177306E0
6.759735450E-1,-7.360999584E-1,9.542499542E0,1.420599937E0,9.675703842E0
6.859735450E-1,-6.934999824E-1,9.280200005E0,1.455799937E0,9.419257285E0
6.959735450E-1,-4.632000029E-1,9.114299774E0,1.485199928E0,9.246125321E0
7.059735450E-1,-2.516999841E-1,8.878099442E0,1.410200000E0,8.992923141E0
7.159735450E-1,6.775000095E-1,8.208799362E0,8.874999881E-1,8.284385883E0
7.259735450E-1,3.638999939E0,2.643699884E0,3.027999997E-1,4.508121280E0
7.359735450E-1,1.294609928E1,-1.596709919E1,-2.587699890E0,2.071825123E1
7.459735450E-1,1.714139938E1,-4.312619781E1,-9.478699684E0,4.736604542E1
7.559735450E-1,1.182059956E1,-6.776179504E1,-1.806239891E1,7.111707035E1
7.659735450E-1,5.832099915E0,-6.861489868E1,-1.376789951E1,7.022515765E1
7.759735450E-1,1.050509930E1,-4.976129913E1,-6.073400021E0,5.121943177E1
7.859735450E-1,1.033430004E1,-2.152689934E1,5.217799664E0,2.444239321E1
7.959735450E-1,7.408399582E0,-5.710399628E0,9.557000160E0,1.337270729E1
8.059735450E-1,6.339299679E0,-3.717099905E0,2.587599993E0,7.790970790E0
8.159735450E-1,5.774999619E0,-4.917699814E0,-2.387300014E0,7.951955320E0
8.259735450E-1,4.532799721E0,-3.744699955E0,-4.402499676E0,7.345138151E0
8.359735450E-1,3.124399900E0,-1.628799915E0,-4.111499786E0,5.414729393E0
8.459735450E-1,1.708499908E0,6.528999805E-1,-2.991899967E0,3.506667326E0
8.559735450E-1,4.099999964E-1,2.771899939E0,-1.996199965E0,3.440398751E0
8.659735450E-1,-5.862999558E-1,4.772500038E0,-1.111400008E0,4.935150882E0
8.759735450E-1,-1.168900013E0,6.462499619E0,-2.658999860E-1,6.572741541E0
8.859735450E-1,-1.584499955E0,7.688099861E0,4.239999950E-1,7.861125592E0
8.959735450E-1,-1.687899947E0,8.480299950E0,8.643999696E-1,8.689745726E0
9.059735450E-1,-1.590499997E0,9.105199814E0,1.146899939E0,9.313953691E0
9.159735450E-1,-1.464200020E0,9.474800110E0,1.335999966E0,9.679907785E0
9.259735450E-1,-1.461300015E0,9.578999519E0,1.350799918E0,9.783521347E0
9.359735450E-1,-1.446799994E0,9.633599281E0,1.258399963E0,9.822577859E0
9.459735450E-1,-1.440899968E0,9.658100128E0,1.224900007E0,9.841517710E0
9.559735450E-1,-1.445599914E0,9.681699753E0,1.162400007E0,9.857801124E0
9.659735450E-1,-1.421199918E0,9.704400063E0,1.051299930E0,9.864097593E0
9.759735450E-1,-1.426800013E0,9.696899414E0,9.700999856E-1,9.849198470E0
9.859735450E-1,-1.452600002E0,9.688599586E0,9.283999801E-1,9.840779199E0
9.959735450E-1,-1.489399910E0,9.689099312E0,8.375999928E-1,9.838624463E0
1.005973545E0,-1.478399992E0,9.757299423E0,7.662000060E-1,9.898364563E0
1.015973545E0,-1.517899990E0,9.765699387E0,6.854999661E-1,9.906705562E0
1.025973545E0,-1.529399991E0,9.773099899E0,5.963000059E-1,9.910000992E0
1.035973545E0,-1.562099934E0,9.769599915E0,3.904999793E-1,9.901400352E0
1.045973545E0,-1.595999956E0,9.774999619E0,1.766999960E-1,9.906011119E0
1.055973545E0,-1.621500015E0,9.799099922E0,5.499999970E-3,9.932353791E0
1.065973545E0,-1.667799950E0,9.792799950E0,-8.190000057E-2,9.934142899E0
1.075973545E0,-1.735000014E0,9.815199852E0,-2.125999928E-1,9.969632488E0
1.085973545E0,-1.813399911E0,9.827099800E0,-3.564999998E-1,9.999370079E0
1.095973545E0,-1.883399963E0,9.799099922E0,-4.353999794E-1,9.987949131E0
1.105973545E0,-1.957399964E0,9.807099342E0,-5.156999826E-1,1.001381838E1
1.115973545E0,-2.054299831E0,9.803099632E0,-8.269000053E-1,1.005010815E1
1.125973545E0,-2.321499825E0,9.639299393E0,-1.026799917E0,9.967937213E0
1.135973545E0,-2.499099970E0,9.358200073E0,-9.317999482E-1,9.730861237E0
1.145973545E0,-2.662799835E0,9.107600212E0,-8.080999851E-1,9.523230028E0
1.155973545E0,-2.800899982E0,8.779999733E0,-9.615999460E-1,9.265965167E0
1.165973545E0,-3.039099932E0,8.277699471E0,-1.273899913E0,8.909503797E0
1.175973545E0,-2.836499929E0,7.699100018E0,-1.947799921E0,8.433018289E0
1.185973545E0,-2.498499870E0,6.543999672E0,-3.397499800E0,7.785206368E0
1.195973545E0,4.066499710E0,-5.250199795E0,-2.735709953E1,2.815158810E1
1.205973545E0,1.933580017E1,-3.355870056E1,-3.217889786E1,5.035415593E1
1.215973545E0,1.441099930E1,-6.261520004E1,7.917999625E-1,6.425703949E1
1.225973545E0,1.528479958E1,-6.877529907E1,5.917200089E0,7.070134452E1
1.235975108E0,3.163499832E0,-6.902220154E1,2.188099861E0,6.912929782E1
1.245973545E0,-2.141999900E-1,-4.771119690E1,1.785200000E0,4.774506394E1
1.255973545E0,6.536499977E0,-2.185439873E1,1.503099918E0,2.286044368E1
1.265973545E0,8.024999619E0,-9.830499649E0,8.193999529E-1,1.271655451E1
1.275973545E0,6.273299694E0,-3.926299810E0,2.189999968E-1,7.403923301E0
1.285973545E0,3.790899992E0,-5.670999885E-1,-2.360000014E-1,3.840341280E0
1.295973545E0,1.735499978E0,1.908699989E0,1.524000019E-1,2.584244877E0
1.305973545E0,-1.189999953E-1,3.658200026E0,4.283999801E-1,3.685120754E0
1.315973545E0,-1.112499952E0,5.528199673E0,4.298000038E-1,5.655384674E0
1.325973545E0,-1.882999897E0,6.884599686E0,6.579999924E-1,7.167730843E0
1.335973545E0,-2.436499834E0,7.856799603E0,8.756999969E-1,8.272404845E0
1.345973545E0,-2.622599840E0,8.524799347E0,9.915999770E-1,8.974046152E0
1.355973545E0,-2.705699921E0,8.947899818E0,9.930999875E-1,9.400636723E0
1.365973545E0,-2.744599819E0,9.184700012E0,8.883000016E-1,9.627077406E0
1.375973545E0,-2.601500034E0,9.372499466E0,7.942000031E-1,9.759216276E0
1.385973545E0,-2.433399916E0,9.471499443E0,5.827999711E-1,9.796447961E0
1.395973545E0,-2.290199995E0,9.529899597E0,4.021999836E-1,9.809473338E0
1.405973545E0,-2.035799980E0,9.595899582E0,2.930999994E-1,9.813851331E0
1.415973545E0,-1.769799948E0,9.658999443E0,1.475999951E-1,9.820908708E0
1.425973545E0,-1.503099918E0,9.728400230E0,3.509999812E-2,9.843897217E0
1.435973545E0,-1.247200012E0,9.852399826E0,-6.340000033E-2,9.931229016E0
1.445973545E0,-1.003600001E0,9.942299843E0,-3.050000072E-1,9.997477889E0
1.455973545E0,-7.238000035E-1,1.003719997E1,-5.024999976E-1,1.007580151E1
1.465973545E0,-4.765999913E-1,1.005840015E1,-6.238999963E-1,1.008899462E1
1.475973545E0,-8.630000055E-2,1.015310001E1,-9.713999629E-1,1.019982870E1
1.485973545E0,2.111999989E-1,1.018419933E1,-1.188300014E0,1.025546578E1
1.495973545E0,5.625999570E-1,1.022069931E1,-1.505899906E0,1.034634948E1
1.505973545E0,7.615000010E-1,1.020419979E1,-1.772899985E0,1.038502528E1
1.515973545E0,1.004199982E0,1.018419933E1,-1.868699908E0,1.040280602E1
1.525973545E0,1.211499929E0,1.016079998E1,-1.792099953E0,1.038851339E1
1.535973545E0,1.362599969E0,1.007489967E1,-1.632200003E0,1.029681305E1
1.545973545E0,1.565400004E0,9.955499649E0,-1.468799949E0,1.018429299E1
1.555973545E0,1.849099994E0,9.890399933E0,-1.370800018E0,1.015471685E1
1.565973545E0,2.222499847E0,9.810500145E0,-1.269500017E0,1.013888795E1
1.575973545E0,2.555399895E0,9.696000099E0,-1.105599999E0,1.008785596E1
1.585973545E0,2.923199892E0,9.546699524E0,-8.804999590E-1,1.002296611E1
1.595973545E0,3.253999949E0,9.264699936E0,-5.852999687E-1,9.836958708E0
1.605973545E0,3.652299881E0,8.915800095E0,-3.050999939E-1,9.639702887E0
1.615973545E0,4.120800018E0,8.714399338E0,-2.180999964E-1,9.642059750E0
1.625973545E0,4.923799992E0,8.419099808E0,-9.160000086E-2,9.753637193E0
1.635973545E0,7.874799728E0,7.151899815E0,2.108999938E-1,1.063985999E1
1.645973545E0,1.251609993E1,4.607199669E0,3.109000027E-1,1.334075354E1
1.655973545E0,1.910449982E1,-6.674999595E-1,1.423999906E0,1.916912218E1
1.665973545E0,2.432950020E1,-1.409329987E1,2.332299948E0,2.821321152E1
1.675973545E0,2.889459991E1,-3.591360092E1,6.870999932E-1,4.609942236E1
1.685973545E0,2.765499878E1,-6.305749893E1,-8.364999890E-1,6.886034317E1
1.695973545E0,1.201009941E1,-6.844429779E1,-1.243499994E0,6.950115596E1
1.705973545E0,-2.141499996E0,-6.837570190E1,-3.822799921E0,6.851595750E1
1.715973545E0,1.978399992E0,-4.881499863E1,-1.319100022E0,4.887287778E1
1.725973545E0,7.630499840E0,-2.171969986E1,-3.119999915E-2,2.302109605E1
1.735973545E0,6.909399986E0,-9.889499664E0,2.584499836E0,1.233781387E1
1.745973545E0,-8.686999679E-1,-4.520299911E0,6.173299789E0,7.700479285E0
1.755973545E0,-4.479399681E0,9.907799721E0,2.340269852E1,2.580534469E1
1.765973545E0,-2.218529892E1,7.331699848E0,1.161380005E1,2.609255952E1
1.775973545E0,-2.668929863E1,-1.706999898E0,-3.560199976E0,2.697976156E1
1.785973545E0,-1.803179932E1,2.242999971E-1,-2.981699944E0,1.827803686E1
1.795973545E0,-1.007409954E1,2.933399916E0,-1.581299901E0,1.061097668E1
1.805973545E0,-6.283999920E0,4.783099651E0,-9.733999968E-1,7.957022359E0
1.815973545E0,-5.016999722E0,6.241399765E0,-2.590000033E-1,8.012018362E0
1.825973545E0,-4.472099781E0,7.358099937E0,2.486999929E-1,8.614125773E0
1.835973545E0,-3.136399984E0,8.064700127E0,5.625000000E-1,8.671378163E0
1.845973545E0,-1.000399947E0,8.527999878E0,7.958999872E-1,8.623284685E0
1.855973545E0,1.302999973E0,9.081399918E0,1.145200014E0,9.245599844E0
1.865973545E0,1.542699933E0,9.344399452E0,1.265999913E0,9.555128465E0
1.875973545E0,1.738699913E0,9.465099335E0,1.265699983E0,9.706347369E0
1.885973545E0,1.971399903E0,9.611000061E0,1.410899997E0,9.912032009E0
1.895973545E0,2.271100044E0,9.713899612E0,1.654399991E0,1.011211058E1
1.905973545E0,2.579399824E0,9.793899536E0,1.626599908E0,1.025766050E1
1.915973545E0,2.876699924E0,9.861199379E0,1.577799916E0,1.039269495E1
1.925973545E0,2.994299889E0,9.837900162E0,1.516099930E0,1.039464624E1
1.935973545E0,3.040400028E0,9.831899643E0,1.544299960E0,1.040649534E1
1.945973545E0,3.054199934E0,9.784899712E0,1.564099908E0,1.036912765E1
1.955973545E0,3.114300013E0,9.775499344E0,1.504499912E0,1.036931878E1
1.965973545E0,3.180799961E0,9.745299339E0,1.489599943E0,1.035892155E1
1.975973545E0,3.262099981E0,9.743800163E0,1.534999967E0,1.038937740E1
1.985973545E0,3.317899942E0,9.731800079E0,1.638899922E0,1.041164664E1
1.995973545E0,3.356499910E0,9.719099998E0,1.819499969E0,1.044210595E1
2.005973545E0,3.356599808E0,9.696000099E0,2.036499977E0,1.046071280E1
2.015973545E0,3.336400032E0,9.671999931E0,2.288699865E0,1.048414493E1
2.025973545E0,3.304699898E0,9.627299309E0,2.554399967E0,1.049432669E1
2.035973545E0,3.230099916E0,9.571800232E0,2.792399883E0,1.048095426E1
2.045973545E0,3.268699884E0,9.416799545E0,3.058699846E0,1.042670405E1
2.055973545E0,3.085099936E0,9.006099701E0,3.212100029E0,1.004715184E1
2.065973545E0,2.965199947E0,8.790699959E0,3.443599939E0,9.895817148E0
2.075973545E0,2.951099873E0,8.633999825E0,3.589900017E0,9.805219302E0
2.085973545E0,2.878000021E0,8.428999901E0,3.802999973E0,9.684716426E0
2.095973545E0,3.051299810E0,7.941399574E0,3.823799849E0,9.327255921E0
2.105973545E0,7.422499657E0,3.805599928E0,2.904500008E0,8.832452222E0
2.115973545E0,7.660799980E0,-5.609499931E0,2.238600016E0,9.755289634E0
2.125973545E0,-5.299799919E0,-3.030819893E1,4.592499733E0,3.110893530E1
2.135973545E0,-2.485219955E1,-6.471949768E1,-4.380300045E0,6.946533115E1
2.145973545E0,-2.457779884E1,-6.929380035E1,-3.006479836E1,7.943293438E1
2.155973545E0,-3.999199867E0,-6.147219849E1,-2.814139938E1,6.772564614E1
2.165973545E0,6.794499874E0,-3.354529953E1,-5.800099850E0,3.471445675E1
2.175973545E0,5.130099773E0,-1.636009979E1,4.998899937E0,1.785944539E1
2.185973545E0,2.454699993E0,-7.641199589E0,6.481499672E0,1.031616795E1
2.195973545E0,9.093999863E-1,-3.944599867E0,4.613800049E0,6.137917182E0
2.205973545E0,9.940999746E-1,-2.325700045E0,1.221499920E0,2.808767970E0
2.215973545E0,1.107499957E0,-1.258799911E0,1.425999999E-1,1.682696684E0
2.225973545E0,1.610099912E0,1.573999971E-1,-6.999999881E-1,1.762724161E0
2.235973545E0,1.566999912E0,1.267400026E0,-6.883999705E-1,2.129715021E0
2.245973545E0,1.583099961E0,2.571499825E0,-5.449000001E-1,3.068506615E0
2.255973545E0,1.542799950E0,3.989699841E0,-6.096000075E-1,4.320827313E0
2.265973545E0,1.708999991E0,5.387099743E0,-6.057999730E-1,5.684058252E0
2.275973545E0,2.284800053E0,6.780399799E0,-3.604999781E-1,7.164083539E0
2.285973545E0,2.272500038E0,7.867099762E0,-4.909999967E-1,8.203450255E0
2.295973545E0,1.762300014E0,9.050000191E0,-4.765599728E0,1.037878343E1
2.305973545E0,1.372999996E-1,1.028520012E1,-9.454400063E0,1.397103695E1
2.315973545E0,-7.400199890E0,1.155519962E1,-2.759709930E1,3.082021231E1
2.325973545E0,-2.905699968E0,1.120199966E1,-1.079599953E1,1.582660717E1
2.335973545E0,7.161999941E-1,1.084019947E1,-2.045199871E0,1.105466913E1
2.345973545E0,1.950699925E0,1.048869991E1,1.402799964E0,1.076038586E1
2.355973545E0,2.207099915E0,9.975299835E0,2.084300041E0,1.042699398E1
2.365973545E0,2.356999874E0,9.713500023E0,2.463799953E0,1.029455396E1
2.375973545E0,2.350399971E0,9.563399315E0,2.611199856E0,1.018829481E1
2.385973545E0,2.343899965E0,9.445400238E0,2.652600050E0,1.008690932E1
2.395973545E0,2.456599951E0,9.446999550E0,2.845499992E0,1.016747530E1
2.405973545E0,2.532500029E0,9.440899849E0,3.012799978E0,1.022844612E1
2.415973545E0,2.591599941E0,9.437699318E0,3.122399807E0,1.027306864E1
2.425973545E0,2.604300022E0,9.467100143E0,3.202899933E0,1.032796842E1
2.435973545E0,2.561100006E0,9.460700035E0,3.253799915E0,1.032721125E1
2.445973545E0,2.442499876E0,9.438300133E0,3.304199934E0,1.029393279E1
2.455973545E0,2.327499866E0,9.438899994E0,3.354599953E0,1.028413485E1
2.465973545E0,2.187099934E0,9.403399467E0,3.385999918E0,1.023094928E1
2.475973545E0,2.051100016E0,9.400400162E0,3.418200016E0,1.021071133E1
2.485973545E0,1.890199900E0,9.380499840E0,3.471599817E0,1.017932405E1
2.495973545E0,1.695299983E0,9.362999916E0,3.497499943E0,1.013766814E1
2.505973545E0,1.417500019E0,9.151599884E0,3.407699823E0,9.867801418E0
2.515973545E0,1.332899928E0,9.069399834E0,3.320699930E0,9.749753001E0
2.525973545E0,1.210999966E0,8.990799904E0,3.255599976E0,9.638461238E0
2.535973545E0,1.018599987E0,8.795800209E0,3.359899998E0,9.470616413E0
2.545973545E0,9.029999971E-1,8.474900246E0,3.357599974E0,9.160394137E0
2.555973545E0,3.764400005E0,-2.659499884E0,3.531999886E-1,4.622596377E0
2.565973545E0,-1.075459957E1,-2.890649986E1,-2.859599829E0,3.097457760E1
2.575973545E0,-3.375259781E1,-6.528779602E1,-1.657979965E1,7.534337346E1
2.585973545E0,-3.054819870E1,-6.870369720E1,-2.584389877E1,7.950658814E1
2.595973545E0,-5.194999695E0,-6.141930008E1,-1.670499992E1,6.386215990E1
2.605973545E0,1.521759987E1,-3.408390045E1,-6.309999824E-1,3.733210116E1
2.615973545E0,9.189499855E0,-1.778349876E1,-1.221799970E0,2.005473837E1
2.625973545E0,4.365200043E0,-1.119989967E1,-3.362599850E0,1.248197908E1
2.635973545E0,2.452199936E0,-7.624099731E0,-5.478399754E0,9.703249203E0
2.645973545E0,1.873600006E0,-5.607699871E0,-6.435800076E0,8.739347655E0
2.655973545E0,1.458999991E0,-3.193300009E0,-5.604599953E0,6.613424722E0
2.665973545E0,1.386099935E0,-4.596000016E-1,-4.297699928E0,4.539023008E0
2.675973545E0,1.515799999E0,1.910599947E0,-2.960199833E0,3.835469312E0
2.685973545E0,1.662299991E0,3.990000010E0,-1.652300000E0,4.627465465E0
2.695973545E0,1.704299927E0,5.635399818E0,-5.112000108E-1,5.909627298E0
2.705973545E0,1.768499970E0,6.840499878E0,4.897999763E-1,7.082367877E0
2.715973545E0,1.755399942E0,7.793999672E0,1.342499971E0,8.101244720E0
2.725973545E0,1.644199967E0,8.439299583E0,2.048699856E0,8.838684410E0
2.735973545E0,1.562799931E0,8.895599365E0,2.592599869E0,9.396574151E0
2.745973545E0,1.511399984E0,9.144700050E0,2.978999853E0,9.735723345E0
2.755973545E0,1.342700005E0,9.217000008E0,3.185499907E0,9.843949517E0
2.765973545E0,1.252599955E0,9.210999489E0,3.368399858E0,9.887246120E0
2.775973545E0,1.152699947E0,9.195499420E0,3.478499889E0,9.898782159E0
2.785973545E0,1.062500000E0,9.180299759E0,3.613899946E0,9.923058134E0
2.795973545E0,9.721999764E-1,9.146200180E0,3.744799852E0,9.930844700E0
2.805973545E0,8.919000030E-1,9.122499466E0,3.949499846E0,9.980682900E0
2.815973545E0,7.921999693E-1,9.119699478E0,4.158199787E0,1.005420931E1
2.825973545E0,7.313999534E-1,9.109199524E0,4.280999660E0,1.009155191E1
2.835973545E0,6.302999854E-1,9.110899925E0,4.346399784E0,1.011419629E1
2.845973545E0,5.576999784E-1,9.095799446E0,4.413099766E0,1.012521834E1
2.855973545E0,4.645999968E-1,9.073999405E0,4.450699806E0,1.011741306E1
2.865973545E0,3.515000045E-1,9.094699860E0,4.527400017E0,1.016535630E1
2.875973545E0,2.678000033E-1,9.118800163E0,4.525399685E0,1.018349034E1
2.885973545E0,1.649999917E-1,9.136400223E0,4.493499756E0,1.018295508E1
2.895973545E0,6.329999864E-2,9.138099670E0,4.460599899E0,1.016886542E1
2.905973545E0,-2.679999918E-2,9.152899742E0,4.427000046E0,1.016733108E1
2.915973545E0,-1.149000004E-1,9.170800209E0,4.343899727E0,1.014821380E1
2.925973545E0,-1.516000032E-1,9.201399803E0,4.231599808E0,1.012892777E1
2.935973545E0,-1.763999909E-1,9.224299431E0,4.081699848E0,1.008856237E1
2.945973545E0,-1.605999917E-1,9.297900200E0,3.855999947E0,1.006704903E1
2.955973545E0,-1.837999970E-1,9.333099365E0,3.625000000E0,1.001404769E1
2.965973545E0,-2.365999967E-1,9.348499298E0,3.420499802E0,9.957421231E0
2.975973545E0,-3.782999814E-1,9.255399704E0,3.224599838E0,9.808342300E0
2.985973545E0,-4.217000008E-1,9.082599640E0,3.087899923E0,9.602425373E0
2.995973545E0,-4.926999807E-1,9.006699562E0,3.010399818E0,9.509253248E0
3.005973545E0,-5.324000120E-1,8.978899956E0,3.010999918E0,9.485263027E0
3.015973545E0,-5.988000035E-1,8.882200241E0,3.058099985E0,9.412970736E0
3.025973545E0,-6.717999578E-1,8.727199554E0,3.168999910E0,9.309021843E0
3.035973545E0,-6.428999901E-1,8.289199829E0,3.379699945E0,8.974771636E0
3.045973545E0,5.556600094E0,-1.047539997E1,1.067899942E0,1.190589012E1
3.055973545E0,-1.385859966E1,-5.254639816E1,-2.388700008E0,5.439568579E1
3.065973545E0,-1.353719997E1,-6.863759613E1,-1.928629875E1,7.256953014E1
3.075973545E0,-3.999899864E0,-6.865460205E1,-3.387379837E1,7.666086223E1
3.085973545E0,8.020500183E0,-6.470839691E1,-2.544769859E1,6.999350268E1
3.095973545E0,8.107399940E0,-3.449629974E1,-9.745999336E0,3.675199495E1
3.105973545E0,4.410500050E0,-1.720019913E1,9.346999526E-1,1.778125487E1
3.115973545E0,4.539400101E0,-3.876499891E0,8.538199425E0,1.041797745E1
3.125973545E0,8.194899559E0,6.199199677E0,9.957699776E0,1.430881687E1
3.135973545E0,6.072599888E0,4.879600048E0,8.315299988E0,1.139434860E1
3.145973545E0,4.338099957E0,5.190499783E0,6.855499744E0,9.631109800E0
3.155973545E0,1.473500013E0,7.108500004E0,9.352999687E0,1.183978791E1
3.165973545E0,2.324000001E-1,7.382299900E0,1.018919945E1,1.258459959E1
3.175973545E0,6.805999875E-1,7.148499966E0,5.064899921E0,8.787347684E0
3.185973545E0,2.649999857E-1,7.448899746E0,2.749300003E0,7.944493875E0
3.195973545E0,-3.999999762E-1,7.953799725E0,1.530799985E0,8.109641092E0
3.205973545E0,-3.101199865E0,8.553400040E0,-4.003699780E0,9.940206475E0
3.215973545E0,-4.297199726E0,9.369500160E0,-8.111499786E0,1.311677885E1
3.225973545E0,-2.068599939E0,9.783999443E0,-4.883899689E0,1.112916111E1
3.235975108E0,-3.466999829E-1,9.932199478E0,-1.609499931E0,1.006773447E1
3.245973545E0,3.240000084E-2,9.925799370E0,-4.132999778E-1,9.934453169E0
3.255973545E0,-5.989999697E-2,1.000529957E1,-4.196999967E-1,1.001427758E1
3.265973545E0,-2.012999952E-1,1.008389950E1,-6.050999761E-1,1.010404358E1
3.275973545E0,-3.806999922E-1,1.009340000E1,-6.427999735E-1,1.012101022E1
3.285973545E0,-4.593999982E-1,1.024030018E1,-1.824299932E0,1.041166972E1
3.295973545E0,-5.162000060E-1,1.034829998E1,-1.895799994E0,1.053317770E1
3.305973545E0,-6.444000006E-1,1.042669964E1,-1.889699936E0,1.061613313E1
3.315973545E0,-7.294999957E-1,1.047579956E1,-1.697799921E0,1.063753126E1
3.325973545E0,-9.003999829E-1,1.040749931E1,-9.874999523E-1,1.049294612E1
3.335973545E0,-9.417999983E-1,1.042789936E1,-5.776999593E-1,1.048626767E1
3.345973545E0,-1.001299977E0,1.041969967E1,-6.035000086E-1,1.048508250E1
3.355973545E0,-1.020099998E0,1.040250015E1,-3.098999858E-1,1.045699055E1
3.365973545E0,-9.688999653E-1,1.037609959E1,-2.272000015E-1,1.042371477E1
3.375973545E0,-8.975999951E-1,1.035019970E1,-1.700999886E-1,1.039044049E1
3.385973545E0,-7.876999974E-1,1.033430004E1,-7.999999821E-2,1.036458531E1
3.395973545E0,-6.703999639E-1,1.031829929E1,-1.529999916E-2,1.034006627E1
3.405973545E0,-5.465999842E-1,1.029199982E1,6.289999932E-2,1.030669628E1
3.415973545E0,-4.271999896E-1,1.028479958E1,1.448999941E-1,1.029468786E1
3.425973545E0,-2.843999863E-1,1.019839954E1,2.301999927E-1,1.020496098E1
3.435973545E0,-1.288999915E-1,1.005210018E1,3.772999942E-1,1.006000440E1
3.445973545E0,-8.929999918E-2,9.777299881E0,5.661999583E-1,9.794087494E0
3.455973545E0,-1.175999939E-1,9.471899986E0,7.081999779E-1,9.499066602E0
3.465973545E0,5.249999836E-2,9.371299744E0,7.828999758E-1,9.404092062E0
3.475973545E0,2.045999914E-1,9.240399361E0,8.468999863E-1,9.281383576E0
3.485973545E0,9.355999827E-1,8.353400230E0,1.251600027E0,8.498302499E0
3.495973545E0,6.018799782E0,5.053400040E0,-2.405999899E-1,7.862613505E0
3.505973545E0,1.196080017E1,-4.316499710E0,-2.297699928E0,1.292177756E1
3.515973545E0,1.034829998E1,-2.663089943E1,-5.389499664E0,2.907471107E1
3.525973545E0,2.947199821E0,-5.890480042E1,-1.231320000E1,6.025011529E1
3.535973545E0,-7.692899704E0,-6.842669678E1,-1.889459991E1,7.140307727E1
3.545973545E0,-2.822799921E0,-6.849520111E1,-1.247179985E1,6.967859475E1
3.555973545E0,9.431599617E0,-5.422799683E1,-1.244199991E0,5.505614175E1
3.565973545E0,8.975099564E0,-2.330609894E1,8.199399948E0,2.628605751E1
3.575973545E0,4.931600094E0,-5.339499950E0,1.396199989E1,1.574066009E1
3.585973545E0,1.743999958E0,-2.313499928E0,4.000000000E0,4.939009796E0
3.595973545E0,-1.204999983E-1,-1.956999898E0,-2.247099876E0,2.982251952E0
3.605973545E0,-5.795999765E-1,2.052000016E-1,-3.298499823E0,3.355315820E0
3.615973545E0,-4.066999853E-1,2.338799953E0,-2.475600004E0,3.429866686E0
3.625973545E0,-4.251999855E-1,4.044399738E0,-1.386500001E0,4.296550538E0
3.635973545E0,-3.734999895E-1,5.356699944E0,-4.662999809E-1,5.389913932E0
3.645973545E0,-3.497000039E-1,6.513399601E0,4.400999844E-1,6.537610607E0
3.655973545E0,-2.838999927E-1,7.477399826E0,1.396699905E0,7.612021938E0
3.665973545E0,-3.114999831E-1,8.231499672E0,2.141399860E0,8.511181613E0
3.675973545E0,-3.007999957E-1,8.797100067E0,2.599900007E0,9.178176849E0
3.685973545E0,-2.856999934E-1,9.155699730E0,2.875399828E0,9.600853410E0
3.695973545E0,-3.766999841E-1,9.298600197E0,3.111999989E0,9.812767827E0
3.705973545E0,-4.186999798E-1,9.314499855E0,3.150300026E0,9.841727870E0
3.715973545E0,-4.705999792E-1,9.321399689E0,3.175999880E0,9.858850427E0
3.725973545E0,-5.234000087E-1,9.319299698E0,3.218499899E0,9.873299146E0
3.735973545E0,-5.417999625E-1,9.329099655E0,3.244899988E0,9.892169808E0
3.745973545E0,-5.906999707E-1,9.320300102E0,3.238499880E0,9.884573937E0
3.755973545E0,-6.208999753E-1,9.292799950E0,3.277799845E0,9.873480618E0
3.765973545E0,-6.225999594E-1,9.305399895E0,3.313599825E0,9.897375496E0
3.775973545E0,-6.451999545E-1,9.309199333E0,3.365499973E0,9.919882322E0
3.785973545E0,-6.987000108E-1,9.304299355E0,3.452600002E0,9.948799674E0
3.795973545E0,-7.734999657E-1,9.300399780E0,3.505599976E0,9.969201044E0
3.805973545E0,-8.402999640E-1,9.288099289E0,3.484599829E0,9.955768599E0
3.815973545E0,-9.570999742E-1,9.257699966E0,3.438199997E0,9.921807711E0
3.825973545E0,-1.054000020E0,9.248299599E0,3.307199955E0,9.878235321E0
3.835973545E0,-1.120000005E0,9.250100136E0,3.200299978E0,9.851937499E0
3.845973545E0,-1.163900018E0,9.243299484E0,3.118099928E0,9.824245303E0
3.855973545E0,-1.224399924E0,9.247300148E0,2.972499847E0,9.790172141E0
3.865973545E0,-1.232100010E0,9.252399445E0,2.812799931E0,9.748682443E0
3.875973545E0,-1.304299951E0,9.258199692E0,2.708499908E0,9.734034706E0
3.885973545E0,-1.322600007E0,9.245100021E0,2.660300016E0,9.710733307E0
3.895973545E0,-1.443899989E0,9.232500076E0,2.599200010E0,9.699471405E0
3.905973545E0,-1.569299936E0,9.132399559E0,2.573899984E0,9.617088183E0
3.915973545E0,-1.815499902E0,8.944899559E0,2.505599976E0,9.464951096E0
3.925973545E0,-2.063899994E0,8.591599464E0,2.481400013E0,9.177832564E0
3.935973545E0,-2.234799862E0,8.082399368E0,2.657399893E0,8.796663240E0
3.945973545E0,-2.800299883E0,6.466399670E0,2.638499975E0,7.524472489E0
3.955973545E0,1.637499928E0,-1.366400003E0,2.356400013E0,3.178218999E0
3.965973545E0,6.564999819E-1,-1.864719963E1,5.519999862E-1,1.866691593E1
3.975973545E0,-3.677699804E0,-4.640919876E1,-5.608900070E0,4.689135278E1
3.985973545E0,-9.204999804E-1,-6.682630157E1,-1.082649994E1,6.770387731E1
3.995973545E0,-1.689499974E0,-6.768099976E1,-1.625729942E1,6.962666100E1
4.005973545E0,-4.329999983E-1,-4.709859848E1,-1.852140045E1,5.061134006E1
4.015973545E0,-1.568699956E0,-3.013369942E1,-1.166349983E1,3.235023784E1
4.025973545E0,-6.052499771E0,-2.290390015E1,-5.079499722E0,2.422855160E1
4.035973545E0,-6.301599979E0,-1.663349915E1,2.086400032E0,1.790911838E1
4.045973545E0,5.556399822E0,4.360599995E0,6.411499977E0,9.539168897E0
4.055973545E0,1.778009987E1,5.082699776E0,5.548399925E0,1.930674830E1
4.065973545E0,1.793750000E1,-7.869999856E-2,2.167500019E0,1.806815310E1
4.075973545E0,1.270609951E1,-3.192099810E0,-8.819999695E-1,1.313058985E1
4.085973545E0,4.486899853E0,-2.883000076E-1,-4.208000004E-1,4.515801128E0
4.095973545E0,-5.070999861E-1,2.115200043E0,-8.429999650E-2,2.176770109E0
4.105973545E0,-1.889299989E0,5.012599945E0,-3.329999745E-2,5.356932102E0
4.115973545E0,-2.363100052E0,6.751299858E0,6.625999808E-1,7.183545807E0
4.125973545E0,-3.023999929E0,7.676499844E0,9.097999930E-1,8.300660302E0
4.135973545E0,-3.319999933E0,8.255399704E0,5.177999735E-1,8.913032068E0
4.145973545E0,-3.504199982E0,8.598099709E0,8.269999921E-2,9.285126569E0
4.155973545E0,-3.644099951E0,8.911899567E0,-1.774799943E0,9.790369410E0
4.165973545E0,-3.680499792E0,9.129599571E0,-2.436899900E0,1.014071734E1
4.175973545E0,-3.654099941E0,9.439299583E0,-3.408499956E0,1.068038833E1
4.185973545E0,-3.605199814E0,9.765799522E0,-4.221799850E0,1.123351681E1
4.195973545E0,-3.535799980E0,1.006269932E1,-4.807399750E0,1.169918337E1
4.205973545E0,-3.380299807E0,1.015609932E1,-5.158899784E0,1.188221474E1
4.215973545E0,-3.268599987E0,1.012549973E1,-5.139499664E0,1.181625776E1
4.225973545E0,-3.270699978E0,1.019729996E1,-4.648499966E0,1.167437179E1
4.235973545E0,-3.533499956E0,1.015549946E1,-4.122399807E0,1.151581397E1
4.245973545E0,-3.748799801E0,1.014729977E1,-3.599299908E0,1.140070841E1
4.255973545E0,-4.088399887E0,9.996600151E0,-3.039000034E0,1.121973928E1
4.265973545E0,-4.361899853E0,9.850399971E0,-2.164000034E0,1.098815026E1
4.275973545E0,-4.585899830E0,9.885099411E0,-1.396699905E0,1.098619307E1
4.285973545E0,-4.582399845E0,9.894499779E0,-5.212000012E-1,1.091655457E1
4.295973545E0,-4.617599964E0,9.779500008E0,3.659999967E-1,1.082103534E1
4.305973545E0,-4.537300110E0,9.745499611E0,1.052500010E0,1.080137080E1
4.315973545E0,-4.480400085E0,9.733300209E0,1.454299927E0,1.081323754E1
4.325973545E0,-4.370299816E0,9.733200073E0,1.882999897E0,1.083422322E1
4.335973545E0,-4.110300064E0,9.725699425E0,2.140499830E0,1.077337159E1
4.345973545E0,-3.683599949E0,9.778900146E0,2.460999966E0,1.073556321E1
4.355973545E0,-3.162799835E0,9.598199844E0,2.715199947E0,1.046427512E1
4.365973545E0,-2.857199907E0,9.221699715E0,2.930699825E0,1.008921892E1
4.375973545E0,-2.819999933E0,8.914099693E0,2.928999901E0,9.797582017E0
4.385973545E0,-2.726599932E0,8.745299339E0,2.640799999E0,9.533542487E0
4.395973545E0,-2.772300005E0,8.558400154E0,2.501099825E0,9.337417247E0
4.405973545E0,-2.934099913E0,8.246699333E0,2.432499886E0,9.084825143E0
4.415973545E0,-3.107899904E0,7.547099590E0,1.807799935E0,8.359778385E0
4.425973545E0,7.712000012E-1,3.613999784E-1,-1.777099967E0,1.970645498E0
4.435973545E0,2.258479881E1,-3.080029869E1,-3.586499786E1,5.239303015E1
4.445973545E0,1.763010025E1,-5.387989807E1,-3.076629829E1,6.450138729E1
4.455973545E0,7.311199665E0,-6.769789886E1,-1.170209980E1,6.908978427E1
4.465973545E0,1.876079941E1,-6.607070160E1,-1.284410000E1,6.987328609E1
4.475973545E0,2.889830017E1,-4.332769775E1,-1.153699970E1,5.334326113E1
4.485973545E0,1.598319912E1,-2.174160004E1,-6.134999752E0,2.767305636E1
4.495973545E0,6.604799747E0,-9.970299721E0,-2.732899904E0,1.226780331E1
4.505973545E0,2.734899998E0,-3.996500015E0,-1.169000030E0,4.981791991E0
4.515973545E0,1.082399964E0,-4.539999738E-2,-8.259999752E-2,1.086496020E0
4.525973545E0,3.076999784E-1,2.548799992E0,6.511999965E-1,2.648607579E0
4.535973545E0,-1.943999976E-1,4.282999992E0,1.204199910E0,4.453310871E0
4.545973545E0,-6.363999844E-1,5.439099789E0,1.676399946E0,5.727052316E0
4.555973545E0,-1.259699941E0,6.388199806E0,2.263200045E0,6.893331208E0
4.565973545E0,-1.890399933E0,7.100800037E0,2.785699844E0,7.858441111E0
4.575973545E0,-2.332200050E0,7.686199665E0,3.220700026E0,8.653885314E0
4.585973545E0,-2.516000032E0,8.125999451E0,3.467000008E0,9.185979114E0
4.595973545E0,-2.638499975E0,8.400899887E0,3.650899887E0,9.532359153E0
4.605973545E0,-2.739399910E0,8.547800064E0,3.765599966E0,9.733906765E0
4.615973545E0,-2.818799973E0,8.622300148E0,3.802199841E0,9.835975638E0
4.625973545E0,-2.924199820E0,8.618700027E0,3.886199951E0,9.896235891E0
4.635973545E0,-3.162899971E0,8.578199387E0,4.025599957E0,9.989739534E0
4.645973545E0,-3.689800024E0,8.491700172E0,4.239200115E0,1.018304540E1
4.655973545E0,-4.225599766E0,8.390299797E0,4.369100094E0,1.036059167E1
4.665973545E0,-4.450099945E0,8.354499817E0,4.315799713E0,1.040322949E1
4.675973545E0,-4.388799667E0,8.335700035E0,4.138599873E0,1.028948330E1
4.685973545E0,-4.098999977E0,8.342399597E0,3.947699785E0,1.009860215E1
4.695973545E0,-3.826699972E0,8.362899780E0,3.755699873E0,9.934133427E0
4.705973545E0,-3.581799984E0,8.336199760E0,3.692600012E0,9.795754816E0
4.715973545E0,-3.228099823E0,8.388299942E0,3.661499977E0,9.705193788E0
4.725973545E0,-2.727999926E0,8.468599319E0,3.642799854E0,9.614007947E0
4.735973545E0,-2.320799828E0,8.516699791E0,3.685299873E0,9.565653262E0
4.745973545E0,-2.000000000E0,8.580499649E0,3.621799946E0,9.525881013E0
4.755973545E0,-1.581699967E0,8.708199501E0,3.491299868E0,9.514393733E0
4.765973545E0,-1.107599974E0,8.859600067E0,3.460500002E0,9.575716752E0
4.775973545E0,-6.218999624E-1,9.014699936E0,3.450599909E0,9.672549521E0
4.785973545E0,-7.019999623E-2,9.262000084E0,3.312999964E0,9.836947817E0
4.795973545E0,4.624999762E-1,9.505199432E0,3.063899994E0,9.997509972E0
4.805973545E0,9.213999510E-1,9.589200020E0,2.769099951E0,1.002345496E1
4.815973545E0,9.668999910E-1,9.398699760E0,2.622200012E0,9.805426339E0
4.825973545E0,6.132999659E-1,9.081699371E0,2.732399940E0,9.503652443E0
4.835973545E0,2.208999991E-1,8.679200172E0,3.276399851E0,9.279661008E0
4.845973545E0,-3.623999953E-1,7.742399693E0,3.369199991E0,8.451484801E0
4.855973545E0,1.269299984E0,4.499700069E0,2.564800024E0,5.332599959E0
4.865973545E0,2.193199873E0,-1.430499911E0,5.367000103E-1,2.672920235E0
4.875973545E0,1.240899920E0,-1.358439922E1,-4.656300068E0,1.441377345E1
4.885973545E0,-6.940099716E0,-3.249710083E1,-1.769419861E1,3.764719393E1
4.895973545E0,-1.123029995E1,-4.748509979E1,-3.332979965E1,5.909170741E1
4.905973545E0,-6.553999901E0,-4.906559753E1,-3.121819878E1,5.852318951E1
4.915973545E0,-3.453699827E0,-4.099839783E1,-1.872869873E1,4.520576095E1
4.925973545E0,-2.637300014E0,-3.373339844E1,-9.361399651E0,3.510745398E1
4.935973545E0,-4.068799973E0,-2.830970001E1,-1.415399909E0,2.863560031E1
4.945973545E0,-3.360199928E0,-1.997049904E1,4.289599895E0,2.070054209E1
4.955973545E0,-6.544699669E0,-8.421899796E0,6.946499825E0,1.272852504E1
4.965973545E0,2.081429863E1,1.613299966E0,3.476799965E0,2.116426002E1
4.975973545E0,4.581010056E1,-1.642599940E0,-7.474199772E0,4.644488249E1
4.985973545E0,4.273979950E1,2.474299908E0,-8.943300247E0,4.373551464E1
4.995973545E0,1.894109917E1,4.397200108E0,-1.980299950E0,1.954538806E1
5.005973545E0,7.650499821E0,5.849199772E0,-9.457999468E-1,9.676663837E0
5.015973545E0,1.795499921E0,6.307999611E0,-4.792999923E-1,6.576048018E0
5.025973545E0,-1.178300023E0,5.730499744E0,5.654000044E-1,5.877643697E0
5.035973545E0,-2.903800011E0,5.593999863E0,1.432999969E0,6.463619565E0
5.045973545E0,-3.822299957E0,6.453199863E0,2.140399933E0,7.799684437E0
5.055973545E0,-4.159800053E0,7.400099754E0,2.433799982E0,8.831126497E0
5.065973545E0,-4.414999962E0,7.943299770E0,2.363499880E0,9.390120744E0
5.075973545E0,-4.664700031E0,8.188199997E0,2.207700014E0,9.678842127E0
5.085973545E0,-4.972799778E0,8.260000229E0,2.117599964E0,9.871199067E0
5.095973545E0,-5.165400028E0,8.226399422E0,1.881199956E0,9.894135544E0
5.105973545E0,-5.407099724E0,8.162400246E0,1.471699953E0,9.900879049E0
5.115973545E0,-5.508800030E0,8.172299385E0,1.224499941E0,9.931402475E0
5.125973545E0,-5.755499840E0,8.112199783E0,8.434999585E-1,9.982237019E0
5.135973545E0,-6.078799725E0,8.012800217E0,6.288999915E-1,1.007731555E1
5.145973545E0,-6.410699844E0,7.913699627E0,4.649999738E-1,1.019509388E1
5.155973545E0,-6.829199791E0,7.786599636E0,4.120999873E-1,1.036527521E1
5.165973545E0,-7.284299850E0,7.682399750E0,2.533999979E-1,1.058983011E1
5.175973545E0,-7.558499813E0,7.603299618E0,1.643999964E-1,1.072231840E1
5.185973545E0,-7.680799961E0,7.491399765E0,1.744000018E-1,1.073061852E1
5.195973545E0,-7.798199654E0,7.366600037E0,1.950999945E-1,1.072924871E1
5.205973545E0,-7.881499767E0,7.199699879E0,2.066999972E-1,1.067691162E1
5.215973545E0,-7.901299953E0,7.049399853E0,3.255999982E-1,1.059389421E1
5.225973545E0,-7.965199947E0,6.905799866E0,3.064999878E-1,1.054648872E1
5.235973545E0,-7.926699638E0,6.816899776E0,3.445999920E-1,1.046047030E1
5.245973545E0,-7.883899689E0,6.693799973E0,3.810999990E-1,1.034930285E1
5.255973545E0,-7.798099995E0,6.534599781E0,5.638999939E-1,1.018966835E1
5.265973545E0,-7.778199673E0,6.367099762E0,7.540000081E-1,1.008012230E1
5.275973545E0,-7.833999634E0,6.082299709E0,1.019600034E0,9.970230902E0
5.285973545E0,-7.602599621E0,5.708799839E0,1.308799982E0,9.597024226E0
5.295973545E0,-7.565199852E0,5.030200005E0,1.167699933E0,9.159622482E0
5.305973545E0,-7.837800026E0,3.642799854E0,5.309000015E-1,8.659269879E0
5.315973545E0,-6.930699825E0,4.775999784E-1,-3.844999969E-1,6.957768468E0
5.325973545E0,-2.648099899E0,-9.136599541E0,1.159699917E0,9.583046913E0
5.335973545E0,2.809000015E-1,-2.374779892E1,9.167000055E-1,2.376714533E1
5.345973545E0,5.066400051E0,-4.394120026E1,4.951200008E0,4.450855952E1
5.355973545E0,9.401700020E0,-6.300459671E1,-7.185999870E0,6.410623811E1
5.365973545E0,9.499199867E0,-6.518080139E1,-1.813469887E1,6.832012128E1
5.375973545E0,8.326299667E0,-4.895979691E1,-1.706159973E1,5.251178120E1
5.385973545E0,2.892599821E0,-2.932769966E1,-7.606699944E0,3.043588318E1
5.395973545E0,-2.199399948E0,-1.871430016E1,-2.963999987E0,1.907479191E1
5.405973545E0,-3.480799913E0,-1.287629986E1,-1.211699963E0,1.339340445E1
5.415973545E0,-4.107299805E0,-8.972700119E0,-3.702999949E-1,9.875038288E0
5.425973545E0,-3.341199875E0,-5.904399872E0,-1.689999998E-1,6.786318254E0
5.435973545E0,-2.925599813E0,-3.501299858E0,-2.500000000E-1,4.569544284E0
5.445973545E0,-2.447700024E0,-1.271199942E0,-1.223699927E0,3.017387315E0
5.455973545E0,-2.004899979E0,6.086999774E-1,-3.156899929E0,3.788951933E0
5.465973545E0,2.173110008E1,1.372139931E1,-6.311649704E1,6.814843878E1
5.475973545E0,1.214849949E1,9.692199707E0,-5.287159729E1,5.510835304E1
5.485973545E0,-2.039019966E1,1.420709991E1,4.181200027E1,4.863995577E1
5.495973545E0,-1.224909973E1,6.686800003E0,-3.486569977E1,3.755490326E1
5.505973545E0,-6.170300007E0,8.553199768E0,-1.660079956E1,1.966764791E1
5.515973545E0,-2.602699995E0,9.550399780E0,-5.186299801E0,1.117505655E1
5.525973545E0,-1.854799986E0,9.710100174E0,5.022000074E-1,9.898410641E0
5.535973545E0,-1.553200006E0,9.832599640E0,1.746399999E0,1.010655030E1
5.545973545E0,-1.250800014E0,1.013639927E1,1.862499952E0,1.038171454E1
5.555973545E0,-1.069000006E0,1.022909927E1,1.931399941E0,1.046458497E1
5.565973545E0,-9.220999479E-1,1.022849941E1,2.115499973E0,1.048560006E1
5.575973545E0,-7.206000090E-1,1.027250004E1,2.269799948E0,1.054492832E1
5.585973545E0,-5.325999856E-1,1.037169933E1,2.308399916E0,1.063882136E1
5.595973545E0,-3.193999827E-1,1.046739960E1,2.312599897E0,1.072457873E1
5.605973545E0,-9.589999914E-2,1.052569962E1,2.218699932E0,1.075742435E1
5.615973545E0,3.299999982E-3,1.053160000E1,2.218499899E0,1.076272973E1
5.625973545E0,8.959999681E-2,1.051929951E1,2.200999975E0,1.074746906E1
5.635973545E0,2.136999965E-1,1.048460007E1,2.194000006E0,1.071382949E1
5.645973545E0,3.170999885E-1,1.046719933E1,2.227699995E0,1.070632810E1
5.655973545E0,3.990999758E-1,1.045730019E1,2.213799953E0,1.069650963E1
5.665973545E0,4.589999914E-1,1.043559933E1,2.161299944E0,1.066694107E1
5.675973545E0,4.970999956E-1,1.039249992E1,2.098599911E0,1.061391938E1
5.685973545E0,5.515999794E-1,1.033799934E1,2.014899969E0,1.054695761E1
5.695973545E0,5.742999911E-1,1.028199959E1,1.958099961E0,1.048253268E1
5.705973545E0,6.038999557E-1,1.015600014E1,1.887699962E0,1.034758161E1
5.715973545E0,5.231999755E-1,9.783499718E0,1.822499990E0,9.965546205E0
5.725973545E0,5.196999907E-1,9.566699982E0,1.898799896E0,9.767152997E0
5.735973545E0,5.252000093E-1,9.417099953E0,2.007799864E0,9.643073517E0
5.745973545E0,6.164000034E-1,9.158599854E0,1.960899949E0,9.386427907E0
5.755973545E0,3.300999880E0,6.868599892E0,2.140699863E0,7.915608668E0
5.765973545E0,1.143219948E1,-1.758499980E0,1.781399965E0,1.170302922E1
5.775973545E0,1.672039986E1,-1.496299934E1,2.501899958E0,2.257703754E1
5.785973545E0,1.258640003E1,-4.131469727E1,5.923299789E0,4.359365959E1
5.795973545E0,4.039799690E0,-6.679799652E1,-9.891999960E-1,6.692735493E1
5.805973545E0,3.522499800E0,-6.882529449E1,-1.415059948E1,7.035317074E1
5.815973545E0,-9.066999555E-1,-5.425199890E1,-1.545569992E1,5.641790629E1
5.825973545E0,6.617000103E-1,-2.942289925E1,-8.838099480E0,3.072876257E1
5.835973545E0,3.763000011E0,-1.470919991E1,-6.471699715E0,1.650465474E1
5.845973545E0,4.605000019E0,-8.373299599E0,-4.247999668E0,1.045770876E1
5.855973545E0,6.601099968E0,-4.850800037E0,-2.597899914E0,8.593827189E0
5.865973545E0,8.880899429E0,-1.112800002E0,-1.702699900E0,9.110866340E0
5.875973545E0,1.209659958E1,2.116999924E-1,-1.231199980E0,1.216093712E1
5.885981358E0,1.312309933E1,-1.596999913E-1,-1.133299947E0,1.317291193E1
5.895973545E0,8.410399437E0,1.006399989E0,-1.209299922E0,8.556288093E0
5.905973545E0,3.611099958E0,3.053499937E0,-8.478999734E-1,4.804460338E0
5.915973545E0,1.466599941E0,5.099199772E0,2.680999935E-1,5.312685885E0
5.925973545E0,-5.120999813E-1,6.592399597E0,9.758999944E-1,6.683888063E0
5.935973545E0,-1.881299973E0,7.656899929E0,1.536899924E0,8.033023558E0
5.945973545E0,-2.574300051E0,8.415399551E0,1.877499938E0,8.998387432E0
5.955973545E0,-2.817699909E0,8.929599762E0,2.121299982E0,9.600890495E0
5.965973545E0,-2.756599903E0,9.200799942E0,2.167000055E0,9.846291273E0
5.975973545E0,-2.745399952E0,9.317099571E0,2.317399979E0,9.985785296E0
5.985973545E0,-2.766299963E0,9.405799866E0,2.444599867E0,1.010433348E1
5.995973545E0,-2.760900021E0,9.486800194E0,2.596299887E0,1.021580736E1
6.005973545E0,-2.809000015E0,9.540499687E0,2.692299843E0,1.030340205E1
6.015973545E0,-2.881899834E0,9.576799393E0,2.957499981E0,1.042915334E1
6.025973545E0,-3.029799938E0,9.615599632E0,3.203799963E0,1.057845821E1
6.035973545E0,-3.018399954E0,9.647600174E0,3.399199963E0,1.066496544E1
6.045973545E0,-3.104799986E0,9.721799850E0,3.501799822E0,1.078961432E1
6.055973545E0,-3.163199902E0,9.749899864E0,3.481499910E0,1.082530473E1
6.065973545E0,-3.085599899E0,9.771299362E0,3.465499878E0,1.081706556E1
6.075973545E0,-3.079599857E0,9.755999565E0,3.336799860E0,1.076093379E1
6.085973545E0,-3.037400007E0,9.762299538E0,3.185299873E0,1.070861459E1
6.095976670E0,-3.057199955E0,9.789899826E0,3.061199903E0,1.070324974E1
6.105973545E0,-3.080699921E0,9.832300186E0,2.917999983E0,1.070885441E1
6.115973545E0,-3.064699888E0,9.857999802E0,2.756599903E0,1.068510124E1
6.125973545E0,-3.071199894E0,9.840000153E0,2.594300032E0,1.062959380E1
6.135973545E0,-3.038800001E0,9.803099632E0,2.553099871E0,1.057607615E1
6.145973545E0,-2.987099886E0,9.746999741E0,2.290099859E0,1.044850836E1
6.155973545E0,-3.014799833E0,9.828199387E0,2.031699896E0,1.047904221E1
6.165973545E0,-3.032099962E0,9.860199928E0,1.898299932E0,1.048907601E1
6.175973545E0,-3.106699944E0,9.784099579E0,1.725399971E0,1.040947617E1
6.185973545E0,-3.159099817E0,9.344999313E0,1.464900017E0,9.972705545E0
6.195973545E0,-3.050099850E0,9.013999939E0,1.324399948E0,9.607774936E0
6.205973545E0,-3.004599810E0,8.859899521E0,1.255100012E0,9.439317538E0
6.215973545E0,-2.964200020E0,8.696499825E0,1.128099918E0,9.256792122E0
6.225973545E0,-3.066900015E0,8.210000038E0,8.959999681E-2,8.764588096E0
6.235973545E0,-2.396100044E0,5.929800034E0,-3.099299908E0,7.107002447E0
6.245973545E0,1.337720013E1,-2.459739876E1,-6.709420013E1,7.270222280E1
6.255973545E0,1.991199875E1,-4.414310074E1,-2.131639862E1,5.291020589E1
6.265973545E0,1.081009960E1,-6.847949982E1,-1.150499940E0,6.933703050E1
6.275973545E0,-6.419000030E-1,-6.931230164E1,9.930299759E0,7.002298228E1
6.285973545E0,2.140239906E1,-4.760329819E1,-3.608599901E0,5.231786193E1
6.295973545E0,1.819919968E1,-2.378569984E1,-6.671599865E0,3.068355636E1
6.305973545E0,9.250499725E0,-1.250439930E1,-5.927000046E0,1.664515174E1
6.315973545E0,4.282899857E0,-7.021999836E0,-4.949199677E0,9.599285927E0
6.325973545E0,1.900399923E0,-3.395299911E0,-4.268499851E0,5.775783266E0
6.335973545E0,4.305999875E-1,-3.761999905E-1,-3.878499985E0,3.920421522E0
6.345973545E0,-4.775999784E-1,2.001199961E0,-3.037899971E0,3.669024292E0
6.355973545E0,-1.209100008E0,3.808699846E0,-2.556099892E0,4.743602429E0
6.365973545E0,-2.048399925E0,5.380799770E0,-1.986599922E0,6.090609795E0
6.375973545E0,-2.598700047E0,6.591399670E0,-1.503999949E0,7.243052353E0
6.385973545E0,-3.040400028E0,7.519799709E0,-1.108299971E0,8.186559034E0
6.395973545E0,-3.404999971E0,8.234600067E0,-7.116000056E-1,8.939185513E0
6.405973545E0,-3.576699972E0,8.755199432E0,-4.217999876E-1,9.467006656E0
6.415973545E0,-3.663899899E0,9.062099457E0,-1.862999946E-1,9.776528869E0
6.425973545E0,-3.706499815E0,9.203700066E0,-1.187999994E-1,9.922718842E0
6.435973545E0,-3.577399969E0,9.287899971E0,-8.489999920E-2,9.953395623E0
6.445973545E0,-3.454099894E0,9.353300095E0,2.190000005E-2,9.970732588E0
6.455973545E0,-3.346999884E0,9.468199730E0,2.429999970E-2,1.004240035E1
6.465973545E0,-3.228199959E0,9.534099579E0,9.999999776E-3,1.006580497E1
6.475973545E0,-3.108000040E0,9.609499931E0,-3.009999916E-2,1.009965639E1
6.485973545E0,-3.026799917E0,9.694099426E0,-9.629999846E-2,1.015609940E1
6.495973545E0,-2.935600042E0,9.768199921E0,-1.582999974E-1,1.020100663E1
6.505973545E0,-2.854300022E0,9.792599678E0,-2.451999933E-1,1.020304661E1
6.515973545E0,-2.743999958E0,9.845600128E0,-3.066999912E-1,1.022543117E1
6.525973545E0,-2.633800030E0,9.887999535E0,-3.809999824E-1,1.023985344E1
6.535973545E0,-2.533900023E0,9.958999634E0,-4.477999806E-1,1.028605113E1
6.545973545E0,-2.454299927E0,1.000939941E1,-4.271999896E-1,1.031475470E1
6.555973545E0,-2.356600046E0,9.999699593E0,-4.167999923E-1,1.028208529E1
6.565973545E0,-2.281100035E0,1.003749943E1,-3.868999779E-1,1.030070404E1
6.575973545E0,-2.188899994E0,1.005369949E1,-3.463000059E-1,1.029505126E1
6.585973545E0,-2.100299835E0,1.009729958E1,-3.145999908E-1,1.031822132E1
6.595973545E0,-1.996599913E0,1.014799976E1,-2.504999936E-1,1.034558170E1
6.605973545E0,-1.853899956E0,1.017929935E1,-9.169999510E-2,1.034714885E1
6.615973545E0,-1.773099899E0,1.016239929E1,2.029999904E-2,1.031594178E1
6.625973545E0,-1.618999958E0,1.002589989E1,2.538000047E-1,1.015894895E1
6.635973545E0,-1.542400002E0,9.678400040E0,5.011000037E-1,9.813334108E0
6.645973545E0,-1.652499914E0,9.354499817E0,7.904999852E-1,9.532172523E0
6.655973545E0,-1.741199970E0,9.152500153E0,1.159399986E0,9.388516640E0
6.665973545E0,-1.786000013E0,9.053299904E0,1.691999912E0,9.381625600E0
6.675973545E0,-1.696900010E0,8.881199837E0,2.342999935E0,9.340494038E0
6.685973545E0,-1.482699990E0,8.451199532E0,2.536700010E0,8.947402960E0
6.695973545E0,5.388000011E0,-8.069999516E-2,5.342000127E-1,5.415018584E0
6.705973545E0,1.806299925E0,-2.602839851E1,4.181399822E0,2.642393523E1
6.715973545E0,-3.955699921E0,-6.317379761E1,-2.994599819E0,6.336831933E1
6.725973545E0,3.137699842E0,-6.880410004E1,-1.787730026E1,7.115790333E1
6.735973545E0,1.179449940E1,-6.876599884E1,-2.375909996E1,7.370459717E1
6.745973545E0,1.097169971E1,-4.106449890E1,-1.104459953E1,4.391644844E1
6.755973545E0,4.370899677E0,-2.181469917E1,-7.042999864E-1,2.225942278E1
6.765973545E0,1.758700013E0,-1.072539997E1,4.437200069E0,1.173950488E1
6.775973545E0,3.619999886E0,-3.009500027E0,5.884500027E0,7.535836393E0
6.785973545E0,5.597599983E0,8.461999893E-1,6.037099838E0,8.276216192E0
6.795973545E0,5.622299671E0,1.386299968E0,5.236899853E0,7.807509287E0
6.805973545E0,4.347700119E0,3.040099859E0,4.837299824E0,7.179427071E0
6.815973545E0,2.453399897E0,2.101799965E0,2.489399910E0,4.078461236E0
6.825973545E0,5.598999858E-1,2.579599857E0,8.104999661E-1,2.761292019E0
6.835973545E0,-9.748999476E-1,3.678499937E0,-7.283999920E-1,3.874578460E0
6.845973545E0,-2.759899855E0,5.378699780E0,-4.442999840E0,7.502513319E0
6.855973545E0,-7.675599575E0,7.026299953E0,-2.625020027E1,2.823750581E1
6.865973545E0,-9.226900101E0,8.748099327E0,-2.218050003E1,2.556637457E1
6.875973545E0,-7.525599957E0,1.029299927E1,-2.816399813E0,1.305804719E1
6.885973545E0,-4.620399952E0,9.963999748E0,-2.711299896E0,1.131284817E1
6.895973545E0,-2.986199856E0,9.604800224E0,-1.171299934E0,1.012627871E1
6.905973545E0,-2.437599897E0,9.589099884E0,1.139999986E0,9.959534618E0
6.915973545E0,-2.401200056E0,9.632599831E0,1.711899996E0,1.007389412E1
6.925973545E0,-2.388999939E0,9.697199821E0,1.887599945E0,1.016395782E1
6.935973545E0,-2.440999985E0,9.812299728E0,2.176300049E0,1.034291974E1
6.945973545E0,-2.479199886E0,9.870499611E0,2.409600019E0,1.045845911E1
6.955973545E0,-2.562199831E0,9.862299919E0,2.566099882E0,1.050783975E1
6.965973545E0,-2.591599941E0,9.847000122E0,2.526999950E0,1.049121206E1
6.975973545E0,-2.586699963E0,9.814899445E0,2.449699879E0,1.044147007E1
6.985973545E0,-2.547299862E0,9.844299316E0,2.364699841E0,1.043986451E1
6.995973545E0,-2.522799969E0,9.846699715E0,2.361700058E0,1.043549913E1
7.005973545E0,-2.474299908E0,9.880599976E0,2.343199968E0,1.045174636E1
7.015973545E0,-2.431999922E0,9.906599998E0,2.299499989E0,1.045672259E1
7.025973545E0,-2.376399994E0,9.904999733E0,2.280099869E0,1.043815846E1
7.035973545E0,-2.317600012E0,9.924599648E0,2.216399908E0,1.042983109E1
7.045973545E0,-2.246500015E0,9.916099548E0,2.148200035E0,1.039185046E1
7.055973545E0,-2.182899952E0,9.928299904E0,2.086099863E0,1.037728307E1
7.065973545E0,-2.128399849E0,9.941599846E0,2.036399841E0,1.036881950E1
7.075973545E0,-2.082799911E0,9.896499634E0,1.945599914E0,1.029874359E1
7.085973545E0,-2.056299925E0,9.831899643E0,1.941299915E0,1.023050660E1
7.095973545E0,-2.019500017E0,9.767299652E0,1.769299984E0,1.012960736E1
7.105973545E0,-1.986999989E0,9.383999825E0,1.672899961E0,9.736848358E0
7.115973545E0,-2.023099899E0,9.215499878E0,1.613099933E0,9.571857845E0
7.125973545E0,-1.944099903E0,9.169699669E0,1.601199985E0,9.509298494E0
7.135973545E0,-1.843899965E0,9.163100243E0,1.590299964E0,9.481108960E0
7.145973545E0,-1.664699912E0,9.067999840E0,1.588899970E0,9.355450283E0
7.155973545E0,6.410099983E0,2.351300001E0,-1.764699936E0,7.052103187E0
7.165973545E0,1.975039864E1,-1.751840019E1,-1.258879948E1,2.924808479E1
7.175973545E0,1.237189960E1,-5.909449768E1,-3.997829819E1,7.241193190E1
7.185973545E0,-7.148900032E0,-6.880480194E1,-1.762469864E1,7.138513531E1
7.195973545E0,-3.198899984E0,-6.899679565E1,-8.970999718E0,6.965105604E1
7.205973545E0,1.068319988E1,-3.745019913E1,-1.308200002E0,3.896613352E1
7.215973545E0,1.149100018E1,-1.573899937E1,5.977999568E-1,1.949657793E1
7.225973545E0,7.794899940E0,-9.219299316E0,-5.224999785E-1,1.208424392E1
7.235973545E0,5.060499668E0,-7.263700008E0,-1.459699988E0,8.972219277E0
7.245973545E0,3.082899809E0,-6.726699829E0,-2.559299946E0,7.829609060E0
7.255973545E0,1.809499979E0,-5.981699944E0,-3.446300030E0,7.136666469E0
7.265973545E0,7.832999825E-1,-4.077399731E0,-3.102900028E0,5.183313227E0
7.275973545E0,-1.673000008E-1,-1.728399992E0,-2.063400030E0,2.696845473E0
7.285973545E0,-1.049299955E0,4.111000001E-1,-9.472000003E-1,1.472148582E0
7.295973545E0,-1.843299985E0,2.628499985E0,1.999000013E-1,3.216632869E0
7.305973545E0,-2.355200052E0,4.514400005E0,1.182099938E0,5.227249273E0
7.315973545E0,-2.707000017E0,6.050499916E0,1.852699995E0,6.882506491E0
7.325973545E0,-2.852999926E0,7.237400055E0,2.362499952E0,8.130250559E0
7.335973545E0,-2.894999981E0,8.025899887E0,2.746399879E0,8.963191741E0
7.345973545E0,-2.699300051E0,8.680500031E0,3.138599873E0,9.617073916E0
7.355973545E0,-2.574699879E0,9.033999443E0,3.427500010E0,9.999499073E0
7.365973545E0,-2.446899891E0,9.135000229E0,3.581300020E0,1.011243087E1
7.375973545E0,-2.308399916E0,9.169699669E0,3.657699823E0,1.013858324E1
7.385973545E0,-2.199699879E0,9.216099739E0,3.627199888E0,1.014552872E1
7.395973545E0,-2.072999954E0,9.254300117E0,3.637399912E0,1.015726723E1
7.405973545E0,-1.958999991E0,9.283699989E0,3.659600019E0,1.016943650E1
7.415973545E0,-1.828599930E0,9.382800102E0,3.684000015E0,1.024463623E1
7.425973545E0,-1.771299958E0,9.394399643E0,3.681199789E0,1.024419251E1
7.435973545E0,-1.738399982E0,9.396900177E0,3.641699791E0,1.022671721E1
7.445973545E0,-1.660899997E0,9.459199905E0,3.535699844E0,1.023407177E1
7.455973545E0,-1.616899967E0,9.482600212E0,3.364699841E0,1.019094094E1
7.465973545E0,-1.557999969E0,9.555199623E0,3.227900028E0,1.020531932E1
7.475973545E0,-1.513199925E0,9.568499565E0,3.087599993E0,1.016755780E1
7.485973545E0,-1.462799907E0,9.610599518E0,2.954900026E0,1.016045475E1
7.495973545E0,-1.425599933E0,9.651700020E0,2.821499825E0,1.015620548E1
7.505973545E0,-1.371299982E0,9.672299385E0,2.727299929E0,1.014258369E1
7.515973545E0,-1.309399962E0,9.750499725E0,2.595299959E0,1.017459361E1
7.525973545E0,-1.239799976E0,9.797800064E0,2.495599985E0,1.018636389E1
7.535973545E0,-1.202600002E0,9.862899780E0,2.409600019E0,1.022395281E1
7.545973545E0,-1.149399996E0,9.916099548E0,2.377399921E0,1.026168510E1
7.555973545E0,-1.129799962E0,9.908299446E0,2.291699886E0,1.023243540E1
7.565973545E0,-1.105000019E0,9.878499985E0,2.231899977E0,1.018759856E1
7.575973545E0,-1.085699916E0,9.659999847E0,2.197900057E0,9.966198173E0
7.585973545E0,-1.238899946E0,9.360799789E0,2.209199905E0,9.697422853E0
7.595973545E0,-1.337899923E0,9.226499557E0,2.224999905E0,9.584826282E0
7.605973545E0,-1.361500025E0,9.199999809E0,2.277899981E0,9.575098283E0
7.615973545E0,-1.325500011E0,9.142099380E0,2.379799843E0,9.539307032E0
7.625973545E0,-9.487999678E-1,8.898599625E0,2.309499979E0,9.242244685E0
7.635973545E0,1.416700006E0,4.222799778E0,1.187699914E0,4.609740552E0
7.645973545E0,3.863699913E0,-1.740040016E1,-2.059799910E0,1.794282248E1
7.655973545E0,-1.606419945E1,-5.713779831E1,-6.236899853E0,5.967985774E1
7.665973545E0,-1.798169899E1,-6.867900085E1,-1.833659935E1,7.332378559E1
7.675973545E0,-5.436999798E-1,-6.868170166E1,-2.586800003E1,7.339363173E1
7.685973545E0,1.454729939E1,-5.218959808E1,-1.600429916E1,5.649350104E1
7.695973545E0,8.900599480E0,-2.652789879E1,-5.852399826E0,2.858672190E1
7.705973545E0,3.795399904E0,-1.157170010E1,2.967299938E0,1.253451924E1
7.715973545E0,2.830899954E0,1.772799969E0,5.536499977E0,6.466037912E0
7.725973545E0,6.761199951E0,3.655099869E0,4.138599873E0,8.729352137E0
7.735973545E0,5.400399685E0,8.535999656E-1,3.409499884E0,6.443418279E0
7.745973545E0,3.295899868E0,2.333400011E0,3.271899939E0,5.197407119E0
7.755973545E0,2.583499908E0,4.076699734E0,2.251800060E0,5.325838526E0
7.765973545E0,1.689199924E0,5.304899693E0,1.729599953E0,5.829826166E0
7.775973545E0,6.486999989E-1,6.272399902E0,1.689299941E0,6.528211586E0
7.785973545E0,7.769999653E-2,7.186899662E0,1.979499936E0,7.454930183E0
7.795973545E0,-2.978000045E-1,7.982999802E0,2.287400007E0,8.309582990E0
7.805973545E0,-4.573999941E-1,8.634499550E0,2.466500044E0,8.991519321E0
7.815973545E0,-4.757999778E-1,9.084799767E0,2.579999924E0,9.456023055E0
7.825973545E0,-5.390999913E-1,9.266499519E0,2.495899916E0,9.611875911E0
7.835973545E0,-6.868999600E-1,9.337100029E0,2.447999954E0,9.677084906E0
7.845973545E0,-8.496999741E-1,9.414599419E0,2.385999918E0,9.749341920E0
7.855973545E0,-9.770999551E-1,9.519000053E0,2.171099901E0,9.812225085E0
7.865973545E0,-1.007900000E0,9.640500069E0,1.970299959E0,9.891268165E0
7.875973545E0,-1.019500017E0,9.759399414E0,1.725600004E0,9.963079473E0
7.885973545E0,-1.082499981E0,9.875499725E0,1.497299910E0,1.004685065E1
7.895973545E0,-1.129199982E0,1.008650017E1,8.049999923E-2,1.014983047E1
7.905973545E0,-9.152999520E-1,1.052909946E1,-2.802799940E0,1.093413906E1
7.915973545E0,-8.922999501E-1,1.079939938E1,-4.077099800E0,1.157782228E1
7.925973545E0,-1.089599967E0,1.091729927E1,-4.823499680E0,1.198502401E1
7.935973545E0,-1.299099922E0,1.093299961E1,-5.139599800E0,1.215045790E1
7.945973545E0,-1.447399974E0,1.072989941E1,-4.040599823E0,1.155647675E1
7.955973545E0,-1.520499945E0,1.077999973E1,-3.653999805E0,1.148355472E1
7.965973545E0,-1.427899957E0,1.060239983E1,-2.279700041E0,1.093831855E1
7.975973545E0,-1.346599936E0,1.050089931E1,-3.129999936E-1,1.059151485E1
7.985973545E0,-1.319899917E0,1.048540020E1,8.341999650E-1,1.060102083E1
7.995973545E0,-1.421899915E0,1.045839977E1,1.597700000E0,1.067485693E1
8.005973545E0,-1.519299984E0,1.028310013E1,2.089299917E0,1.060262207E1
8.015973545E0,-1.585600019E0,9.754199982E0,2.323799849E0,1.015177770E1
8.025973545E0,-1.418099999E0,9.137100220E0,2.524399996E0,9.584894542E0
8.035973545E0,-1.186200023E0,8.942399979E0,2.581500053E0,9.382842341E0
8.045973545E0,-1.070400000E0,8.836799622E0,2.406800032E0,9.221034112E0
8.055973545E0,-1.034299970E0,8.575099945E0,2.070600033E0,8.881976131E0
8.065973545E0,-1.000800014E0,7.735299587E0,1.977199912E0,8.046476239E0
8.075973545E0,1.030389977E1,-4.890299797E0,-2.762300014E0,1.173523259E1
8.085973545E0,1.491459942E1,-3.882270050E1,-2.186709976E1,4.698741749E1
8.095973545E0,6.953099728E0,-6.689830017E1,-2.811569977E1,7.289870187E1
8.105973545E0,3.779999912E-2,-6.877809906E1,-2.629349899E1,7.363271303E1
8.115973545E0,6.771100044E0,-6.249449921E1,-2.123209953E1,6.634916938E1
8.125973545E0,9.791199684E0,-3.004539871E1,-1.091729927E1,3.343323195E1
8.135973545E0,5.748300076E0,-1.157779980E1,-2.670799971E0,1.319930204E1
8.145973545E0,2.421499968E0,-2.923199892E0,9.045999646E-1,3.902186669E0
8.155973545E0,7.621999979E-1,1.043399930E0,2.405400038E0,2.730491090E0
8.165973545E0,-2.415999919E-1,3.223500013E0,3.070199966E0,4.458189176E0
8.175973545E0,-8.949999809E-1,4.627899647E0,3.810099840E0,6.060968644E0
8.185973545E0,-1.392599940E0,5.637399673E0,4.476799965E0,7.332213008E0
8.195973545E0,-1.792999983E0,6.311500072E0,4.953700066E0,8.221254554E0
8.205973545E0,-2.076299906E0,6.905599594E0,5.291299820E0,8.944058410E0
8.215973545E0,-2.134299994E0,7.399799824E0,5.619199753E0,9.533503016E0
8.225973545E0,-2.066599846E0,7.793900013E0,5.938299656E0,1.001394603E1
8.235973545E0,-1.964599967E0,8.048399925E0,6.121699810E0,1.030104863E1
8.245973545E0,-1.860700011E0,8.211500168E0,6.101599693E0,1.039809879E1
8.255973545E0,-1.696299911E0,8.400799751E0,5.790699959E0,1.034326234E1
8.265973545E0,-1.498699903E0,8.516799927E0,5.711699963E0,1.036366242E1
8.275973545E0,-1.443300009E0,8.588099480E0,5.572799683E0,1.033898757E1
8.285973545E0,-1.410399914E0,8.624300003E0,5.364699841E0,1.025415929E1
8.295973545E0,-1.359300017E0,8.663999557E0,5.088799953E0,1.013945116E1
8.305973545E0,-1.357199907E0,8.706500053E0,4.825500011E0,1.004642151E1
8.315973545E0,-1.353699923E0,8.731299400E0,4.596399784E0,9.959667850E0
8.325973545E0,-1.376899958E0,8.767299652E0,4.344199657E0,9.880964900E0
8.335973545E0,-1.376699924E0,8.803999901E0,4.129499912E0,9.821328141E0
8.345973545E0,-1.371799946E0,8.860599518E0,3.894799948E0,9.775557556E0
8.355973545E0,-1.371699929E0,8.906999588E0,3.681299925E0,9.734894529E0
8.365973545E0,-1.375699997E0,8.972199440E0,3.549099922E0,9.746231248E0
8.375973545E0,-1.383199930E0,8.987199783E0,3.470299959E0,9.732727459E0
8.385973545E0,-1.374599934E0,9.020500183E0,3.454799891E0,9.756771536E0
8.395973545E0,-1.359200001E0,9.052999496E0,3.413999796E0,9.770343859E0
8.405973545E0,-1.366699934E0,9.064999580E0,3.425899982E0,9.786668319E0
8.415973545E0,-1.358600020E0,9.076299667E0,3.352699995E0,9.770650282E0
8.425973545E0,-1.314999938E0,9.096799850E0,3.321599960E0,9.773127373E0
8.435973545E0,-1.168900013E0,9.018400192E0,3.234499931E0,9.651935509E0
8.445973545E0,-1.158499956E0,8.880000114E0,3.208799839E0,9.512776702E0
8.455973545E0,-1.166599989E0,8.809399605E0,3.214299917E0,9.449772531E0
8.465973545E0,-1.144400001E0,8.708700180E0,3.407099962E0,9.421222869E0
8.475973545E0,-1.192399979E0,8.578599930E0,3.568599939E0,9.367448959E0
8.485973545E0,-9.679999948E-1,7.821699619E0,3.450799942E0,8.603721820E0
8.495973545E0,4.082699776E0,5.346999764E-1,2.658799887E0,4.901383311E0
8.505973545E0,1.368399978E0,-1.779850006E1,-5.673999786E-1,1.786004103E1
8.515973545E0,-2.887599945E0,-3.893989944E1,-9.261699677E0,4.013020163E1
8.525973545E0,-2.164799929E0,-5.415919876E1,-2.030119896E1,5.787956330E1
8.535973545E0,-1.365899920E0,-5.476499939E1,-3.071780014E1,6.280648124E1
8.545973545E0,2.212999910E-1,-4.047760010E1,-2.112189865E1,4.565763557E1
8.555973545E0,-1.377999932E-1,-2.824230003E1,-5.223399639E0,2.872160169E1
8.565973545E0,-6.244999766E-1,-2.241600037E1,2.107899904E0,2.252355022E1
8.575973545E0,-8.138999939E-1,-1.726759911E1,7.464399815E0,1.882948955E1
8.585973545E0,-3.946000040E-1,-1.167910004E1,1.049049950E1,1.570374689E1
8.595973545E0,5.546999574E-1,-7.363800049E0,8.416699409E0,1.119705641E1
8.605973545E0,1.189399958E0,-3.233999968E0,5.070899963E0,6.130860828E0
8.615973545E0,9.340199471E0,-1.299999934E-2,8.282999992E-1,9.376863870E0
8.625973545E0,1.402759933E1,-8.453999758E-1,-3.252300024E0,1.442448265E1
8.635973545E0,1.089309978E1,-2.529199839E0,-7.639099598E0,1.354298037E1
8.645973545E0,5.875699997E0,-1.314000040E-1,-1.058169937E1,1.210427520E1
8.655973545E0,3.322700024E0,4.368000031E0,-2.624909973E1,2.681669250E1
8.665973545E0,8.223999739E-1,6.899299622E0,-1.885509872E1,2.009456207E1
8.675973545E0,5.306000113E-1,7.732699871E0,-4.924999714E0,9.183235043E0
8.685973545E0,6.103000045E-1,8.721599579E0,1.370999932E0,8.849768705E0
8.695973545E0,1.520999968E-1,9.235799789E0,2.410599947E0,9.546419447E0
8.705973545E0,-4.386999905E-1,9.415399551E0,2.197599888E0,9.678411629E0
8.715973545E0,-6.085000038E-1,9.506499290E0,2.170799971E0,9.770167528E0
8.725973545E0,-6.872000098E-1,9.519700050E0,2.241799831E0,9.804213349E0
8.735973545E0,-7.143999934E-1,9.523599625E0,2.497400045E0,9.871490472E0
8.745973545E0,-7.889999747E-1,9.616799355E0,2.610499859E0,9.996002216E0
8.755973545E0,-7.461000085E-1,9.819099426E0,2.784600019E0,1.023354172E1
8.765973545E0,-6.994999647E-1,9.924300194E0,2.999199867E0,1.039116136E1
8.775973545E0,-7.718999982E-1,1.002019978E1,3.165499926E0,1.053663243E1
8.785973545E0,-1.006399989E0,1.001840019E1,3.567299843E0,1.068207899E1
8.795973545E0,-1.296999931E0,1.024279976E1,4.292299747E0,1.118127868E1
8.805973545E0,-1.843599916E0,1.058640003E1,5.207999706E0,1.194127243E1
8.815973545E0,-2.306699991E0,1.068879986E1,4.828599930E0,1.195352185E1
8.825973545E0,-2.611799955E0,1.066709995E1,4.282000065E0,1.178745286E1
8.835973545E0,-2.862799883E0,1.055939960E1,3.584499836E0,1.151282686E1
8.845973545E0,-3.168699980E0,1.053100014E1,3.077499866E0,1.141987867E1
8.855973545E0,-3.177399874E0,1.036559963E1,2.718400002E0,1.117726372E1
8.865973545E0,-3.148699999E0,1.025899982E1,2.362999916E0,1.098841015E1
8.875973545E0,-3.000399828E0,1.014279938E1,1.915399909E0,1.074930394E1
8.885973545E0,-2.818099976E0,1.002639961E1,1.457199931E0,1.051635908E1
8.895973545E0,-2.580199957E0,9.909500122E0,1.090600014E0,1.029781690E1
8.905973545E0,-2.551300049E0,9.732799530E0,9.961999655E-1,1.011083246E1
8.915973545E0,-2.662299871E0,9.378600121E0,8.514999747E-1,9.786267574E0
8.925973545E0,-2.518699884E0,8.965399742E0,7.059999704E-1,9.339201122E0
8.935973545E0,-2.553099871E0,8.689000130E0,4.328999817E-1,9.066666675E0
8.945973545E0,-2.687999964E0,8.294199944E0,-1.621999890E-1,8.720401673E0
8.955973545E0,-2.747299910E0,7.878499985E0,-3.495999873E-1,8.351086094E0
8.965973545E0,-4.301199913E0,-5.455199718E0,-3.567179871E1,3.634194199E1
8.975973545E0,1.252499938E0,-2.072319984E1,-5.085960007E1,5.493376636E1
8.985973545E0,1.498199940E0,-2.168499947E1,1.397760010E1,2.584293152E1
8.995973545E0,-2.226300001E0,-4.001440048E1,2.213909912E1,4.578480499E1
9.005973545E0,6.026099682E0,-5.410490036E1,-6.942699909E0,5.488037174E1
9.015973545E0,6.402999878E0,-6.226599884E1,-4.133739853E1,7.501222258E1
9.025973545E0,1.157909966E1,-3.940639877E1,-1.104839993E1,4.253242239E1
9.035973545E0,1.436719990E1,-2.073110008E1,-6.432499886E0,2.603021318E1
9.045973545E0,1.030319977E1,-1.333039951E1,-6.374099731E0,1.801345675E1
9.055973545E0,6.784599781E0,-9.033999443E0,-6.225499630E0,1.289964285E1
9.065973545E0,4.482999802E0,-6.012599945E0,-5.012899876E0,9.020965053E0
9.075973545E0,2.553699970E0,-3.529899836E0,-4.007199764E0,5.919394085E0
9.085973545E0,6.328999996E-1,-1.548999906E0,-2.890899897E0,3.340249291E0
9.095973545E0,-9.634999633E-1,1.808999926E-1,-1.823699951E0,2.070492332E0
9.105973545E0,-2.222100019E0,1.532599926E0,-8.784999847E-1,2.838723878E0
9.115973545E0,-3.565099955E0,2.540699959E0,4.140000045E-2,4.377991312E0
9.125973545E0,-4.619199753E0,3.460699797E0,8.513000011E-1,5.834223267E0
9.135973545E0,-5.466499805E0,4.190299988E0,1.542400002E0,7.058344840E0
9.145973545E0,-5.998899937E0,4.946399689E0,2.225499868E0,8.087429752E0
9.155973545E0,-6.324199677E0,5.592899799E0,2.746500015E0,8.878022981E0
9.165973545E0,-6.394899845E0,6.188399792E0,3.187500000E0,9.452575959E0
9.175973545E0,-6.036099911E0,6.761999607E0,3.592799902E0,9.750248815E0
9.185973545E0,-5.624499798E0,7.184499741E0,3.772699833E0,9.873464363E0
9.195973545E0,-5.282099724E0,7.463399887E0,3.921399832E0,9.948883958E0
9.205973545E0,-4.854399681E0,7.636299610E0,4.078099728E0,9.925178355E0
9.215973545E0,-4.412199974E0,7.750499725E0,4.282000065E0,9.893092497E0
9.225973545E0,-3.958400011E0,7.873099804E0,4.483500004E0,9.887183798E0
9.235973545E0,-3.623499870E0,7.973099709E0,4.682499886E0,9.931056110E0
9.245973545E0,-3.360599995E0,7.991099834E0,4.848299980E0,9.932639205E0
9.255973545E0,-3.044299841E0,8.044300079E0,4.931299686E0,9.914446121E0
9.265973545E0,-2.716699839E0,8.092000008E0,5.001499653E0,9.893226011E0
9.275973545E0,-2.282299995E0,8.162899971E0,5.138000011E0,9.911653410E0
9.285973545E0,-1.745299935E0,8.236800194E0,5.252599716E0,9.923746927E0
9.295973545E0,-1.200500011E0,8.352299690E0,5.315700054E0,9.972902158E0
9.305973545E0,-5.778999925E-1,8.469599724E0,5.387099743E0,1.005429916E1
9.315973545E0,-3.179000020E-1,8.500499725E0,5.496200085E0,1.012757480E1
9.325973545E0,-3.660999835E-1,8.446199417E0,5.633399963E0,1.015910965E1
9.335973545E0,-4.289999902E-1,8.347700119E0,5.669899940E0,1.010029225E1
9.345973545E0,-6.808999777E-1,8.275199890E0,5.762399673E0,1.010681988E1
9.355973545E0,-7.577999830E-1,8.180299759E0,5.587100029E0,9.935152324E0
9.365973545E0,-9.519000053E-1,7.984299660E0,5.449199677E0,9.713337830E0
9.375973545E0,-1.231400013E0,7.735599995E0,5.281699657E0,9.447338490E0
9.385973545E0,-1.475799918E0,7.315399647E0,5.115099907E0,9.047502664E0
9.395973545E0,-1.771699905E0,6.692999840E0,5.088299751E0,8.592203546E0
9.405973545E0,-1.796199918E0,5.631999969E0,5.132400036E0,7.828619797E0
9.415973545E0,-6.621999741E-1,3.818099976E0,5.745599747E0,6.930246221E0
9.425973545E0,6.305999756E-1,1.143000007E0,7.056799889E0,7.176526319E0
9.435973545E0,1.069399953E0,-4.567299843E0,7.747599602E0,9.056994187E0
9.445973545E0,-1.420599937E0,-1.418209934E1,4.550300121E0,1.496179391E1
9.455973545E0,-1.590899944E0,-2.924489975E1,-5.397500038E0,2.978133863E1
9.465973545E0,-8.197999597E-1,-4.652579880E1,-1.382039928E1,4.854199689E1
9.475973545E0,-7.669000030E-1,-6.061849976E1,-1.912409973E1,6.356824552E1
9.485973545E0,1.889499903E0,-5.876609802E1,-1.587159920E1,6.090100285E1
9.495973545E0,6.331199646E0,-4.074010086E1,-1.243120003E1,4.306245048E1
9.505973545E0,2.009599924E0,-2.446069908E1,-5.028599739E0,2.505296603E1
9.515973545E0,6.423000097E-1,-1.534709930E1,-1.496199965E0,1.543323105E1
9.525973545E0,1.904999912E-1,-1.018359947E1,-8.503999710E-1,1.022082035E1
9.535973545E0,-4.930000007E-1,-7.180599689E0,-2.538999915E-1,7.201980707E0
9.545973545E0,-8.087999821E-1,-4.984399796E0,1.489999983E-2,5.049615901E0
9.555973545E0,-1.273299932E0,-3.356899977E0,-4.174000025E-1,3.614456105E0
9.565973545E0,-1.190999985E0,-1.369400024E0,-3.275099993E0,3.744331363E0
9.575973545E0,-3.019099951E0,6.711999893E0,-4.992229843E1,5.046188450E1
9.585973545E0,-1.585109997E1,1.197859955E1,-3.545819855E1,4.064514807E1
9.595973545E0,-6.146599770E0,8.384099960E0,-2.455739975E1,2.666720277E1
9.605973545E0,-2.059599876E0,7.882499695E0,-6.163199902E0,1.021571271E1
9.615973545E0,-1.276999950E0,8.815400124E0,5.187999606E-1,8.922508706E0
9.625973545E0,-2.264499903E0,9.222099304E0,1.808099985E0,9.666659244E0
9.635973545E0,-2.908099890E0,9.359999657E0,1.911700010E0,9.986052046E0
9.645973545E0,-2.995999813E0,9.437699318E0,2.052199841E0,1.011225531E1
9.655973545E0,-3.008699894E0,9.474999428E0,2.190099955E0,1.017960839E1
9.665973545E0,-3.036000013E0,9.491099358E0,2.256599903E0,1.021716723E1
9.675973545E0,-3.018699884E0,9.476399422E0,2.182899952E0,1.018232524E1
9.685973545E0,-2.976500034E0,9.568200111E0,2.107199907E0,1.023964342E1
9.695973545E0,-2.967900038E0,9.648799896E0,2.148900032E0,1.032112113E1
9.705973545E0,-2.884500027E0,9.747399330E0,2.280400038E0,1.041788647E1
9.715973545E0,-2.835199833E0,9.824500084E0,2.355200052E0,1.049314668E1
9.725973545E0,-2.673399925E0,9.968199730E0,2.314599991E0,1.057683536E1
9.735973545E0,-2.578500032E0,1.009910011E1,2.277600050E0,1.066901811E1
9.745973545E0,-2.524499893E0,1.014729977E1,2.187799931E0,1.068303612E1
9.755973545E0,-2.565199852E0,9.973499298E0,2.137199879E0,1.051753592E1
9.765973545E0,-2.669800043E0,9.823399544E0,2.045500040E0,1.038321151E1
9.775973545E0,-2.746999979E0,9.717700005E0,1.989399910E0,1.029259026E1
9.785973545E0,-2.842999935E0,9.647299767E0,1.987199903E0,1.025192689E1
9.795973545E0,-2.878099918E0,9.593099594E0,2.007900000E0,1.021482655E1
9.805973545E0,-2.929899931E0,9.515999794E0,2.011999846E0,1.015808590E1
9.815973545E0,-2.968600035E0,9.386499405E0,1.998799920E0,1.004560393E1
9.825973545E0,-2.905900002E0,9.135799408E0,2.027600050E0,9.798890121E0
9.835973545E0,-2.938299894E0,8.841599464E0,2.226999998E0,9.579510235E0
9.845973545E0,-3.008999825E0,8.689999580E0,2.388700008E0,9.501371500E0
9.855973545E0,-3.069799900E0,8.573399544E0,2.655999899E0,9.485841377E0
9.865973545E0,-3.170199871E0,8.158599854E0,3.026000023E0,9.261187555E0
9.875973545E0,1.730599999E0,3.563199997E0,1.974399924E0,4.426016904E0
9.885973545E0,8.254799843E0,-8.947799683E0,3.149399996E0,1.257471908E1
9.895973545E0,7.522999763E0,-3.247430038E1,3.085299969E0,3.347677982E1
9.905973545E0,5.911399841E0,-5.971109772E1,-8.298399925E0,6.057411394E1
9.915973545E0,6.604199886E0,-6.978139496E1,-1.656299973E1,7.202354822E1
9.925973545E0,5.058499813E0,-5.982019806E1,-1.245359993E1,6.131179876E1
9.935973545E0,7.436299801E0,-3.424279785E1,-2.690399885E0,3.514407505E1
9.945973545E0,7.477699757E0,-1.792350006E1,1.499300003E0,1.947859719E1
9.955973545E0,5.637499809E0,-1.107699966E1,2.062700033E0,1.259904985E1
9.965973545E0,5.751100063E0,-6.523200035E0,2.835199833E0,9.146892846E0
9.975973545E0,6.639199734E0,-1.071900010E0,2.847299814E0,7.303085579E0
9.985973545E0,1.087300014E1,3.284199953E0,1.216499925E0,1.142313326E1
9.995973545E0,1.049139977E1,-2.364699841E0,1.199999941E-3,1.075459324E1
1.000597354E1,5.049399853E0,-1.925199986E0,-7.062999606E-1,5.449926008E0
1.001597355E1,9.292999506E-1,-1.339999959E-2,-8.220999837E-1,1.240816804E0
1.002597355E1,-1.572099924E0,1.997699976E0,-4.951999784E-1,2.589889261E0
1.003597355E1,-3.331799984E0,3.665799856E0,-3.849999979E-2,4.953833058E0
1.004597354E1,-4.323299885E0,5.004399776E0,2.318999916E-1,6.617304332E0
1.005597354E1,-4.917900085E0,6.050699711E0,3.592999876E-1,7.805498365E0
1.006597354E1,-5.729799747E0,6.965199947E0,-5.112799644E0,1.036751348E1
1.007597354E1,-6.635699749E0,8.760399818E0,-2.154319954E1,2.418442810E1
1.008597354E1,-5.417699814E0,9.244999886E0,-1.376069927E1,1.744070923E1
1.009597355E1,-4.019199848E0,9.188699722E0,-3.621099949E0,1.066295151E1
1.010597355E1,-3.168999910E0,9.263899803E0,1.546199918E0,9.912271898E0
1.011597355E1,-4.089099884E0,1.029179955E1,7.499499798E0,1.337476628E1
1.012597354E1,-5.302799702E0,1.182259941E1,1.623250008E1,2.076987242E1
1.013597354E1,-5.353300095E0,9.736399651E0,4.408499718E0,1.195366763E1
1.014597354E1,-5.980700016E0,8.982500076E0,-3.720999956E-1,1.079780249E1
1.015597354E1,-6.660199642E0,9.086500168E0,-4.893799782E0,1.228299723E1
1.016597354E1,-7.120399952E0,9.370999336E0,-7.933300018E0,1.419341302E1
1.017597355E1,-6.581599712E0,9.533999443E0,-5.527400017E0,1.283615017E1
1.018597355E1,-5.744400024E0,9.480299950E0,-1.706099987E0,1.121539103E1
1.019597355E1,-4.925499916E0,9.476299286E0,5.704999566E-1,1.069515160E1
1.020597354E1,-4.284899712E0,9.512000084E0,1.304799914E0,1.051384867E1
1.021597354E1,-3.781799793E0,9.556599617E0,1.572799921E0,1.039732204E1
1.022597354E1,-3.420799971E0,9.579400063E0,1.794899940E0,1.032900982E1
1.023597354E1,-3.114899874E0,9.599800110E0,1.893099904E0,1.026852427E1
1.024597354E1,-2.904399872E0,9.646999359E0,1.927699924E0,1.025749298E1
1.025597354E1,-2.720799923E0,9.671699524E0,1.939199924E0,1.023254710E1
1.026597355E1,-2.603799820E0,9.674200058E0,1.908899903E0,1.019871654E1
1.027597355E1,-2.494499922E0,9.664199829E0,1.896099925E0,1.015945289E1
1.028597355E1,-2.421900034E0,9.553799629E0,1.842499971E0,1.002673892E1
1.029597354E1,-2.483700037E0,9.254799843E0,1.758399963E0,9.742281891E0
1.030597354E1,-2.540999889E0,9.081699371E0,1.585799932E0,9.562881644E0
1.031597354E1,-2.532999992E0,8.975799561E0,1.413999915E0,9.432945588E0
1.032597354E1,-2.420300007E0,8.750899315E0,9.893999696E-1,9.133181441E0
1.033597354E1,1.287000030E-1,5.767899990E0,-6.169999838E-1,5.802234308E0
1.034597355E1,7.865900040E0,-1.306050014E1,-3.673600006E1,3.977414673E1
1.035597355E1,1.246089935E1,-3.516889954E1,-2.858919907E1,4.700497644E1
1.036597355E1,6.852900028E0,-5.848359680E1,-8.461999893E-1,5.888980717E1
1.037597354E1,-5.513899803E0,-6.928119659E1,-4.699999932E-3,6.950026845E1
1.038597354E1,2.420399904E0,-5.610389709E1,-3.448699951E0,5.626187996E1
1.039597354E1,1.505819988E1,-2.860299873E1,-4.920599937E0,3.269699105E1
1.040597354E1,1.504269981E1,-1.573530006E1,-5.799299717E0,2.252807943E1
1.041597354E1,1.149779987E1,-1.023470020E1,-6.566199780E0,1.673509694E1
1.042597355E1,8.297200203E0,-7.938599586E0,-6.546099663E0,1.321802994E1
1.043597355E1,5.744199753E0,-6.341599941E0,-5.880099773E0,1.038206598E1
1.044597355E1,3.750799894E0,-4.355400085E0,-5.262099743E0,7.792798179E0
1.045597354E1,1.231499910E0,-2.139299870E0,-3.706300020E0,4.453072625E0
1.046597354E1,-8.599999547E-1,8.959999681E-2,-2.220799923E0,2.383187021E0
1.047597354E1,-1.982800007E0,2.133299828E0,-1.062999964E0,3.100392386E0
1.048597354E1,-2.704499960E0,4.122399807E0,2.589999884E-2,4.930433146E0
1.049597354E1,-3.176199913E0,5.733299732E0,8.660999537E-1,6.611285869E0
1.050597354E1,-3.560699940E0,6.994599819E0,1.603299975E0,8.010841498E0
1.051597355E1,-3.745599985E0,7.856199741E0,2.052199841E0,8.942086882E0
1.052597355E1,-3.998899937E0,8.347299576E0,2.511100054E0,9.590319827E0
1.053597355E1,-3.900999784E0,8.653999329E0,2.750999928E0,9.883193021E0
1.054597354E1,-3.719499826E0,8.805299759E0,2.907099962E0,9.990956560E0
1.055597354E1,-3.574399948E0,8.829599380E0,3.087499857E0,1.001353162E1
1.056597354E1,-3.516099930E0,8.824699402E0,3.282199860E0,1.005042856E1
1.057597354E1,-3.418099880E0,8.859199524E0,3.569299936E0,1.014439377E1
1.058597354E1,-3.321399927E0,8.942699432E0,3.859599829E0,1.029077652E1
1.059597355E1,-3.316599846E0,9.006699562E0,4.199699879E0,1.047654287E1
1.060597355E1,-3.314199924E0,9.069600105E0,4.400099754E0,1.061142993E1
1.061597355E1,-3.322700024E0,9.214900017E0,4.465799809E0,1.076559732E1
1.062597354E1,-3.430399895E0,9.260999680E0,4.463999748E0,1.083794502E1
1.063597354E1,-3.561699867E0,9.198399544E0,4.430900097E0,1.081337763E1
1.064597354E1,-3.575399876E0,9.195099831E0,4.444900036E0,1.082083553E1
1.065597354E1,-3.469899893E0,9.212900162E0,4.388299942E0,1.077844660E1
1.066597354E1,-3.421099901E0,9.232099533E0,4.291399956E0,1.074019087E1
1.067597355E1,-3.350600004E0,9.261799812E0,4.184899807E0,1.070144114E1
1.068597355E1,-3.287799835E0,9.252699852E0,4.079800129E0,1.063328977E1
1.069597355E1,-3.222699881E0,9.233699799E0,3.938299894E0,1.054311209E1
1.070597354E1,-3.185199976E0,9.204299927E0,3.790199995E0,1.045132776E1
1.071597354E1,-3.126399994E0,9.173699379E0,3.616999865E0,1.034474868E1
1.072597354E1,-3.114699841E0,9.102299690E0,3.478600025E0,1.023004755E1
1.073597354E1,-3.159799814E0,8.979899406E0,3.336699963E0,1.008744243E1
1.074597354E1,-3.329799891E0,8.766799927E0,3.221499920E0,9.915765729E0
1.075597354E1,-3.603299856E0,8.473299980E0,3.133399963E0,9.726190299E0
1.076597355E1,-3.936899900E0,8.159099579E0,3.152400017E0,9.592065087E0
1.077597355E1,-4.208600044E0,7.914000034E0,3.230199814E0,9.527743789E0
1.078597355E1,-4.395199776E0,7.621799946E0,3.474299908E0,9.459406711E0
1.079597354E1,-4.710199833E0,6.901799679E0,3.853199959E0,9.201520048E0
1.080597354E1,-4.867399693E0,3.893199921E0,3.489099979E0,7.142996854E0
1.081597354E1,-3.120999813E0,-1.034739971E1,4.117099762E0,1.156545853E1
1.082597354E1,-2.030200005E0,-3.312109756E1,1.218699932E0,3.320563274E1
1.083597354E1,1.352269936E1,-5.703339767E1,-9.624400139E0,5.939950274E1
1.084597355E1,2.211719894E1,-6.928849792E1,-2.209259987E1,7.601413949E1
1.085597355E1,1.566959953E1,-6.706320190E1,-2.104689980E1,7.201375834E1
1.086597355E1,4.768999815E-1,-5.115599823E1,-6.918999553E-1,5.116289978E1
1.087597354E1,5.275999904E-1,-2.915299988E1,9.263999939E0,3.059407555E1
1.088597354E1,3.203199863E0,-1.440629959E1,1.079399967E1,1.828421139E1
1.089597354E1,4.191400051E0,-6.332399845E0,9.348599434E0,1.204422823E1
1.090597354E1,3.702799797E0,-2.494400024E0,6.745800018E0,8.089411332E0
1.091597354E1,3.623299837E0,-7.142999768E-1,5.496999741E0,6.622350966E0
1.092597355E1,2.983500004E0,-1.205699921E0,4.297699928E0,5.368911365E0
1.093597355E1,2.051100016E0,-2.227499962E0,-1.182999983E-1,3.030307285E0
1.094597355E1,-4.500799656E0,5.301599979E0,-5.924419785E1,5.965097768E1
1.095597354E1,-9.148599625E0,9.462200165E0,-3.890369797E1,4.106979209E1
1.096597354E1,-1.863099933E0,7.143099785E0,-1.251069927E1,1.452627317E1
1.097597354E1,1.329199910E0,6.775399685E0,-3.680699825E0,7.824344349E0
1.098597354E1,4.632000029E-1,7.654199600E0,1.531000018E0,7.819545180E0
1.099597354E1,-1.149500012E0,8.365300179E0,2.131899834E0,8.708880195E0
1.100597354E1,-2.187899828E0,8.916799545E0,2.182899952E0,9.437227982E0
1.101597355E1,-2.619199991E0,9.263400078E0,2.292500019E0,9.895774145E0
1.102597355E1,-2.723899841E0,9.445499420E0,2.382699966E0,1.011505555E1
1.103597355E1,-2.746099949E0,9.610499382E0,2.521999836E0,1.030840659E1
1.104597354E1,-2.754799843E0,9.709300041E0,2.631399870E0,1.042994222E1
1.105597354E1,-2.740200043E0,9.781299591E0,2.651999950E0,1.049836281E1
1.106597354E1,-2.633499861E0,9.826199532E0,2.643199921E0,1.051075756E1
1.107597354E1,-2.552399874E0,9.863599777E0,2.595000029E0,1.051377053E1
1.108597354E1,-2.379400015E0,9.951899529E0,2.538199902E0,1.054250005E1
1.109597355E1,-2.321899891E0,9.972399712E0,2.485399961E0,1.053646943E1
1.110597355E1,-2.165499926E0,1.006040001E1,2.375499964E0,1.056144111E1
1.111597355E1,-2.033999920E0,1.013179970E1,2.303499937E0,1.058756973E1
1.112597354E1,-1.950999975E0,1.008370018E1,2.167099953E0,1.049684393E1
1.113597354E1,-1.905999899E0,9.995499611E0,2.042599916E0,1.037858673E1
1.114597354E1,-1.830299973E0,1.001410007E1,1.862999916E0,1.034905633E1
1.115597354E1,-1.713799953E0,1.011969948E1,1.747399926E0,1.041147609E1
1.116597354E1,-1.625399947E0,1.012559986E1,1.678099990E0,1.039161764E1
1.117597355E1,-1.536099911E0,1.011999989E1,1.607499957E0,1.036137330E1
1.118597355E1,-1.367699981E0,1.020059967E1,1.546299934E0,1.040739546E1
1.119597355E1,-1.278399944E0,1.018089962E1,1.495700002E0,1.036928840E1
1.120597354E1,-1.190599918E0,1.016839981E1,1.457000017E0,1.034102180E1
1.121597354E1,-1.037099957E0,1.010389996E1,1.460799932E0,1.026149634E1
1.122597354E1,-8.193999529E-1,9.859499931E0,1.468099952E0,1.000182347E1
1.123597354E1,-8.833000064E-1,9.415499687E0,1.537799954E0,9.581058499E0
1.124597354E1,-8.549000025E-1,9.252399445E0,1.678900003E0,9.442269575E0
1.125597355E1,-8.118000031E-1,9.154699326E0,1.889699936E0,9.382883610E0
1.126597355E1,-6.564999819E-1,9.131999969E0,2.218099833E0,9.420423692E0
1.127597355E1,7.121299744E0,4.781699657E0,1.062299967E0,8.643265753E0
1.128597355E1,2.291359901E1,-9.057299614E0,-1.939999908E-1,2.463950755E1
1.129597354E1,2.432629967E1,-3.699440002E1,-1.757599950E0,4.431076219E1
1.130597354E1,1.311529922E1,-6.634320068E1,-2.805099964E0,6.768530074E1
1.131597354E1,-2.554899931E0,-6.890760040E1,-4.682499886E0,6.911375198E1
1.132597354E1,3.039199829E0,-6.487459564E1,-1.396849918E1,6.643093304E1
1.133597354E1,7.425799847E0,-3.008639908E1,-7.965999603E0,3.199673519E1
1.134597355E1,6.655299664E0,-1.277499962E1,-3.452899933E0,1.481270221E1
1.135597355E1,4.648900032E0,-5.024399757E0,-9.278999567E-1,6.907811720E0
1.136597355E1,3.507499933E0,-1.536499977E0,4.781000018E-1,3.859011217E0
1.137597354E1,3.048599958E0,4.060999751E-1,1.492499948E0,3.418542817E0
1.138597354E1,2.447599888E0,1.648899913E0,2.339999914E0,3.766326557E0
1.139597354E1,2.092599869E0,3.195499897E0,2.679100037E0,4.665594368E0
1.140597354E1,1.656499982E0,4.508699894E0,2.864099979E0,5.592444512E0
1.141597354E1,1.172099948E0,5.548299789E0,2.901299953E0,6.369850097E0
1.142597355E1,3.185999990E-1,6.144299984E0,2.863099813E0,6.786108516E0
1.143597355E1,-6.441000104E-1,6.552499771E0,2.773099899E0,7.144242516E0
1.144597355E1,-1.625800014E0,7.077499866E0,2.817199945E0,7.789149220E0
1.145597354E1,-2.204599857E0,7.674899578E0,2.813899994E0,8.466544587E0
1.146597354E1,-2.509999990E0,8.217100143E0,2.768299818E0,9.026866489E0
1.147597354E1,-2.692100048E0,8.587100029E0,2.672799826E0,9.387733938E0
1.148597354E1,-2.716699839E0,8.805199623E0,2.528300047E0,9.555328333E0
1.149597354E1,-2.668999910E0,8.940400124E0,2.276499987E0,9.603997453E0
1.150597355E1,-2.675499916E0,9.002399445E0,2.134700060E0,9.631118310E0
1.151597355E1,-2.686100006E0,9.020699501E0,1.985999942E0,9.619373602E0
1.152597355E1,-2.838399887E0,9.034500122E0,1.693699956E0,9.620152073E0
1.153597355E1,-3.112399817E0,9.014200211E0,1.112100005E0,9.601021012E0
1.154597354E1,-3.338899851E0,8.999099731E0,6.969000101E-1,9.623809943E0
1.155597354E1,-3.672599792E0,8.950300217E0,4.324999750E-1,9.684158169E0
1.156597354E1,-4.140399933E0,8.917799950E0,6.650000066E-2,9.832318638E0
1.157597354E1,-5.464299679E0,8.795199394E0,-2.321999967E-1,1.035702758E1
1.158597354E1,-6.673699856E0,8.772099495E0,-4.307999909E-1,1.103057514E1
1.159597355E1,-6.721999645E0,8.825099945E0,-5.378999710E-1,1.110661986E1
1.160597355E1,-6.810499668E0,8.760999680E0,-3.632999957E-1,1.110270273E1
1.161597355E1,-6.941699982E0,8.709899902E0,-2.300999910E-1,1.114013020E1
1.162597354E1,-7.224599838E0,8.605199814E0,-5.806999803E-1,1.125084526E1
1.163597354E1,-7.104799747E0,8.510499954E0,-6.758999825E-1,1.110691810E1
1.164597354E1,-6.534100056E0,8.463199615E0,-5.566999912E-1,1.070654595E1
1.165597354E1,-5.694999695E0,8.430500031E0,-2.250999957E-1,1.017629708E1
1.166597354E1,-4.789999962E0,8.281799316E0,4.125999808E-1,9.576144229E0
1.167597355E1,-3.918099880E0,8.199799538E0,8.628999591E-1,9.128680927E0
1.168597355E1,-3.107299805E0,8.083999634E0,1.005499959E0,8.718795348E0
1.169597355E1,-2.678599834E0,7.736699581E0,9.981999993E-1,8.247897958E0
1.170597354E1,-2.510099888E0,7.274299622E0,8.445000052E-1,7.741396301E0
1.171597354E1,-1.723899961E0,5.617399693E0,3.619000018E-1,5.887103022E0
1.172597354E1,4.276799679E0,-8.346999884E-1,-2.919999883E-2,4.357590183E0
1.173597354E1,3.053900003E0,-1.104930019E1,-4.873199940E0,1.245638060E1
1.174597354E1,-3.628499985E0,-3.962709808E1,-2.442379951E1,4.669041548E1
1.175597355E1,1.157500029E0,-6.502130127E1,-4.822739792E1,8.096290098E1
1.176597355E1,-2.533200026E0,-5.440929794E1,-1.353029919E1,5.612359398E1
1.177597355E1,-5.355700016E0,-3.465539932E1,-4.816400051E0,3.539601580E1
1.178597355E1,-1.845600009E0,-2.119759941E1,-4.959000111E0,2.184802376E1
1.179597354E1,1.240499973E0,-1.431349945E1,-4.989699841E0,1.520895168E1
1.180597354E1,2.130499840E0,-1.143690014E1,-5.063999653E0,1.268801824E1
1.181597354E1,2.210000038E0,-9.489600182E0,-5.676499844E0,1.127649158E1
1.182597354E1,2.083899975E0,-7.536299706E0,-5.497600079E0,9.558350223E0
1.183597354E1,1.740299940E0,-5.333699703E0,-4.515699863E0,7.201981787E0
1.184597355E1,1.189999938E0,-3.089900017E0,-3.032999992E0,4.490286285E0
1.185597355E1,4.892999828E-1,-7.371000051E-1,-1.531399965E0,1.768591740E0
1.186597355E1,-1.041999981E-1,1.323099971E0,-5.230000019E-1,1.426527313E0
1.187597354E1,-7.311999798E-1,3.257900000E0,5.832999945E-1,3.389513933E0
1.188597354E1,-1.513599992E0,4.743199825E0,1.359699965E0,5.161173656E0
1.189597354E1,-2.447999954E0,5.752099991E0,2.134199858E0,6.605616331E0
1.190597354E1,-3.174700022E0,6.562599659E0,2.608299971E0,7.742716787E0
1.191597354E1,-3.727499962E0,7.226500034E0,3.024899960E0,8.675631301E0
1.192597355E1,-4.191899776E0,7.608399868E0,3.372499943E0,9.318450952E0
1.193597355E1,-4.310299873E0,7.847399712E0,3.649699926E0,9.668540572E0
1.194597355E1,-4.426700115E0,7.943799973E0,3.933399916E0,9.908141441E0
1.195597354E1,-4.670300007E0,7.917500019E0,4.281199932E0,1.014037384E1
1.196597354E1,-4.933499813E0,7.847599983E0,4.612699986E0,1.035380351E1
1.197597354E1,-5.039499760E0,7.765199661E0,4.895499706E0,1.047190532E1
1.198597354E1,-5.037099838E0,7.720499992E0,5.206500053E0,1.058707409E1
1.199597354E1,-4.995899677E0,7.694599628E0,5.415499687E0,1.065333346E1
1.200597355E1,-4.936399937E0,7.698099613E0,5.442499638E0,1.064187880E1
1.201597355E1,-4.751499653E0,7.690999985E0,5.425499916E0,1.054344721E1
1.202597355E1,-4.373499870E0,7.672699928E0,5.296199799E0,1.029793948E1
1.203597355E1,-4.011099815E0,7.719599724E0,5.115499973E0,1.009205042E1
1.204597354E1,-3.667399883E0,7.780200005E0,4.984099865E0,9.940954958E0
1.205597354E1,-3.453199863E0,7.803499699E0,4.913799763E0,9.847061742E0
1.206597354E1,-3.302299976E0,7.866399765E0,4.837500095E0,9.807488851E0
1.207597354E1,-3.186299801E0,7.889599800E0,4.726999760E0,9.733592253E0
1.208597354E1,-3.086299896E0,7.872499943E0,4.573499680E0,9.613449002E0
1.209597355E1,-3.001999855E0,7.863599777E0,4.369100094E0,9.483524673E0
1.210597355E1,-2.868599892E0,7.829699993E0,4.133699894E0,9.307015748E0
1.211597355E1,-2.717200041E0,7.672799587E0,4.002599716E0,9.070602739E0
1.212597354E1,-2.619699955E0,7.448099613E0,3.816799879E0,8.769548279E0
1.213597354E1,-2.471799850E0,6.933199883E0,3.805299997E0,8.286094567E0
1.214597354E1,-2.491899967E0,6.028699875E0,3.813099861E0,7.556091462E0
1.215597354E1,-2.810099840E0,4.567299843E0,4.074899673E0,6.735109228E0
1.216597354E1,-2.878199816E0,2.166699886E0,4.648799896E0,5.881323240E0
1.217597355E1,-2.101999998E0,-2.093499899E0,5.518099785E0,6.265027618E0
1.218597355E1,-1.352599978E0,-8.224999428E0,6.456299782E0,1.054343156E1
1.219597355E1,-2.675999999E-1,-1.662450027E1,6.348799706E0,1.779755255E1
1.220597354E1,7.329999804E-1,-2.661409950E1,2.995800018E0,2.679220780E1
1.221597354E1,2.493199825E0,-3.530649948E1,-4.222899914E0,3.564544620E1
1.222597354E1,3.623099804E0,-4.077099991E1,-1.536139965E1,4.371926217E1
1.223597354E1,4.571399689E0,-3.924309921E1,-1.903159904E1,4.385339546E1
1.224597354E1,1.521899939E0,-3.823329926E1,-7.827899933E0,3.905607979E1
1.225597355E1,-4.097999930E-1,-3.659869766E1,7.522500038E0,3.736603556E1
1.226597355E1,3.440500021E0,-2.772309875E1,1.869289970E1,3.361296988E1
1.227597355E1,5.660399914E0,-1.874639893E1,1.740379906E1,2.619846983E1
1.228597355E1,4.567100048E0,-1.389109993E1,8.974800110E0,1.715715877E1
1.229597354E1,3.284499884E0,-1.107259941E1,3.161000013E0,1.197423560E1
1.230597354E1,2.027099848E0,-9.409399986E0,-4.014999866E-1,9.633646461E0
1.231597354E1,-5.850999951E-1,-7.895599842E0,-3.235599995E0,8.552891102E0
1.232597354E1,1.326999962E-1,-3.964699984E0,-1.096269989E1,1.165835512E1
1.233597355E1,1.490399957E0,1.345959949E1,-6.767879486E1,6.902029690E1
1.234597355E1,-4.008500099E0,1.386359978E1,-4.045470047E1,4.295172013E1
1.235597355E1,-9.936999679E-1,9.146800041E0,-1.569329929E1,1.819150992E1
1.236597355E1,-2.619999945E-1,8.262299538E0,-5.539499760E0,9.950894193E0
1.237597354E1,-6.578999758E-1,9.085999489E0,-1.132699966E0,9.179936182E0
1.238597354E1,-1.601400018E0,9.497300148E0,1.235399961E0,9.710273178E0
1.239597354E1,-2.142600060E0,9.718299866E0,1.503199935E0,1.006457636E1
1.240597354E1,-2.167700052E0,9.781000137E0,1.672699928E0,1.015700804E1
1.241597354E1,-2.156999826E0,9.842700005E0,1.792999983E0,1.023456108E1
1.242597355E1,-2.062399864E0,9.903399467E0,1.893700004E0,1.029159433E1
1.243597355E1,-2.022500038E0,1.001200008E1,1.896600008E0,1.038882783E1
1.244597355E1,-1.978599906E0,1.010960007E1,1.822699904E0,1.046141033E1
1.245597354E1,-1.949499965E0,1.021570015E1,1.714499950E0,1.054042645E1
1.246597354E1,-1.835999966E0,1.037930012E1,1.575899959E0,1.065759013E1
1.247597354E1,-1.774999976E0,1.040399933E1,1.469900012E0,1.065619224E1
1.248597354E1,-1.738299966E0,1.040679932E1,1.401099920E0,1.064360088E1
1.249597354E1,-1.666099906E0,1.037790012E1,1.430599928E0,1.060770079E1
1.250597355E1,-1.616599917E0,1.036629963E1,1.500999928E0,1.059842272E1
1.251597355E1,-1.550899982E0,1.037199974E1,1.563499928E0,1.060321656E1
1.252597355E1,-1.519299984E0,1.034569931E1,1.647499919E0,1.058565173E1
1.253597355E1,-1.433200002E0,1.031689930E1,1.721599936E0,1.055729036E1
1.254597354E1,-1.373099923E0,1.025579929E1,1.767300010E0,1.049715065E1
1.255597354E1,-1.349900007E0,1.018169975E1,1.851799965E0,1.043639799E1
1.256597354E1,-1.324800014E0,1.015369987E1,1.924799919E0,1.041909646E1
1.257597354E1,-1.298699975E0,1.008309937E1,1.975600004E0,1.035656844E1
1.258597355E1,-1.311200023E0,9.970099449E0,2.022799969E0,1.025738018E1
1.259597355E1,-1.392300010E0,9.598699570E0,1.987199903E0,9.900631101E0
1.260597355E1,-1.409799933E0,9.243899345E0,2.078599930E0,9.579028585E0
1.261597355E1,-1.382499933E0,9.110599518E0,2.117199898E0,9.454991541E0
1.262597354E1,-1.371500015E0,9.051599503E0,2.196899891E0,9.414819965E0
1.263597354E1,-1.342499971E0,8.831399918E0,2.594199896E0,9.301924735E0
1.264597354E1,3.046900034E0,4.919899940E0,1.921799898E0,6.097731553E0
1.265597354E1,1.396999931E1,-5.980499744E0,-1.917999983E-1,1.519750128E1
1.266597354E1,2.126149940E1,-2.819879913E1,-6.502000093E-1,3.532203830E1
1.267597355E1,1.501799965E1,-6.437760162E1,1.331399918E0,6.611950189E1
1.268597355E1,2.603600025E0,-6.923919678E1,-5.969699860E0,6.954482310E1
1.269597355E1,1.253299952E0,-6.681009674E1,-1.363849926E1,6.819947543E1
1.270597354E1,6.825699806E0,-3.585659790E1,-8.280399323E0,3.742794148E1
1.271597354E1,8.071299553E0,-1.794269943E1,-4.157599926E0,2.010900238E1
1.272597354E1,5.757400036E0,-9.477499962E0,-2.103999853E0,1.128704904E1
1.273597354E1,4.392499924E0,-4.997900009E0,-9.475999475E-1,6.720937862E0
1.274597354E1,5.650399685E0,6.302999854E-1,-3.009999990E-1,5.693408089E0
1.275597355E1,9.422100067E0,6.303799629E0,-2.719999850E-2,1.133642798E1
1.276597355E1,8.092599869E0,3.143699884E0,9.905999899E-1,8.738095327E0
1.277597355E1,4.973599911E0,3.427599907E0,1.553200006E0,6.236791439E0
1.278597355E1,2.728399992E0,4.844399929E0,2.032199860E0,5.919646396E0
1.279597354E1,8.414999843E-1,5.947099686E0,2.205100060E0,6.398326591E0
1.280597354E1,-8.305000067E-1,6.847499847E0,2.388999939E0,7.299678426E0
1.281597354E1,-2.107300043E0,7.578899860E0,2.476399899E0,8.246999031E0
1.282597354E1,-2.861999989E0,8.135499954E0,2.510200024E0,8.982121553E0
1.283597355E1,-3.122900009E0,8.549799919E0,2.490999937E0,9.436983830E0
1.284597355E1,-3.063199997E0,8.901499748E0,2.300199986E0,9.690759101E0
1.285597355E1,-3.126099825E0,9.180699348E0,2.220299959E0,9.949244823E0
1.286597355E1,-3.509899855E0,9.436800003E0,2.040799856E0,1.027314243E1
1.287597354E1,-4.500899792E0,9.542799950E0,1.243700027E0,1.062402558E1
1.288597354E1,-5.321000099E0,9.695599556E0,3.475999832E-1,1.106519401E1
1.289597354E1,-6.199999809E0,9.994500160E0,-5.105000138E-1,1.177245265E1
1.290597354E1,-7.274899960E0,1.038210011E1,-1.009249973E1,1.620403415E1
1.291597354E1,-7.432499886E0,1.041499996E1,-1.205739975E1,1.758110257E1
1.292597355E1,-6.515500069E0,1.002409935E1,-5.379899979E0,1.311021101E1
1.293597355E1,-5.565899849E0,9.802800179E0,-1.414099932E0,1.136106558E1
1.294597355E1,-4.788300037E0,9.674599648E0,2.742999792E-1,1.079819133E1
1.295597354E1,-4.386899948E0,9.599599838E0,8.310999870E-1,1.058715899E1
1.296597354E1,-4.151000023E0,9.557099342E0,1.013999939E0,1.046886550E1
1.297597354E1,-4.083600044E0,9.536399841E0,1.116500020E0,1.043385277E1
1.298597354E1,-3.989499807E0,9.517199516E0,1.296399951E0,1.040066576E1
1.299597354E1,-3.712299824E0,9.528499603E0,1.544399977E0,1.034208132E1
1.300597355E1,-3.381199837E0,9.540499687E0,1.791000009E0,1.027916960E1
1.301597355E1,-3.047600031E0,9.581899643E0,1.976300001E0,1.024726444E1
1.302597355E1,-2.792299986E0,9.593299866E0,2.217799902E0,1.023459711E1
1.303597355E1,-2.617499828E0,9.613499641E0,2.269099951E0,1.021858578E1
1.304597354E1,-2.475699902E0,9.573599815E0,2.286999941E0,1.014954542E1
1.305597354E1,-2.298899889E0,9.365599632E0,2.389899969E0,9.935341918E0
1.306597354E1,-2.362599850E0,9.048299789E0,2.420699835E0,9.659885860E0
1.307597354E1,-2.351999998E0,8.935999870E0,2.398399830E0,9.546534419E0
1.308597355E1,-2.255699873E0,8.901999474E0,2.381599903E0,9.487138380E0
1.309597355E1,-2.133399963E0,8.690899849E0,2.664599895E0,9.337195949E0
1.310597355E1,8.871999979E-1,4.509799957E0,1.973399997E0,5.001972315E0
1.311597355E1,1.934329987E1,-1.148409939E1,-7.570799828E0,2.373530700E1
1.312597354E1,2.382639885E1,-4.173929977E1,-1.468139935E1,5.025345674E1
1.313597354E1,9.475399971E0,-6.842479706E1,-1.552659988E1,7.080121017E1
1.314597354E1,-4.319399834E0,-6.923770142E1,-1.524930000E1,7.102856934E1
1.315597354E1,1.529360008E1,-4.965900040E1,-1.057940006E1,5.302673127E1
1.316597354E1,1.807439995E1,-2.125269890E1,-5.195499897E0,2.837876606E1
1.317597355E1,1.250549984E1,-1.029549980E1,-2.924000025E0,1.646009169E1
1.318597355E1,7.648399830E0,-6.398699760E0,-2.561199903E0,1.029568470E1
1.319597355E1,4.718100071E0,-4.776700020E0,-2.826599836E0,7.284709877E0
1.320597354E1,2.863699913E0,-3.246199846E0,-2.754899979E0,5.131088045E0
1.321597354E1,1.634899974E0,-1.610799909E0,-2.434200048E0,3.345579792E0
1.322597354E1,4.081999958E-1,1.437000036E-1,-1.680899978E0,1.735713589E0
1.323597354E1,-7.362999916E-1,1.925199986E0,-7.828999758E-1,2.204873020E0
1.324597354E1,-1.654799938E0,3.639899969E0,2.479999885E-2,3.998480919E0
1.325597355E1,-2.315399885E0,5.221600056E0,7.143999934E-1,5.756435626E0
1.326597355E1,-2.720399857E0,6.484600067E0,1.238399982E0,7.140325478E0
1.327597355E1,-3.107499838E0,7.526799679E0,1.757499933E0,8.330550682E0
1.328597355E1,-3.283399820E0,8.279299736E0,2.079900026E0,9.146228874E0
1.329597354E1,-3.348999977E0,8.771100044E0,2.319599867E0,9.671015478E0
1.330597354E1,-3.228699923E0,9.089799881E0,2.463799953E0,9.955866375E0
1.331597354E1,-3.033699989E0,9.224800110E0,2.491199970E0,1.002528553E1
1.332597354E1,-2.854599953E0,9.312399864E0,2.539199829E0,1.006563798E1
1.333597355E1,-2.682999849E0,9.352099419E0,2.519799948E0,1.005035539E1
1.334597355E1,-2.539399862E0,9.431699753E0,2.492799997E0,1.008065294E1
1.335597355E1,-2.395099878E0,9.521200180E0,2.537999868E0,1.014057196E1
1.336597355E1,-2.231199980E0,9.610400200E0,2.597499847E0,1.020220813E1
1.337597354E1,-2.117399931E0,9.738200188E0,2.661799908E0,1.031509109E1
1.338597354E1,-1.965599895E0,9.855599403E0,2.710899830E0,1.040890967E1
1.339597354E1,-1.835899949E0,9.913199425E0,2.764899969E0,1.045402905E1
1.340597354E1,-1.758199930E0,9.901100159E0,2.735999823E0,1.042155201E1
1.341597355E1,-1.594699979E0,9.966699600E0,2.614099979E0,1.042648971E1
1.342597355E1,-1.502900004E0,9.952699661E0,2.419600010E0,1.035226561E1
1.343597355E1,-1.404099941E0,9.917799950E0,2.242699862E0,1.026469460E1
1.344597355E1,-1.248600006E0,1.003839970E1,2.133800030E0,1.033835446E1
1.345597354E1,-1.174099922E0,1.002979946E1,2.015899897E0,1.029753564E1
1.346597354E1,-1.092199922E0,1.004879951E1,1.929299951E0,1.029045532E1
1.347597354E1,-9.537999630E-1,1.013469982E1,1.845600009E0,1.034543930E1
1.348597354E1,-8.868999481E-1,1.015969944E1,1.785399914E0,1.035344083E1
1.349597354E1,-7.738999724E-1,1.016300011E1,1.739699960E0,1.033982825E1
1.350597355E1,-6.645999551E-1,1.013490009E1,1.718899965E0,1.030109266E1
1.351597355E1,-5.501999855E-1,1.008519936E1,1.673900008E0,1.023796402E1
1.352597355E1,-4.020999968E-1,1.001389980E1,1.634199977E0,1.015433322E1
1.353597355E1,-3.588999808E-1,9.734799385E0,1.570599914E0,9.867214012E0
1.354597354E1,-3.914999962E-1,9.512700081E0,1.571699977E0,9.649610142E0
1.355597354E1,-4.091999829E-1,9.367499352E0,1.617100000E0,9.514856864E0
1.356597354E1,-3.905999959E-1,9.319399834E0,1.695799947E0,9.480480952E0
1.357597354E1,-2.960000038E-1,9.250699997E0,1.895099998E0,9.447458411E0
1.358597355E1,3.353999853E-1,7.965499878E0,1.870299935E0,8.188998920E0
1.359597355E1,1.818289948E1,-3.705099821E0,-2.794100046E0,1.876572922E1
1.360597355E1,2.005150032E1,-3.302379990E1,-4.615999699E0,3.890940089E1
1.361597355E1,7.955699921E0,-6.690059662E1,-6.699800014E0,6.770428575E1
1.362597354E1,-1.111199975E0,-6.861460114E1,-9.298299789E0,6.925067966E1
1.363597354E1,2.988499880E0,-6.686039734E1,-1.801259995E1,6.930871244E1
1.364597354E1,4.055299759E0,-3.529039764E1,-1.096669960E1,3.717695687E1
1.365597354E1,3.945799828E0,-1.437709999E1,-3.177799940E0,1.524364631E1
1.366597355E1,3.762499809E0,-3.797599792E0,1.501099944E0,5.552609300E0
1.367597355E1,5.174599648E0,3.666100025E0,4.778899670E0,7.940696000E0
1.368597355E1,6.723299980E0,6.462599754E0,5.771599770E0,1.096719299E1
1.369597355E1,6.304699898E0,1.718599916E0,1.470399976E0,6.698126795E0
1.370597354E1,3.628099918E0,-8.352999687E-1,-1.298699975E0,3.943026335E0
1.371597354E1,7.254999876E-1,-1.818999946E-1,-2.031499863E0,2.164816281E0
1.372597354E1,-5.447999835E-1,1.690400004E0,-1.642699957E0,2.419240035E0
1.373597354E1,-1.187799931E0,3.668399811E0,-7.707999945E-1,3.932195122E0
1.374597354E1,-1.945499897E0,5.159299850E0,-3.341999948E-1,5.524041494E0
1.375597355E1,-2.974099874E0,6.296299934E0,-7.242000103E-1,7.000937693E0
1.376597355E1,-3.350199938E0,7.250000000E0,-1.030599952E0,8.052855139E0
1.377597355E1,-3.517699957E0,8.032500267E0,-1.021199942E0,8.828257067E0
1.378597355E1,-3.446699858E0,8.724599838E0,-9.327999949E-1,9.427008968E0
1.379597354E1,-3.179299831E0,9.238999367E0,-6.504999995E-1,9.792354516E0
1.380597354E1,-2.945499897E0,9.497799873E0,-1.083999947E-1,9.944642911E0
1.381597354E1,-2.809299946E0,9.589300156E0,3.543999791E-1,9.998622055E0
1.382597354E1,-2.665999889E0,9.700200081E0,8.197000027E-1,1.009323264E1
1.383597355E1,-2.557499886E0,9.791600227E0,1.144299984E0,1.018457967E1
1.384597355E1,-2.525599957E0,9.824199677E0,1.254699945E0,1.022095037E1
1.385597355E1,-2.532599926E0,9.847199440E0,1.334499955E0,1.025486662E1
1.386597355E1,-2.510900021E0,9.821199417E0,1.323899984E0,1.022317407E1
1.387597354E1,-2.539799929E0,9.824399948E0,1.271600008E0,1.022674849E1
1.388597354E1,-2.570699930E0,9.817599297E0,1.207000017E0,1.022010778E1
1.389597354E1,-2.633800030E0,9.800499916E0,1.150300026E0,1.021322140E1
1.390597354E1,-2.640599966E0,9.802299500E0,1.161399961E0,1.021795936E1
1.391597355E1,-2.669299841E0,9.793600082E0,1.220999956E0,1.022402099E1
1.392597355E1,-2.739500046E0,9.774399757E0,1.289399981E0,1.023260981E1
1.393597355E1,-2.830999851E0,9.735199928E0,1.288100004E0,1.021997453E1
1.394597355E1,-2.913599968E0,9.685799599E0,1.275599957E0,1.019465222E1
1.395597354E1,-2.985599995E0,9.642099380E0,1.222199917E0,1.016748053E1
1.396597354E1,-3.055599928E0,9.559599876E0,1.178900003E0,1.010507031E1
1.397597354E1,-3.132200003E0,9.487599373E0,1.146099925E0,1.005677701E1
1.398597354E1,-3.311100006E0,9.367799759E0,1.018199921E0,9.987781868E0
1.399597354E1,-3.520399809E0,9.063499451E0,8.553999662E-1,9.760734922E0
1.400597355E1,-3.426100016E0,8.780599594E0,5.429999828E-1,9.440971323E0
1.401597355E1,-3.352799892E0,8.547999382E0,3.186999857E-1,9.187553006E0
1.402597355E1,-3.320999861E0,8.030599594E0,-1.013800025E0,8.749134838E0
1.403597511E1,-3.301899910E0,3.963799953E0,-1.625810051E1,1.705696589E1
1.404597354E1,-6.926999688E-1,-4.316899776E0,-3.217169952E1,3.246742532E1
1.405597354E1,5.717799664E0,-1.112329960E1,-1.013969994E1,1.610076215E1
1.406597354E1,3.291599989E0,-3.436560059E1,5.279099941E0,3.492417544E1
1.407597354E1,6.380899906E0,-5.423249817E1,2.394399881E0,5.465906048E1
1.408597355E1,5.959599972E0,-5.979710007E1,-1.420029926E1,6.174834822E1
1.409597355E1,1.087039948E1,-4.593050003E1,-1.873069954E1,5.078007014E1
1.410597355E1,1.471999931E1,-2.451789856E1,-4.946899891E0,2.902201833E1
1.411597355E1,1.344069958E1,-1.682469940E1,-5.724199772E0,2.228204161E1
1.412597354E1,9.231900215E0,-1.340670013E1,-5.828099728E0,1.728971765E1
1.413597354E1,5.941799641E0,-1.109359932E1,-5.840899944E0,1.387404198E1
1.414597354E1,4.005499840E0,-8.582300186E0,-5.130099773E0,1.077115728E1
1.415597354E1,2.363499880E0,-6.113100052E0,-3.832499981E0,7.592376442E0
1.416597355E1,8.043999672E-1,-3.940299988E0,-2.197000027E0,4.582557410E0
1.417597355E1,-2.601000071E-1,-1.797299981E0,-7.515000105E-1,1.965373120E0
1.418597355E1,-1.173599958E0,2.583000064E-1,5.501999855E-1,1.321656453E0
1.419597355E1,-1.923499942E0,2.091899872E0,1.721799970E0,3.322723617E0
1.420597354E1,-2.495499849E0,3.588500023E0,2.631500006E0,5.101925538E0
1.421597354E1,-2.912899971E0,4.848000050E0,3.406699896E0,6.602552151E0
1.422597354E1,-3.179299831E0,5.783499718E0,3.990399837E0,7.712334748E0
1.423597354E1,-3.317799807E0,6.553199768E0,4.563099861E0,8.647202039E0
1.424597354E1,-3.459100008E0,7.069499969E0,5.120699883E0,9.389609681E0
1.425597355E1,-3.615899801E0,7.402099609E0,5.806900024E0,1.007898298E1
1.426597355E1,-3.663699865E0,7.552899837E0,6.205199718E0,1.043903713E1
1.427597355E1,-3.516599894E0,7.680399895E0,6.489099979E0,1.065192170E1
1.428597355E1,-3.451599836E0,7.794600010E0,6.726999760E0,1.085918305E1
1.429597354E1,-3.450299978E0,7.836899757E0,6.840600014E0,1.095971607E1
1.430597354E1,-3.434799910E0,7.886299610E0,6.868799686E0,1.100781455E1
1.431597354E1,-3.298300028E0,7.913099766E0,6.822700024E0,1.095651252E1
1.432597354E1,-3.188699961E0,7.955599785E0,6.782000065E0,1.092954255E1
1.433597355E1,-3.028199911E0,7.993399620E0,6.650399685E0,1.083015458E1
1.434597355E1,-2.835099936E0,8.015500069E0,6.469799995E0,1.068383569E1
1.435597355E1,-2.629899979E0,8.040299416E0,6.320399761E0,1.055984099E1
1.436597355E1,-2.451499939E0,8.096099854E0,6.155200005E0,1.046150906E1
1.437597354E1,-2.299799919E0,8.142600060E0,5.985899925E0,1.036445914E1
1.438597354E1,-2.175099850E0,8.198200226E0,5.833899975E0,1.029446139E1
1.439597354E1,-2.097399950E0,8.262100220E0,5.700599670E0,1.025466836E1
1.440597354E1,-2.007699966E0,8.304100037E0,5.587100029E0,1.020806658E1
1.441597355E1,-1.936199903E0,8.333399773E0,5.504299641E0,1.017308883E1
1.442597355E1,-1.912599921E0,8.349599838E0,5.432899952E0,1.014348351E1
1.443597355E1,-1.965899944E0,8.342899323E0,5.402400017E0,1.013186348E1
1.444597355E1,-2.046799898E0,8.313399315E0,5.393399715E0,1.011883187E1
1.445597354E1,-2.154099941E0,8.212399483E0,5.327099800E0,1.002305563E1
1.446597354E1,-2.267400026E0,8.108900070E0,5.291299820E0,9.944506876E0
1.447597354E1,-2.433799982E0,7.876099586E0,5.236999989E0,9.766396261E0
1.448597354E1,-2.649799824E0,7.642099857E0,5.193699837E0,9.612369496E0
1.449597354E1,-2.842700005E0,7.388099670E0,5.220900059E0,9.482761068E0
1.450597355E1,-2.900199890E0,7.037299633E0,5.337899685E0,9.296661690E0
1.451597355E1,-7.627999783E-1,3.805899858E0,5.620899677E0,6.830904093E0
1.452597355E1,1.803599954E0,-4.053400040E0,5.749899864E0,7.262532143E0
1.453597355E1,-9.185000062E-1,-2.166939926E1,4.215199947E0,2.209466943E1
1.454597354E1,1.934499979E0,-4.277769852E1,-9.533499718E0,4.386982331E1
1.455597354E1,1.104819965E1,-5.781719971E1,-2.133259964E1,6.260967261E1
1.456597354E1,4.684299946E0,-6.590549469E1,-2.024399948E1,6.910351953E1
1.457597354E1,2.400499821E0,-5.714299774E1,-1.098149967E1,5.823811403E1
1.458597355E1,6.387199879E0,-3.818219757E1,-6.910999775E0,3.932478165E1
1.459597355E1,6.643799782E0,-2.228929901E1,-5.556799889E0,2.391298708E1
1.460597355E1,4.970900059E0,-1.368190002E1,-2.437700033E0,1.475962795E1
1.461597355E1,4.203499794E0,-8.917599678E0,-3.346699953E0,1.041121487E1
1.462597354E1,3.320999861E0,-5.829799652E0,-3.157699823E0,7.415299875E0
1.463597354E1,2.446899891E0,-3.807499886E0,-2.630800009E0,5.235024655E0
1.464597354E1,1.121500015E0,-1.664399981E0,-1.734899998E0,2.652897960E0
1.465597354E1,7.529000044E-1,9.630999565E-1,-3.865999877E-1,1.282138640E0
1.466597355E1,6.183999777E-1,4.079800129E0,-8.226000071E-1,4.207595322E0
1.467597355E1,-6.763899803E0,9.795100212E0,1.390419960E1,1.830358149E1
1.468597355E1,-3.608999968E0,1.577740002E1,-6.326109695E1,6.529868008E1
1.469597355E1,-9.975999594E-1,1.166160011E1,-2.404739952E1,2.674444889E1
1.470597354E1,-2.053999901E0,9.765099525E0,-4.588999748E0,1.098339670E1
1.471597354E1,-2.604199886E0,9.496399879E0,1.111599922E0,9.909547018E0
1.472597354E1,-2.945600033E0,9.541899681E0,1.727199912E0,1.013447722E1
1.473597354E1,-3.156399965E0,9.561100006E0,1.798599958E0,1.022802307E1
1.474597355E1,-3.441599846E0,9.583999634E0,1.874699950E0,1.035433042E1
1.475597355E1,-3.682699919E0,9.630399704E0,1.985899925E0,1.050003217E1
1.476597355E1,-3.612999916E0,9.652099609E0,2.082499981E0,1.051444727E1
1.477597355E1,-3.320699930E0,9.698299408E0,2.085399866E0,1.046102060E1
1.478597355E1,-2.965499878E0,9.777799606E0,2.132900000E0,1.043785500E1
1.479597354E1,-2.845799923E0,9.820599556E0,2.244899988E0,1.046815785E1
1.480597354E1,-2.748699903E0,9.855400085E0,2.323199987E0,1.049197408E1
1.481597354E1,-2.684900045E0,9.842700005E0,2.436399937E0,1.048920761E1
1.482597354E1,-2.596199989E0,9.782299995E0,2.456599951E0,1.041482265E1
1.483597355E1,-2.423499823E0,9.742899895E0,2.511199951E0,1.034908571E1
1.484597355E1,-2.285599947E0,9.743700027E0,2.561300039E0,1.033072675E1
1.485597355E1,-2.104699850E0,9.764999390E0,2.655599833E0,1.033620748E1
1.486597355E1,-1.940699935E0,9.845699310E0,2.695899963E0,1.039095702E1
1.487597354E1,-1.814599991E0,9.936599731E0,2.711599827E0,1.045856400E1
1.488597354E1,-1.756599903E0,1.001760006E1,2.654500008E0,1.051115239E1
1.489597354E1,-1.708299994E0,1.001019955E1,2.643299818E0,1.049330347E1
1.490597354E1,-1.629499912E0,1.002180004E1,2.738199949E0,1.051615353E1
1.491597355E1,-1.530200005E0,9.944699287E0,2.801899910E0,1.044457750E1
1.492597355E1,-1.439999938E0,9.925799370E0,2.746199846E0,1.039888006E1
1.493597355E1,-1.310199976E0,9.915999413E0,2.699399948E0,1.036003998E1
1.494597355E1,-1.141299963E0,9.875599861E0,2.691599846E0,1.029925958E1
1.495597354E1,-8.951999545E-1,9.657499313E0,2.723199844E0,1.007395123E1
1.496597354E1,-7.106999755E-1,9.271699905E0,2.734200001E0,9.692541629E0
1.497597354E1,-6.087999940E-1,9.090999603E0,2.880100012E0,9.555725367E0
1.498597354E1,-3.734999895E-1,9.008199692E0,3.090600014E0,9.530948136E0
1.499597355E1,-2.224999964E-1,8.916299820E0,3.156199932E0,9.461052095E0
1.500597355E1,-4.418999851E-1,8.492400169E0,3.427500010E0,9.168636352E0
1.501597355E1,1.631920052E1,-3.001299858E0,-2.686699867E0,1.680899945E1
1.502597355E1,2.671749878E1,-3.438980103E1,-1.228739929E1,4.524890426E1
1.503597355E1,2.411050034E1,-6.572480011E1,-2.685229874E1,7.498074102E1
1.504597354E1,9.842800140E0,-6.878089905E1,-3.254800034E1,7.672721235E1
1.505597354E1,6.491999626E-1,-6.896959686E1,-1.924129868E1,7.160624503E1
1.506597354E1,1.093079948E1,-4.384589767E1,-1.367599964E0,4.520857717E1
1.507597354E1,8.127399445E0,-1.589779949E1,2.626699924E0,1.804699983E1
1.508597355E1,4.269400120E0,-4.170399666E0,4.326299667E0,7.371355341E0
1.509597355E1,1.645399928E0,1.485899925E0,4.394499779E0,4.922079623E0
1.510597355E1,5.751000047E-1,4.435499668E0,3.971299887E0,5.981272449E0
1.511597355E1,-2.190000005E-2,6.210999966E0,3.742799997E0,7.251589619E0
1.512597354E1,-4.276999831E-1,7.330499649E0,3.476300001E0,8.124273142E0
1.513597354E1,-6.672999859E-1,8.031100273E0,3.175299883E0,8.661777544E0
1.514597354E1,-9.210999608E-1,8.634099960E0,3.199399948E0,9.253770436E0
1.515597354E1,-1.215099931E0,8.942500114E0,3.286000013E0,9.604299674E0
1.516597355E1,-1.302099943E0,9.073800087E0,3.190099955E0,9.705980115E0
1.517597355E1,-1.387699962E0,9.106299400E0,3.049399853E0,9.703053098E0
1.518597355E1,-1.461599946E0,9.157199860E0,2.855000019E0,9.702659882E0
1.519597355E1,-1.484799981E0,9.205999374E0,2.696899891E0,9.707127510E0
1.520597354E1,-1.516699910E0,9.223099709E0,2.526999950E0,9.682544893E0
1.521597354E1,-1.567399979E0,9.267000198E0,2.296599865E0,9.675143736E0
1.522597354E1,-1.617399931E0,9.317999840E0,2.005800009E0,9.667695549E0
1.523597354E1,-1.666499972E0,9.356399536E0,1.762599945E0,9.665722581E0
1.524597355E1,-1.714399934E0,9.401800156E0,1.411099911E0,9.660445966E0
1.525597355E1,-1.839899898E0,9.463399887E0,5.708000064E-1,9.657483197E0
1.526597355E1,-2.012199879E0,9.491799355E0,4.343999922E-1,9.712461413E0
1.527597355E1,-2.240700006E0,9.526100159E0,4.159999788E-1,9.794915862E0
1.528597355E1,-2.436599970E0,9.616099358E0,3.389999866E-1,9.925790007E0
1.529597354E1,-3.090399981E0,9.625000000E0,1.669999957E-2,1.010897996E1
1.530597354E1,-3.816299915E0,9.612599373E0,-1.864999980E-1,1.034412848E1
1.531597354E1,-3.645900011E0,9.767000198E0,-3.077999949E-1,1.042984279E1
1.532597354E1,-3.764499903E0,9.745599747E0,-3.759000003E-1,1.045416064E1
1.533597355E1,-4.104300022E0,9.666199684E0,-3.707000017E-1,1.050800236E1
1.534597355E1,-4.172299862E0,9.627900124E0,-4.499000013E-1,1.050271188E1
1.535597355E1,-4.240600109E0,9.611599922E0,-1.818999946E-1,1.050707523E1
1.536597355E1,-4.357800007E0,9.558599472E0,1.889999956E-2,1.050512265E1
1.537597354E1,-4.365200043E0,9.302399635E0,1.190999970E-1,1.027637072E1
1.538597354E1,-4.094900131E0,8.911399841E0,1.750999987E-1,9.808767212E0
1.539597354E1,-4.039899826E0,8.423799515E0,3.129999936E-1,9.347681951E0
1.540597354E1,-4.104399681E0,7.907199860E0,2.662000060E-1,8.912955111E0
1.541597355E1,-4.013099670E0,7.370699883E0,1.318999976E-1,8.393425006E0
1.542597355E1,-3.943399906E0,6.568199635E0,-3.643999994E-1,7.669709031E0
1.543597355E1,-4.487699986E0,5.184099674E0,-1.306100011E0,6.979988383E0
1.544597355E1,-5.108599663E0,1.236099958E0,-3.064899921E0,6.084352484E0
1.545597354E1,9.570999742E-1,-1.176979923E1,-4.588500023E0,1.266880211E1
1.546597354E1,-1.056719971E1,-3.625130081E1,-1.555109978E1,4.083698354E1
1.547597354E1,-8.609700203E0,-6.243989944E1,-2.447830009E1,6.761697387E1
1.548597354E1,3.765599966E0,-6.605369568E1,-2.088189888E1,6.937812448E1
1.549597355E1,4.765500069E0,-4.932769775E1,-1.240989971E1,5.108754611E1
1.550597355E1,-5.158400059E0,-3.281520081E1,-2.356499910E0,3.330164541E1
1.551597511E1,-4.692699909E0,-1.311179924E1,-2.185799837E0,1.409675256E1
1.552597355E1,8.607199669E0,-8.206699371E0,-2.502699852E0,1.215307810E1
1.553597355E1,9.719200134E0,-4.771800041E0,-2.695400000E0,1.115787202E1
1.554597354E1,8.976599693E0,2.920999825E-1,-2.350999832E0,9.283957382E0
1.555597354E1,7.815599918E0,5.221399784E0,-1.987699986E0,9.607162381E0
1.556597354E1,5.404599667E0,5.791899681E0,-2.630699873E0,8.347237944E0
1.557597354E1,1.601400018E0,3.273200035E0,-2.688499928E0,4.528394014E0
1.558597355E1,-5.737999678E-1,2.920500040E0,-1.582700014E0,3.370980009E0
1.559597355E1,-1.667899966E0,3.769299984E0,-2.036999911E-1,4.126863985E0
1.560597355E1,-2.460399866E0,5.075999737E0,9.547999501E-1,5.721099874E0
1.561597355E1,-2.947299957E0,6.293900013E0,1.701399922E0,7.155034319E0
1.562597354E1,-3.350499868E0,7.069900036E0,2.278300047E0,8.148618717E0
1.563597354E1,-3.728099823E0,7.570399761E0,2.678799868E0,8.853567053E0
1.564597354E1,-4.248600006E0,7.864199638E0,2.910199881E0,9.400292618E0
1.565597354E1,-4.607699871E0,7.961999893E0,3.059399843E0,9.694548355E0
1.566597355E1,-4.902499676E0,7.962800026E0,3.086799860E0,9.847284941E0
1.567597355E1,-5.269799709E0,7.856999874E0,3.081699848E0,9.949879896E0
1.568597355E1,-5.766999722E0,7.723399639E0,3.045699835E0,1.010868316E1
1.569597355E1,-6.341399670E0,7.524299622E0,2.814399958E0,1.023470965E1
1.570597354E1,-7.095900059E0,7.221799850E0,2.460500002E0,1.041922507E1
1.571597354E1,-7.542999744E0,6.954899788E0,2.254899979E0,1.050485841E1
1.572597354E1,-7.607499599E0,6.753900051E0,2.253000021E0,1.041946377E1
1.573597354E1,-7.406599998E0,6.480199814E0,2.457700014E0,1.014352022E1
1.574597355E1,-7.178099632E0,6.327499866E0,2.868799925E0,9.989613701E0
1.575597355E1,-6.906299591E0,6.244299889E0,3.229199886E0,9.854744393E0
1.576597355E1,-6.614699841E0,6.199299812E0,3.564999819E0,9.741395991E0
1.577597355E1,-6.267899990E0,6.170700073E0,3.970799923E0,9.650459145E0
1.578597355E1,-5.802799702E0,6.205599785E0,4.452799797E0,9.592151954E0
1.579597354E1,-5.289499760E0,6.183300018E0,4.651299953E0,9.372651604E0
1.580597354E1,-5.188499928E0,6.080899715E0,4.966099739E0,9.410633319E0
1.581597354E1,-5.139999866E0,5.997099876E0,5.090199947E0,9.396538781E0
1.582597355E1,-5.041199684E0,5.955299854E0,5.277199745E0,9.419560911E0
1.583597355E1,-4.635600090E0,5.962800026E0,5.662499905E0,9.439686304E0
1.584597355E1,-4.226900101E0,5.807799816E0,6.153599739E0,9.458541796E0
1.585597355E1,-3.812500000E0,5.386300087E0,7.105499744E0,9.697190907E0
1.586597355E1,-3.030200005E0,4.000599861E0,8.121500015E0,9.547024343E0
1.587597354E1,-1.955699921E0,9.781000018E-1,1.150319958E1,1.170918624E1
1.588597354E1,-3.558899879E0,-5.715899944E0,1.350439930E1,1.508993310E1
1.589597354E1,-7.157099724E0,-1.765830040E1,6.734499931E0,2.020873917E1
1.590597354E1,-5.768399715E0,-3.137459946E1,-9.138599396E0,3.318363942E1
1.591597355E1,-6.854000092E-1,-4.156509781E1,-2.026589966E1,4.624752770E1
1.592597355E1,5.141699791E0,-4.878269958E1,-3.021999931E1,5.761455731E1
1.593597355E1,8.927499771E0,-4.538800049E1,-2.951139832E1,5.486978650E1
1.594597355E1,6.268300056E0,-3.484579849E1,-1.741160011E1,3.945484858E1
1.595597354E1,1.530799985E0,-2.754430008E1,-7.893499851E0,2.869388707E1
1.596597354E1,-1.207299948E0,-2.138889885E1,-2.029700041E0,2.151888123E1
1.597597354E1,-5.594999790E-1,-1.600659943E1,2.524600029E0,1.621412565E1
1.598597354E1,7.687000036E-1,-1.104509926E1,5.165400028E0,1.221746597E1
1.599597355E1,1.458499908E0,-6.858299732E0,5.928599834E0,9.182145348E0
1.600597354E1,1.604399920E0,-4.184099674E0,5.538899899E0,7.124619377E0
1.601597354E1,1.077199936E0,-2.267400026E0,4.783299923E0,5.401983037E0
1.602597354E1,5.209999904E-2,-4.136999846E-1,3.186499834E0,3.213665085E0
1.603597354E1,2.889699936E0,8.094099998E0,-3.436119843E1,3.541972300E1
1.604597355E1,-5.573999882E-1,2.012259865E1,-5.514579773E1,5.870509925E1
1.605597354E1,1.214200020E0,1.254329967E1,-3.006759834E1,3.260167355E1
1.606597355E1,-1.282999992E0,9.702799797E0,-8.148099899E0,1.273506752E1
1.607597354E1,-3.140499830E0,9.145099640E0,1.808099985E0,9.836910702E0
1.608597354E1,-3.501199961E0,9.354599953E0,1.942299962E0,1.017543466E1
1.609597354E1,-3.562399864E0,9.412499428E0,1.471899986E0,1.017115175E1
1.610597354E1,-3.681099892E0,9.445799828E0,1.210600019E0,1.020975921E1
1.611597354E1,-3.931799889E0,9.517700195E0,9.149999619E-1,1.033841827E1
1.612597354E1,-3.824599981E0,9.644199371E0,8.330000043E-1,1.040826765E1
1.613597355E1,-3.617999792E0,9.695199966E0,8.818999529E-1,1.038578704E1
1.614597354E1,-3.392599821E0,9.758199692E0,8.369999528E-1,1.036497775E1
1.615597355E1,-3.317600012E0,9.881400108E0,7.184000015E-1,1.044818819E1
1.616597354E1,-3.208499908E0,9.926699638E0,5.679999590E-1,1.044779696E1
1.617597354E1,-3.006799936E0,1.008010006E1,4.957999885E-1,1.053067333E1
1.618597354E1,-2.940599918E0,1.005630016E1,4.249999821E-1,1.048603480E1
1.619597354E1,-2.844499826E0,1.011940002E1,3.577999771E-1,1.051767355E1
1.620597355E1,-2.738800049E0,1.022989941E1,3.849000037E-1,1.059717017E1
1.621597354E1,-2.654700041E0,1.022019958E1,3.793999851E-1,1.056616563E1
1.622597355E1,-2.613399982E0,1.023670006E1,3.534999788E-1,1.057094366E1
1.623597354E1,-2.546700001E0,1.027859974E1,3.088999987E-1,1.059389979E1
1.624597355E1,-2.593099833E0,1.014890003E1,3.350999951E-1,1.048029726E1
1.625597354E1,-2.596099854E0,1.007209969E1,4.037999809E-1,1.040912969E1
1.626597354E1,-2.614699841E0,9.958899498E0,5.745999813E-1,1.031244392E1
1.627597354E1,-2.561100006E0,9.798500061E0,8.947999477E-1,1.016712858E1
1.628597354E1,-2.415599823E0,9.511699677E0,1.361299992E0,9.907607729E0
1.629597355E1,-2.257299900E0,9.049200058E0,1.871099949E0,9.512330921E0
1.630597354E1,-2.273699999E0,8.734600067E0,2.309799910E0,9.316551167E0
1.631597355E1,-2.287799835E0,8.598299980E0,2.643299818E0,9.281800718E0
1.632597354E1,-2.229199886E0,8.513799667E0,2.926699877E0,9.274679999E0
1.633597354E1,-2.196399927E0,8.442500114E0,3.098899841E0,9.257600178E0
1.634597354E1,-2.101999998E0,7.550799847E0,3.737900019E0,8.683598267E0
1.635597354E1,1.171879959E1,-6.417399883E0,3.396999836E-1,1.336520412E1
1.636597355E1,1.467669964E1,-3.427499771E1,-4.318200111E0,3.753435536E1
1.637597354E1,9.034199715E0,-6.707550049E1,-1.155009937E1,6.865962661E1
1.638597355E1,5.767399788E0,-6.959310150E1,-1.376919937E1,7.117621462E1
1.639597354E1,2.014869881E1,-6.534230042E1,-1.086539936E1,6.923614078E1
1.640597355E1,1.661540031E1,-3.216429901E1,-4.364999771E0,3.646459765E1
1.641597354E1,7.765799999E0,-1.452549934E1,-1.312699914E0,1.652334597E1
1.642597354E1,3.361500025E0,-6.278999805E0,-5.410000086E-1,7.142702709E0
1.643597354E1,2.168099880E0,-2.244199991E0,-3.889999911E-2,3.120673629E0
1.644597354E1,2.965999842E0,9.091999531E-1,-1.449999958E-1,3.105611794E0
1.645597355E1,3.332199812E0,2.865299940E0,-6.463999748E-1,4.441996427E0
1.646597354E1,2.267400026E0,2.198400021E0,-1.500399947E0,3.496464719E0
1.647597355E1,9.153999686E-1,2.425499916E0,-1.753099918E0,3.129595225E0
1.648597354E1,-1.666999906E-1,4.046700001E0,-1.050400019E0,4.184125952E0
1.649597355E1,-1.299600005E0,5.724899769E0,-1.169999987E-1,5.871722621E0
1.650597354E1,-2.140300035E0,6.994799614E0,6.162999868E-1,7.340839976E0
1.651597354E1,-2.678499937E0,7.999099731E0,1.019299984E0,8.496995403E0
1.652597354E1,-2.925899982E0,8.653900146E0,5.672000051E-1,9.152736984E0
1.653597354E1,-3.379599810E0,8.960999489E0,-9.386000037E-1,9.623002477E0
1.654597355E1,-4.368199825E0,9.008999825E0,-4.632400036E0,1.103188006E1
1.655597354E1,-4.579899788E0,9.172900200E0,-3.702499866E0,1.090073784E1
1.656597355E1,-4.461400032E0,9.310599327E0,-7.396000028E-1,1.035076607E1
1.657597354E1,-4.504199982E0,9.416500092E0,7.177000046E-1,1.046295296E1
1.658597354E1,-6.053999901E0,9.493100166E0,2.102699995E0,1.145387327E1
1.659597354E1,-7.078599930E0,9.279399872E0,2.483500004E0,1.193237660E1
1.660597354E1,-8.159600258E0,9.272999763E0,3.539099932E0,1.284884545E1
1.661597355E1,-9.463899612E0,9.118100166E0,3.620599985E0,1.363135689E1
1.662597354E1,-1.064410019E1,8.729700089E0,3.144899845E0,1.412072688E1
1.663597355E1,-1.108399963E1,8.271299362E0,1.394199967E0,1.390011635E1
1.664597354E1,-1.174240017E1,8.011099815E0,7.626999617E-1,1.423528690E1
1.665597355E1,-1.152159977E1,7.951999664E0,3.822000027E-1,1.400455771E1
1.666597354E1,-1.028020000E1,8.024199486E0,2.680000067E-1,1.304385348E1
1.667597354E1,-8.113499641E0,8.152400017E0,3.847000003E-1,1.150819258E1
1.668597354E1,-6.329599857E0,8.435400009E0,6.046999693E-1,1.056340237E1
1.669597354E1,-4.778999805E0,8.756400108E0,5.855000019E-1,9.992807026E0
1.670597355E1,-3.561199903E0,8.854999542E0,6.624999642E-1,9.567239301E0
